"Time (s)","Acceleration x (m/s^2)","Acceleration y (m/s^2)","Acceleration z (m/s^2)","Absolute acceleration (m/s^2)"
7.960250005E-3,5.493725739E0,-6.105802917E-1,7.363188171E0,9.207082645E0
1.789425000E-2,5.708978119E0,-8.803193665E-1,7.918233948E0,9.801317371E0
2.782725000E-2,6.015540619E0,-9.704319763E-1,8.546327820E0,1.049610339E1
3.776125000E-2,5.943091278E0,-1.046324158E0,8.856183472E0,1.071667457E1
4.769425000E-2,5.483247528E0,-1.008452911E0,8.753197632E0,1.037793089E1
5.762725000E-2,5.279371490E0,-6.840774536E-1,8.520731049E0,1.004701861E1
6.756025001E-2,5.197940826E0,-3.480262756E-1,8.275241547E0,9.778513884E0
7.749425000E-2,5.065017242E0,-2.372566223E-1,8.173752594E0,9.618779644E0
8.742725000E-2,5.076243896E0,-2.282752991E-1,8.130791931E0,9.588020606E0
9.736025000E-2,5.269791412E0,-3.129991150E-1,8.065976715E0,9.639950744E0
1.072942500E-1,5.611530762E0,-4.216731262E-1,7.955656128E0,9.744719090E0
1.172272500E-1,6.087091827E0,-4.670288086E-1,7.959398346E0,1.003109290E1
1.271602500E-1,6.306685181E0,-5.153782654E-1,8.156089325E0,1.032287197E1
1.370942500E-1,6.547234955E0,-6.658154297E-1,8.632548523E0,1.085497535E1
1.470272500E-1,6.780899048E0,-8.211923218E-1,9.010662231E0,1.130694400E1
1.569602500E-1,6.602470093E0,-9.662406921E-1,9.085805969E0,1.127289238E1
1.668943750E-1,6.228996735E0,-1.007554779E0,8.987610168E0,1.098147092E1
1.768273750E-1,5.744454346E0,-8.752299500E-1,8.803493042E0,1.054828294E1
1.867603750E-1,5.358706512E0,-6.256988525E-1,8.493787079E0,1.006238806E1
1.966943750E-1,5.198539581E0,-3.246748352E-1,8.152197418E0,9.674117545E0
2.066273750E-1,5.517526245E0,2.380050659E-2,7.925718384E0,9.657156633E0
2.165603750E-1,5.777984619E0,1.682501221E-1,7.595954132E0,9.545257123E0
2.264943750E-1,6.427184601E0,2.883004761E-1,7.134912872E0,9.607226486E0
2.364273750E-1,7.325616302E0,4.128414917E-1,7.079827423E0,1.019603102E1
2.463603750E-1,7.452552338E0,3.674858093E-1,7.224726105E0,1.038615663E1
2.562943750E-1,7.292235718E0,5.197192383E-1,7.686815186E0,1.060820143E1
2.662273750E-1,6.176306305E0,2.441423035E-1,7.888595581E0,1.002179152E1
2.761603750E-1,5.836512909E0,-3.631448364E-1,8.600664825E0,1.040039387E1
2.860943750E-1,5.834117889E0,-8.433462524E-1,7.299720154E0,9.382647749E0
2.960273750E-1,5.755980377E0,-1.558858337E0,5.895639954E0,8.385697340E0
3.059603750E-1,5.588478699E0,-1.470242615E0,7.006479950E0,9.082041004E0
3.158943750E-1,5.485792236E0,-6.500981140E-1,6.846313019E0,8.797075990E0
3.258273750E-1,5.677992554E0,-1.962419128E-1,4.893623657E0,7.498377346E0
3.357603750E-1,5.716911621E0,-3.088078308E-1,4.480782166E0,7.270202857E0
3.456943750E-1,5.745202789E0,-2.492317200E-1,6.050717468E0,8.347493841E0
3.556273750E-1,6.261030121E0,7.240443420E-1,8.183632050E0,1.032940327E1
3.655603750E-1,5.449567566E0,3.638932800E-1,7.455546112E0,9.242043757E0
3.754943750E-1,5.778283997E0,-2.153721313E0,7.703430634E0,9.867620025E0
3.854273750E-1,4.792733459E0,-5.389392700E0,4.668042755E0,8.591069250E0
3.953603750E-1,4.766238556E0,-7.156617737E0,4.197870483E0,9.568506884E0
4.052943750E-1,5.008434906E0,-7.757019196E0,2.791694641E0,9.646207855E0
4.152273750E-1,6.855144653E0,-7.550448761E0,2.653082886E0,1.053760568E1
4.251603750E-1,6.887627106E0,-5.312602386E0,3.229983215E0,9.278789945E0
4.350943750E-1,6.970854034E0,-3.419638824E0,2.806813202E0,8.256205909E0
4.450273750E-1,8.482710114E0,-2.096390533E0,1.968706055E0,8.956954151E0
4.549603750E-1,8.812923431E0,-1.766925659E0,1.844614105E0,9.175633324E0
4.648943750E-1,8.648714905E0,-2.201322327E0,4.520150299E0,1.000389165E1
4.748273750E-1,8.441695404E0,-2.876268768E0,5.186265106E0,1.031661229E1
4.847603750E-1,7.768994293E0,-4.033661957E0,3.316802673E0,9.361029916E0
4.946943750E-1,7.689210205E0,-4.705464935E0,2.550097046E0,9.368476332E0
5.046273750E-1,6.532715149E0,-4.485572205E0,2.524200897E0,8.316749088E0
5.145603750E-1,5.348976746E0,-4.203109589E0,2.641107788E0,7.297474412E0
5.244943750E-1,4.684358826E0,-3.972588959E0,2.688708801E0,6.704762163E0
5.344273750E-1,4.364024963E0,-4.024231567E0,2.309996338E0,6.369869439E0
5.443603750E-1,4.903203735E0,-3.586541748E0,1.583407288E0,6.277887162E0
5.542943750E-1,6.395450592E0,-2.792143707E0,1.175355835E0,7.076674084E0
5.642273750E-1,7.761060791E0,-2.030377808E0,1.368753662E0,8.138180708E0
5.741603750E-1,7.964637451E0,-2.001637573E0,1.357826385E0,8.323802929E0
5.840943750E-1,7.340884552E0,-2.561772766E0,1.253792725E0,7.875484868E0
5.940273750E-1,6.807843018E0,-2.789299622E0,1.742676086E0,7.560677144E0
6.039603750E-1,6.569538574E0,-3.567231903E0,2.801574097E0,7.983282404E0
6.138943750E-1,5.627098389E0,-5.233716431E0,2.726280670E0,8.154056061E0
6.238273750E-1,5.416186981E0,-5.309458923E0,2.455044708E0,7.971993477E0
6.337603750E-1,6.879693604E0,-6.273154907E0,2.490071869E0,9.637588624E0
6.436943750E-1,8.724307709E0,-8.401429138E0,2.669997711E0,1.240267892E1
6.536273750E-1,9.616153107E0,-8.705147552E0,3.073708191E0,1.333032920E1
6.635603750E-1,1.165820663E1,-7.295379181E0,3.171604614E0,1.411366059E1
6.734943750E-1,1.116393448E1,-7.713609467E0,2.632425842E0,1.382254933E1
6.834273750E-1,9.355395355E0,-8.357420654E0,2.847977600E0,1.286393714E1
6.933603750E-1,9.618548126E0,-7.385791168E0,3.193608856E0,1.254055488E1
7.032943750E-1,1.074061478E1,-7.024143219E0,2.464475098E0,1.306801558E1
7.132273750E-1,9.489217072E0,-7.001091156E0,2.260898438E0,1.200717201E1
7.231603750E-1,8.018375702E0,-7.161407776E0,2.199226685E0,1.097345471E1
7.330943750E-1,7.782466278E0,-7.189399567E0,2.641706543E0,1.091938006E1
7.430273750E-1,6.650071106E0,-6.696474609E0,2.700534210E0,9.816267260E0
7.529603750E-1,6.549031219E0,-5.820496216E0,3.016826477E0,9.266565065E0
7.628943750E-1,7.143894196E0,-5.171894989E0,3.865262146E0,9.629328819E0
7.728273750E-1,8.494984589E0,-4.208049316E0,4.429588623E0,1.046392362E1
7.827603750E-1,8.998986511E0,-3.796704712E0,5.443280640E0,1.118150388E1
7.926943750E-1,8.436306610E0,-4.461771698E0,4.813390503E0,1.068865773E1
8.026273750E-1,7.840395813E0,-5.629942474E0,4.152065735E0,1.050750725E1
8.125603750E-1,8.413104858E0,-5.819747772E0,4.847070465E0,1.132006579E1
8.224943750E-1,9.493258667E0,-5.558690643E0,4.596192169E0,1.192249908E1
8.324273750E-1,1.018317398E1,-4.973258057E0,3.995790710E0,1.201651661E1
8.423603750E-1,1.061143341E1,-4.039499817E0,4.005221100E0,1.204001137E1
8.522933750E-1,1.101828735E1,-4.093238068E0,4.227359161E0,1.249110962E1
8.622273750E-1,1.021161484E1,-4.599185944E0,4.277205505E0,1.198849765E1
8.721603750E-1,8.753197632E0,-5.070555725E0,4.162993011E0,1.093889917E1
8.820943750E-1,6.987918549E0,-5.930367737E0,3.663332062E0,9.870170664E0
8.920273750E-1,5.088518372E0,-6.644083557E0,2.677332458E0,8.786636138E0
9.019603750E-1,3.898792419E0,-6.866371307E0,1.862127686E0,8.112654114E0
9.118933750E-1,4.930147705E0,-7.064409485E0,2.536475372E0,8.980308741E0
9.218273750E-1,9.784552917E0,-8.790320435E0,5.527555389E0,1.426748323E1
9.317603750E-1,9.268725586E0,-9.981543274E0,4.780908051E0,1.443598150E1
9.416933750E-1,7.782466278E0,-9.826765137E0,4.056115265E0,1.317513436E1
9.516273750E-1,8.728648682E0,-8.194259949E0,2.726280670E0,1.227875442E1
9.615603750E-1,8.575816498E0,-7.598199463E0,2.515518951E0,1.173051999E1
9.714933750E-1,8.314609680E0,-6.741530914E0,3.220103760E0,1.117810545E1
9.814273750E-1,7.222181396E0,-6.909481659E0,3.202590179E0,1.049559073E1
9.913603750E-1,4.374203796E0,-5.986800385E0,2.519261169E0,7.830843795E0
1.001293375E0,2.622995453E0,-4.678970032E0,2.439926147E0,5.892885991E0
1.011227375E0,2.462080078E0,-4.815186768E0,3.250340881E0,6.309720894E0
1.021160375E0,3.226240997E0,-5.561085663E0,3.911066895E0,7.525340456E0
1.031093375E0,4.499792633E0,-6.264323273E0,5.489534454E0,9.467041160E0
1.041027375E0,4.912933502E0,-6.313271484E0,6.588549042E0,1.036355590E1
1.050960375E0,5.259612579E0,-6.164780273E0,6.929390259E0,1.066229289E1
1.060893375E0,5.237907715E0,-6.089935913E0,6.528972931E0,1.035135180E1
1.070827375E0,4.623585205E0,-5.863905945E0,6.118077393E0,9.653693804E0
1.080760375E0,3.734883270E0,-5.964347076E0,5.330714722E0,8.828324220E0
1.090693375E0,3.179388428E0,-6.362369385E0,4.766687622E0,8.562100551E0
1.100627375E0,2.656974792E0,-6.877298584E0,4.197271729E0,8.483739790E0
1.110560375E0,4.415817261E0,-7.947722626E0,3.917653198E0,9.900189069E0
1.120493375E0,5.949677582E0,-8.494086456E0,3.766916656E0,1.103348672E1
1.130427375E0,7.425009613E0,-8.219407654E0,3.455414429E0,1.160298749E1
1.140360375E0,9.067094879E0,-7.677384796E0,2.547103271E0,1.215080993E1
1.150293375E0,9.368567963E0,-6.469247131E0,1.745071106E0,1.151809434E1
1.160227375E0,7.842341766E0,-5.000351715E0,9.595046997E-1,9.350213416E0
1.170160125E0,6.723568268E0,-4.250111847E0,4.249662781E-1,7.965577022E0
1.180093125E0,5.683531036E0,-3.841311951E0,3.384461975E-1,6.868242015E0
1.190027125E0,3.963008881E0,-3.414549408E0,5.719606018E-1,5.262292844E0
1.199960125E0,2.900518341E0,-2.986888733E0,1.066981201E0,4.298018129E0
1.209893125E0,3.261866913E0,-3.024161224E0,1.838327179E0,4.812979710E0
1.219827125E0,3.602259064E0,-3.461851044E0,2.248324585E0,5.478653708E0
1.229760125E0,2.443219299E0,-3.736529846E0,2.382146301E0,5.060197312E0
1.239693125E0,1.525178375E0,-4.906796265E0,3.411855011E0,6.167947250E0
1.249627125E0,1.584155731E0,-7.039710846E0,4.842130737E0,8.689839369E0
1.259560125E0,2.105820923E0,-7.934999084E0,4.652475128E0,9.436324340E0
1.269493125E0,3.049009552E0,-8.204139404E0,3.787573700E0,9.536774987E0
1.279427125E0,4.221970367E0,-8.680448914E0,3.234174500E0,1.018013319E1
1.289360125E0,4.590204620E0,-8.489296417E0,2.657872925E0,1.001011591E1
1.299293125E0,4.085304565E0,-7.459288330E0,2.055375824E0,8.749586594E0
1.309227125E0,4.169729004E0,-6.916517029E0,2.591860199E0,8.481897610E0
1.319160125E0,4.542902985E0,-7.582033081E0,3.742517395E0,9.598522262E0
1.329093125E0,4.308191071E0,-8.537645874E0,2.686463470E0,9.933226734E0
1.339027125E0,4.300107880E0,-1.112666199E1,3.894750824E0,1.254841100E1
1.348960125E0,3.542533264E0,-1.377091324E1,4.430037689E0,1.489338200E1
1.358893125E0,4.393064575E0,-1.696212708E1,4.890031128E0,1.819134892E1
1.368826125E0,6.256539459E0,-2.204046661E1,4.624034271E0,2.337323571E1
1.378760125E0,7.967780914E0,-2.331536545E1,1.757495270E0,2.470183370E1
1.388693125E0,6.998995514E0,-1.877216309E1,7.482939148E-1,2.004844106E1
1.398626125E0,3.116519165E0,-1.340013428E1,1.909279633E0,1.388962343E1
1.408560125E0,1.474134521E0,-9.930499420E0,1.032552795E0,1.009227708E1
1.418493125E0,1.560355225E0,-8.084687805E0,8.149053955E-1,8.274113616E0
1.428426125E0,1.409319305E0,-7.408394165E0,7.816744995E-1,7.581655494E0
1.438360125E0,8.964857483E-1,-7.096442871E0,3.294648743E-1,7.160428425E0
1.448293125E0,4.616400146E-1,-7.413483582E0,-2.930905151E-1,7.433623098E0
1.458226125E0,4.879852295E-2,-8.021668854E0,-1.041234741E0,8.089111341E0
1.468160125E0,-3.543132019E-1,-8.440497894E0,-2.074236603E0,8.698850501E0
1.478093125E0,-3.281176758E-1,-8.871900787E0,-2.317630463E0,9.175494306E0
1.488026125E0,-1.760339355E-1,-9.026379547E0,-1.924996948E0,9.231041595E0
1.497960125E0,-4.879852295E-2,-8.559350739E0,-2.113155670E0,8.816478506E0
1.507893125E0,1.097218323E-1,-8.520431671E0,-2.504142609E0,8.881470877E0
1.517826125E0,3.876937866E-2,-9.195078735E0,-2.625240784E0,9.562576284E0
1.527760125E0,-2.817141724E-1,-1.028541138E1,-2.608924713E0,1.061487344E1
1.537693125E0,-7.120692444E-1,-1.155941208E1,-2.364932098E0,1.182031954E1
1.547626125E0,-9.092092896E-1,-1.211954727E1,-1.760489044E0,1.228044825E1
1.557560125E0,-9.656419373E-1,-1.223031693E1,-1.143921204E0,1.232159373E1
1.567493125E0,-1.365460510E0,-1.268507126E1,-4.956193542E-1,1.276797375E1
1.577426125E0,-1.698068848E0,-1.297591644E1,1.272354126E-2,1.308655827E1
1.587360125E0,-8.186476135E-1,-1.203123093E1,6.529421997E-1,1.207671458E1
1.597293125E0,3.318598938E-1,-1.076441528E1,1.722468109E0,1.090640471E1
1.607226125E0,2.981799316E-1,-1.011955627E1,2.542313232E0,1.043827989E1
1.617160125E0,2.914439392E-1,-9.824519806E0,2.829565887E0,1.022802875E1
1.627093125E0,1.012793884E0,-8.930878143E0,2.205513611E0,9.254762350E0
1.637026125E0,1.474433899E0,-8.098758545E0,1.954036560E0,8.460620791E0
1.646960125E0,1.973945160E0,-7.464078369E0,1.299896851E0,7.829345900E0
1.656893125E0,2.003284149E0,-7.104076996E0,6.463558960E-1,7.409374690E0
1.666826125E0,2.501148834E0,-7.091503143E0,7.155120850E-2,7.519992147E0
1.676760125E0,2.753224640E0,-7.704179077E0,-4.358935547E-1,8.192961880E0
1.686693125E0,2.170336761E0,-9.015302582E0,-6.322851562E-1,9.294397604E0
1.696626125E0,1.688039703E0,-1.013856674E1,-1.057101746E0,1.033235103E1
1.706560125E0,1.539847870E0,-1.057670563E1,-1.478625183E0,1.079000305E1
1.716493125E0,1.944157104E0,-1.061128372E1,-1.297950897E0,1.086571514E1
1.726426125E0,1.161734161E0,-1.053778656E1,-1.283281403E0,1.067901601E1
1.736360125E0,8.981323242E-2,-1.021999741E1,-9.261241150E-1,1.026226677E1
1.746293125E0,9.906399536E-1,-9.685608673E0,-7.584727478E-1,9.765636886E0
1.756226125E0,1.362915802E0,-9.566306763E0,-6.192622375E-1,9.682729485E0
1.766159125E0,1.195713501E0,-9.693392487E0,-5.430706787E-1,9.781948397E0
1.776093125E0,1.020128632E0,-9.837692413E0,-4.933740234E-1,9.902740650E0
1.786026125E0,9.608518982E-1,-9.535321198E0,-7.815248108E-1,9.615423430E0
1.795959125E0,9.122030640E-1,-9.296567688E0,-7.343728638E-1,9.370036751E0
1.805893125E0,9.057664490E-1,-8.988208923E0,-5.147795105E-1,9.048387174E0
1.815826125E0,1.038390656E0,-8.738528137E0,-3.348536682E-1,8.806375880E0
1.825759125E0,1.315165100E0,-8.179141388E0,-2.366578674E-1,8.287582279E0
1.835693125E0,1.412163391E0,-7.456294556E0,1.019380188E-1,7.589527344E0
1.845626125E0,1.370699615E0,-6.452182617E0,2.356100464E-1,6.600378024E0
1.855559125E0,1.458566895E0,-5.749394073E0,3.306623840E-1,5.940731202E0
1.865493125E0,1.547182617E0,-5.693410492E0,3.339555359E-1,5.909333582E0
1.875426125E0,1.562450867E0,-6.150410156E0,-1.886077881E-2,6.345798100E0
1.885359125E0,1.722767487E0,-6.898404694E0,-1.710942078E-1,7.112326508E0
1.895293125E0,1.778152313E0,-7.632328491E0,-2.151026917E-1,7.839676844E0
1.905226125E0,1.661993866E0,-8.042176208E0,-2.842588806E-1,8.217032609E0
1.915159125E0,1.429377594E0,-8.124355316E0,-2.332150269E-1,8.252433511E0
1.925093125E0,1.190923462E0,-8.019423523E0,-1.267863464E-1,8.108361555E0
1.935026125E0,1.032253418E0,-7.926017761E0,-1.014889526E-1,7.993597731E0
1.944959125E0,8.985813904E-1,-8.104746094E0,-1.478924561E-1,8.155748276E0
1.954893125E0,7.683522034E-1,-8.559949493E0,-3.179388428E-1,8.600243342E0
1.964826125E0,6.756948853E-1,-9.217232666E0,-5.207670593E-1,9.256626812E0
1.974759125E0,5.501060486E-1,-1.020832169E1,-8.222401428E-1,1.025614582E1
1.984693125E0,5.819897461E-1,-1.144983994E1,-9.228309631E-1,1.150170264E1
1.994626125E0,1.315015411E0,-1.312814987E1,-1.471889191E0,1.327569367E1
2.004559125E0,8.756790161E-1,-1.532842438E1,-2.302511902E0,1.552510769E1
2.014493125E0,-3.637435913E-1,-1.776850021E1,-2.624043274E0,1.796489667E1
2.024426125E0,3.621419220E0,-2.039493851E1,-2.261048126E0,2.083699912E1
2.034359125E0,6.023623810E0,-2.092034592E1,-1.886077881E0,2.185182388E1
2.044292125E0,6.481521606E0,-1.971804611E1,-1.035845947E0,2.078182960E1
2.054226125E0,6.814728699E0,-1.840318039E1,-1.496887207E-1,1.962498363E1
2.064159125E0,6.499783630E0,-1.814826050E1,2.264790344E-1,1.927842937E1
2.074092125E0,6.576424255E0,-1.950863159E1,3.631448364E-1,2.059048170E1
2.084026125E0,6.083948364E0,-2.133543274E1,-2.203417969E-1,2.218701576E1
2.093959125E0,5.729784851E0,-2.158810730E1,-2.204914856E-1,2.233663868E1
2.103892125E0,5.348976746E0,-2.010139893E1,4.373904419E-1,2.080550652E1
2.113826125E0,4.857398987E0,-1.812101715E1,1.390608215E-1,1.876126130E1
2.123759125E0,4.652475128E0,-1.638447830E1,-6.695576477E-1,1.704537948E1
2.133692125E0,3.175646210E0,-1.356479187E1,-5.086422729E-1,1.394084016E1
2.143626125E0,2.405797119E0,-1.122306152E1,-7.979905701E-1,1.150572721E1
2.153559125E0,1.048270111E0,-9.130712585E0,-6.283932495E-1,9.212147449E0
2.163492125E0,3.481759644E-1,-7.520361328E0,-1.706451416E-1,7.530350641E0
2.173425875E0,2.315684509E-1,-6.467151489E0,1.284329224E-1,6.472570382E0
2.183358875E0,1.206640778E0,-3.763024750E0,-7.285350037E-1,4.018345491E0
2.193291875E0,7.963439941E-2,-3.621419220E0,1.261875916E-1,3.624491980E0
2.203225875E0,-1.191522217E0,-3.421884155E0,8.114625549E-1,3.713150663E0
2.213158875E0,-1.997146912E0,-3.560495911E0,7.725434875E-1,4.154822542E0
2.223091875E0,-2.511327667E0,-3.675007782E0,6.399192810E-1,4.496881757E0
2.233025875E0,-2.718047791E0,-3.153043213E0,5.273533630E-1,4.196137136E0
2.242958875E0,-2.614313507E0,-2.510429535E0,7.312294006E-1,3.697511055E0
2.252891875E0,-2.362836456E0,-1.911524963E0,1.201401672E0,3.268071263E0
2.262825875E0,-1.985770569E0,-9.681866455E-1,1.595681763E0,2.725228508E0
2.272758875E0,-1.762734375E0,-4.333488464E-1,1.969155121E0,2.678170194E0
2.282691875E0,-1.559157715E0,-1.194515991E-1,2.052980804E0,2.580692087E0
2.292625875E0,-1.278491364E0,2.486329651E-1,1.772314453E0,2.199421978E0
2.302558875E0,-1.025068359E0,4.767585754E-1,1.206191711E0,1.653167362E0
2.312491875E0,-9.095086670E-1,8.303233337E-1,6.512956238E-1,1.393136333E0
2.322424875E0,-9.934840393E-1,1.011596375E0,2.733316040E-1,1.443969503E0
2.332358875E0,-9.789642334E-1,1.050665131E0,-1.571731567E-2,1.436145961E0
2.342291875E0,-7.078779602E-1,1.101259918E0,-2.335144043E-1,1.329809607E0
2.352224875E0,-6.277944946E-1,9.024732971E-1,-4.355941772E-1,1.182508464E0
2.362158875E0,-3.869453430E-1,2.392025757E-1,-5.143304443E-1,6.866442869E-1
2.372091875E0,-3.577560425E-1,-6.273454285E-1,-4.655319214E-1,8.592273520E-1
2.382024875E0,-3.574566650E-1,-1.310524750E0,-4.625381470E-1,1.434988475E0
2.391958875E0,-4.537065125E-1,-2.411784668E0,-4.171824646E-1,2.489296305E0
2.401891875E0,-6.512956238E-1,-4.196972351E0,-5.974076843E-1,4.289016070E0
2.411824875E0,-5.442681885E-1,-6.357279968E0,-1.085243225E0,6.472170371E0
2.421758875E0,-3.712280273E-2,-1.009530670E1,-2.029180298E0,1.029728936E1
2.431691875E0,1.873653717E0,-1.616787872E1,-3.228785706E0,1.659324977E1
2.441624875E0,3.795507202E0,-2.222892471E1,-5.329816589E0,2.317192080E1
2.451558875E0,4.750521240E0,-2.657588516E1,-6.520290985E0,2.777335627E1
2.461491875E0,6.657405853E0,-3.144930084E1,-6.190826111E0,3.273691959E1
2.471424875E0,7.597151642E0,-3.556738724E1,-6.099665680E0,3.687765813E1
2.481358875E0,7.935448151E0,-3.710783386E1,-4.515809326E0,3.821459414E1
2.491291875E0,8.132887573E0,-3.578488495E1,-2.030078430E0,3.675354499E1
2.501224875E0,8.370892639E0,-3.297073700E1,-2.415975952E-1,3.401763824E1
2.511158875E0,8.505911865E0,-2.968956024E1,1.346599731E0,3.091332811E1
2.521091875E0,8.073161774E0,-2.597368744E1,3.997736664E0,2.749164016E1
2.531024875E0,6.024521942E0,-2.221560242E1,9.623487854E0,2.494873491E1
2.540957875E0,-5.428162079E0,-1.919742874E1,3.853032578E1,4.338884901E1
2.550891875E0,-1.173559570E-1,-1.530297729E1,2.638578049E1,3.050252938E1
2.560824875E0,4.256249084E0,-1.184516785E1,1.515822830E1,1.970267857E1
2.570757875E0,-3.826043701E-1,-7.849377136E0,9.545200653E0,1.236405933E1
2.580691875E0,-1.683998108E0,-4.623285828E0,1.368603973E0,5.107220213E0
2.590624875E0,-5.611830139E-1,-1.614392853E0,-4.055067444E-1,1.756595109E0
2.600557875E0,-4.505630493E-1,-1.231339417E0,-8.855584717E-1,1.582219209E0
2.610491875E0,3.243754578E-1,-1.210532684E0,-1.120270386E0,1.680956440E0
2.620424875E0,-3.480262756E-1,-1.126108246E0,-1.259780273E0,1.725192281E0
2.630357875E0,-1.201850739E0,-1.724114685E0,-7.765850830E-1,2.240558197E0
2.640291875E0,-1.091979218E0,-2.215093689E0,-4.822970581E-1,2.516280810E0
2.650224875E0,-1.775008850E0,-3.819607086E0,2.125579834E-2,4.211948067E0
2.660157875E0,-2.208208008E0,-4.096531219E0,7.158114624E-1,4.708517462E0
2.670091875E0,-2.609224091E0,-3.553759918E0,-1.514849854E-1,4.411372532E0
2.680024875E0,-2.480641479E0,-2.208208008E0,-2.269281006E-1,3.328852823E0
2.689957875E0,-1.595382385E0,-5.436694336E-1,1.466949463E-2,1.685537482E0
2.699891875E0,-9.388476562E-1,8.378077698E-1,-1.451980591E-2,1.258398826E0
2.709824875E0,-1.050515442E0,1.435065765E0,7.903564453E-2,1.780236804E0
2.719757875E0,-7.234455872E-1,2.086062012E0,2.318678284E-1,2.220088044E0
2.729691875E0,-1.432521057E-1,2.514321442E0,8.637039185E-2,2.519879625E0
2.739624875E0,2.567161560E-1,2.789149933E0,-7.705975342E-1,2.905009654E0
2.749557875E0,9.529183960E-1,3.474424896E0,-2.102078705E0,4.171140936E0
2.759491875E0,1.572480011E0,3.372935944E0,-3.218457184E0,4.920148058E0
2.769424875E0,1.872456207E0,2.182162170E0,-4.299509125E0,5.172398158E0
2.779357875E0,2.485281830E0,1.277443542E0,-5.030738525E0,5.754721356E0
2.789291875E0,3.077151031E0,5.637277222E-1,-5.351970520E0,6.199212520E0
2.799224875E0,3.861669617E0,-4.767585754E-1,-5.522615662E0,6.755669820E0
2.809157875E0,4.280348969E0,-1.724264374E0,-4.221371613E0,6.254154876E0
2.819090875E0,3.799399109E0,-2.346520386E0,-2.481838989E0,5.108925159E0
2.829024875E0,3.901037750E0,-3.604803772E0,-1.040785675E0,5.412572455E0
2.838957875E0,5.520819397E0,-5.963598633E0,-1.378633118E-1,8.127912509E0
2.848890875E0,9.097781067E0,-1.230695755E1,4.535568237E-1,1.531132059E1
2.858824875E0,1.784289551E1,-3.423530731E1,-1.167721710E0,3.862368135E1
2.868757875E0,2.302526871E1,-5.386159424E1,-4.922214203E0,5.878318234E1
2.878690875E0,1.859568008E1,-5.010994583E1,-2.788700867E-1,5.344982467E1
2.888624875E0,1.059930862E1,-3.864079605E1,4.593497772E0,4.033059242E1
2.898557875E0,6.347999268E0,-3.365661072E1,5.524411926E0,3.469270337E1
2.908490875E0,4.287384338E0,-3.387575500E1,5.655389557E0,3.461115243E1
2.918424875E0,1.261426849E0,-3.190031296E1,7.393574982E0,3.277020164E1
2.928357875E0,2.388133850E0,-2.706177475E1,9.409133606E0,2.875021098E1
2.938290875E0,2.760709076E0,-2.289698547E1,2.863844604E1,3.677028760E1
2.948224875E0,9.122629395E0,-1.893143188E1,1.327828766E1,2.485828641E1
2.958157875E0,4.868026886E0,-1.484537888E1,5.139711914E0,1.644687199E1
2.968090875E0,3.583847351E0,-1.184232376E1,2.342628479E0,1.259255741E1
2.978024875E0,2.759062500E0,-9.280700684E0,7.644602966E-1,9.712272165E0
2.987957875E0,1.729952545E0,-6.840026093E0,7.271878052E-1,7.092777655E0
2.997890875E0,1.000519409E0,-4.686903534E0,5.595364380E-1,4.825058015E0
3.007824875E0,9.147477722E-1,-3.017874298E0,1.692979431E-1,3.158004205E0
3.017757875E0,1.135688324E0,-1.757195892E0,-1.079255676E-1,2.095035394E0
3.027690875E0,1.096320190E0,-7.926017761E-1,-2.013313293E-1,1.367724329E0
3.037623875E0,8.497828674E-1,-8.966354370E-2,-1.052311707E-1,8.609553253E-1
3.047557875E0,6.173162842E-1,4.721182251E-1,2.065704346E-2,7.774327795E-1
3.057490875E0,2.601589966E-1,7.676037598E-1,7.723937988E-2,8.141646991E-1
3.067423875E0,-2.432441711E-1,8.821156311E-1,-1.957928467E-1,9.357513303E-1
3.077357875E0,-5.057981873E-1,9.520202637E-1,-6.655160522E-1,1.266919889E0
3.087290875E0,-6.334826660E-1,1.056952057E0,-1.266366577E0,1.766955644E0
3.097223875E0,-8.307723999E-1,1.184636536E0,-1.791773987E0,2.303041581E0
3.107157875E0,-9.851014709E-1,1.318757629E0,-2.072889404E0,2.646963747E0
3.117090875E0,-1.041085052E0,1.401834869E0,-1.959724731E0,2.624789536E0
3.127023875E0,-1.096469879E0,1.369053040E0,-1.693278809E0,2.437979808E0
3.136957875E0,-1.125210114E0,1.379082184E0,-1.415306854E0,2.273996254E0
3.146890875E0,-1.176553345E0,1.334774323E0,-1.270408173E0,2.186283877E0
3.156823875E0,-1.229543152E0,1.243164825E0,-1.101409607E0,2.066479680E0
3.166757750E0,-1.193468170E0,1.122366028E0,-8.710386658E-1,1.855473021E0
3.176690750E0,-1.077609100E0,9.596543884E-1,-5.577401733E-1,1.547013904E0
3.186623750E0,-9.327104187E-1,6.167175293E-1,-2.116598511E-1,1.138019828E0
3.196557750E0,-6.090834045E-1,1.137634277E-2,5.179229736E-2,6.113873215E-1
3.206490750E0,-2.814147949E-1,-3.466790771E-1,5.194198608E-2,4.495315776E-1
3.216423750E0,-1.103205872E-1,-4.547543335E-1,-1.053808594E-1,4.796636960E-1
3.226357750E0,-4.071533203E-2,-4.793032837E-1,-2.998265076E-1,5.668203513E-1
3.236290750E0,7.484436035E-4,-4.837939453E-1,-4.183799744E-1,6.396084307E-1
3.246223750E0,3.622467041E-2,-7.068301392E-1,-6.505471802E-1,9.613182127E-1
3.256156750E0,1.478924561E-1,-1.025517426E0,-1.046773224E0,1.472851775E0
3.266090750E0,4.836442566E-1,-2.827470245E0,-9.630972290E-1,3.025897557E0
3.276023750E0,1.804347839E0,-9.440119171E0,-1.388662262E0,9.710813764E0
3.285956750E0,1.072355026E1,-3.652614349E1,-3.325334930E0,3.821271439E1
3.295890750E0,1.514026566E1,-6.037260452E1,-6.254144440E0,6.255552209E1
3.305823750E0,1.793151123E1,-5.699442947E1,-6.777007141E0,6.013178787E1
3.315756750E0,1.736553818E1,-5.798596756E1,-4.899461517E0,6.072840417E1
3.325690750E0,1.705164093E1,-4.651217743E1,-2.545307007E0,4.960463381E1
3.335623750E0,1.142259659E1,-3.039728851E1,-1.644779663E0,3.251424552E1
3.345556750E0,8.739276581E0,-2.155831924E1,-5.384303284E-1,2.326856229E1
3.355490750E0,8.635542297E0,-1.843386658E1,-5.379812622E-1,2.036343418E1
3.365423750E0,8.160579987E0,-1.635918091E1,-1.284029846E0,1.832666359E1
3.375356750E0,7.880362701E0,-1.388617355E1,-1.055155792E0,1.600122764E1
3.385290750E0,8.059091034E0,-1.151226013E1,-1.654060364E-1,1.405376963E1
3.395223750E0,7.766748962E0,-9.554032288E0,8.605604553E-1,1.234270986E1
3.405156750E0,6.613696747E0,-7.364385681E0,1.788929901E0,1.005859987E1
3.415089750E0,5.592071228E0,-4.891228638E0,3.739972687E0,8.317618283E0
3.425023750E0,4.481680298E0,-2.713557129E0,5.997577972E0,7.963654445E0
3.434956750E0,2.586022339E0,-1.366508331E0,7.241042175E0,7.809452499E0
3.444889750E0,1.262774048E0,-4.463717651E-1,5.956712952E0,6.105429980E0
3.454823750E0,8.776249695E-1,-4.191284180E-3,2.640059967E0,2.782114265E0
3.464756750E0,6.655160522E-1,3.715274048E-1,1.289718018E0,1.498104400E0
3.474689750E0,6.159690857E-1,6.421646118E-1,6.508465576E-1,1.102449339E0
3.484623750E0,4.083508301E-1,7.903564453E-1,2.396516418E-1,9.213287255E-1
3.494556750E0,5.673202515E-2,8.815168762E-1,4.041595459E-2,8.842646522E-1
3.504489750E0,-3.772155762E-2,1.146166534E0,-7.409591675E-2,1.149178335E0
3.514423750E0,-4.251159668E-2,1.445394287E0,-4.216731262E-1,1.506247027E0
3.524356750E0,-1.284329224E-1,1.638492737E0,-7.620652771E-1,1.811600660E0
3.534289750E0,-1.580712891E-1,1.739532623E0,-6.189628601E-1,1.853125819E0
3.544223750E0,-2.083666992E-1,1.790726166E0,-3.963757324E-1,1.845868523E0
3.554156750E0,-2.573149109E-1,1.726809082E0,-2.035766602E-1,1.757704192E0
3.564089750E0,-3.004252625E-1,1.587897949E0,4.161346436E-2,1.616603512E0
3.574023750E0,-2.947370911E-1,1.508712616E0,2.942880249E-1,1.565148284E0
3.583956750E0,-2.746788025E-1,1.383123779E0,4.584965515E-1,1.482801039E0
3.593889750E0,-2.788700867E-1,1.295406189E0,5.504054260E-1,1.434849070E0
3.603822750E0,-2.498304749E-1,1.279389496E0,6.614744568E-1,1.461780149E0
3.613756750E0,5.164260864E-2,1.589544525E0,7.542814636E-1,1.760187286E0
3.623689750E0,2.471360779E-1,1.512754211E0,7.358697510E-1,1.700295808E0
3.633622750E0,1.731898499E-1,9.702822876E-1,7.448510742E-1,1.235413115E0
3.643556750E0,3.083587646E-2,1.916015625E-1,7.243437195E-1,7.498905480E-1
3.653489750E0,8.771759033E-2,-9.355545044E-2,6.738986206E-1,6.859929656E-1
3.663422750E0,1.299298096E-1,-2.478845215E-1,6.002517700E-1,6.622919891E-1
3.673356750E0,9.879455566E-2,-3.400927734E-1,5.387297058E-1,6.447116834E-1
3.683289750E0,5.733078003E-2,-3.929328918E-1,4.111949158E-1,5.716330419E-1
3.693222750E0,2.716850281E-1,-6.809339905E-1,5.038522339E-1,8.895790732E-1
3.703156750E0,3.537144470E0,-5.370681610E0,3.282074890E0,7.219946506E0
3.713089750E0,1.637714355E1,-2.733705231E1,6.544390869E0,3.253235792E1
3.723022750E0,2.717493942E1,-5.823864212E1,-3.063379669E0,6.433973161E1
3.732956750E0,2.133677994E1,-5.167988113E1,-3.826343079E0,5.604203060E1
3.742889750E0,2.227862137E1,-5.589092422E1,-2.951262817E0,6.023987328E1
3.752822750E0,1.780277893E1,-4.734893738E1,-1.131047974E0,5.059782681E1
3.762756750E0,1.200967575E1,-3.080219650E1,8.698411560E-1,3.307210675E1
3.772689750E0,6.756200409E0,-2.094444580E1,1.576820984E0,2.206359940E1
3.782622750E0,5.098996582E0,-1.794558197E1,7.214996338E-2,1.865606829E1
3.792555750E0,5.355862427E0,-1.675540695E1,-1.175954590E0,1.762985518E1
3.802489750E0,4.933291168E0,-1.519505173E1,-1.917961578E0,1.609054180E1
3.812422750E0,4.517306213E0,-1.356404343E1,-2.091151428E0,1.444860698E1
3.822355750E0,4.312382355E0,-1.181957108E1,-2.039658508E0,1.274594480E1
3.832289750E0,3.726800079E0,-9.827513580E0,-1.882036285E0,1.067759910E1
3.842222750E0,2.791245575E0,-7.754474487E0,-1.484313354E0,8.374133541E0
3.852155750E0,1.725611572E0,-5.932313690E0,-1.046623535E0,6.266219103E0
3.862089750E0,8.831634521E-1,-4.272565155E0,-7.273374939E-1,4.423099650E0
3.872022750E0,2.779719543E-1,-2.788401489E0,-5.668711853E-1,2.858984822E0
3.881955750E0,-2.186952209E-1,-1.775308228E0,-5.548960876E-1,1.872820485E0
3.891889750E0,-3.653901672E-1,-1.187031555E0,-4.466711426E-1,1.319874614E0
3.901822750E0,-4.875361633E-1,-7.918533325E-1,-2.356100464E-1,9.592889579E-1
3.911755750E0,-5.519023132E-1,-3.707789612E-1,-3.278182983E-2,6.656935104E-1
3.921689750E0,-5.325924683E-1,6.032455444E-2,-1.287322998E-2,5.361525055E-1
3.931622750E0,-4.501139832E-1,3.863465881E-1,-1.032852173E-2,5.932730926E-1
3.941555750E0,-4.541555786E-1,5.035528564E-1,7.948471069E-2,6.827448924E-1
3.951489750E0,-6.033952332E-1,5.519023132E-1,2.520758057E-1,8.557009890E-1
3.961422750E0,-7.491920471E-1,5.617817688E-1,5.656736755E-1,1.094017453E0
3.971355750E0,-9.139993286E-1,4.849914551E-1,1.162482605E0,1.556270314E0
3.981288750E0,-1.016835480E0,3.692820740E-1,1.666484528E0,1.986830220E0
3.991222750E0,-1.088087311E0,3.237767029E-1,2.175875244E0,2.454220534E0
4.001155750E0,-1.090632019E0,2.881507874E-1,2.293979645E0,2.556335598E0
4.011088750E0,-1.049916687E0,2.206411743E-1,2.216590576E0,2.462576163E0
4.021022750E0,-9.827064514E-1,1.935475159E-1,1.808239746E0,2.067100285E0
4.030955750E0,-9.255253601E-1,1.775308228E-1,1.376088409E0,1.667853020E0
4.040888750E0,-9.328601074E-1,7.140151978E-2,1.120719452E0,1.459910356E0
4.050822750E0,-1.065035248E0,-1.002914429E-1,1.068178711E0,1.511742111E0
4.060755750E0,-1.135089569E0,-3.182382202E-1,1.044827271E0,1.575235830E0
4.070688750E0,-1.118623810E0,-6.059399414E-1,9.656419373E-1,1.597168367E0
4.080622750E0,-8.566685486E-1,-8.298742676E-1,8.285270691E-1,1.452249774E0
4.090555750E0,-4.599934387E-1,-9.081614685E-1,6.777905273E-1,1.223009082E0
4.100488750E0,-2.594105530E-1,-1.547182617E0,9.654922485E-2,1.571747320E0
4.110422750E0,4.203259277E-1,-4.626129913E0,-9.807604980E-1,4.747593392E0
4.120355750E0,1.476978607E0,-1.151764893E1,6.691085815E-1,1.163122560E1
4.130288750E0,1.190668991E1,-3.362846924E1,-2.345771942E0,3.575116577E1
4.140222750E0,1.789319092E1,-4.594710251E1,-3.909270630E0,4.946296500E1
4.150155750E0,2.012475037E1,-4.524835556E1,-1.723665619E0,4.955189483E1
4.160088750E0,2.219030502E1,-4.499059158E1,-1.086440735E0,5.017711950E1
4.170022125E0,1.728156281E1,-3.441194000E1,-1.378782806E0,3.853226012E1
4.179956125E0,1.281425262E1,-2.407578415E1,-1.496887207E0,2.731463205E1
4.189889125E0,1.094658646E1,-1.995200958E1,-1.640738068E0,2.281671455E1
4.199822125E0,1.121153549E1,-1.814302139E1,-1.775008850E0,2.140136467E1
4.209756125E0,1.112965576E1,-1.616727997E1,-1.497785339E0,1.968485560E1
4.219689125E0,1.050829788E1,-1.469209763E1,-1.669029236E0,1.814022369E1
4.229622125E0,9.927505646E0,-1.324026672E1,-1.689386902E0,1.663472451E1
4.239556125E0,9.330097961E0,-1.128323639E1,-1.453926544E0,1.471312522E1
4.249489125E0,8.261470184E0,-9.017248535E0,-9.689350891E-1,1.226790512E1
4.259422125E0,6.890022125E0,-6.936126251E0,-5.809419250E-1,9.793862659E0
4.269356125E0,5.235363007E0,-5.158572693E0,-6.900650024E-2,7.350146933E0
4.279289125E0,3.564986572E0,-3.726949768E0,3.137475586E-1,5.166983778E0
4.289222125E0,2.413880310E0,-2.532583466E0,3.966751099E-1,3.521100439E0
4.299155125E0,1.956431580E0,-1.285077667E0,2.550695801E-1,2.354593304E0
4.309089125E0,1.737287292E0,-2.806663513E-1,1.637594604E-1,1.767415599E0
4.319022125E0,1.389261017E0,2.094145203E-1,1.428030396E-1,1.412194506E0
4.328955125E0,1.185235291E0,6.177653503E-1,1.158590698E-1,1.341581174E0
4.338889125E0,9.122030640E-1,9.990225220E-1,1.621128845E-1,1.362512758E0
4.348822125E0,6.442602539E-1,1.266067200E0,2.067201233E-1,1.435524517E0
4.358755125E0,4.638853455E-1,1.448388062E0,2.086660767E-1,1.535108831E0
4.368689125E0,4.037104797E-1,1.493743744E0,2.332150269E-1,1.564813654E0
4.378622125E0,4.683760071E-1,1.635199585E0,2.309696960E-1,1.716566564E0
4.388555125E0,4.516108704E-1,1.662293243E0,2.504292297E-1,1.740656774E0
4.398489125E0,2.625540161E-1,1.377884674E0,3.107537842E-1,1.436686709E0
4.408422125E0,-2.395019531E-2,1.002315674E0,4.366419983E-1,1.093556837E0
4.418355125E0,-2.561174011E-1,6.649172974E-1,5.530998230E-1,9.020147170E-1
4.428289125E0,-3.659889221E-1,4.887336731E-1,6.141728210E-1,8.660350734E-1
4.438222125E0,-4.342469788E-1,3.126997375E-1,7.015910339E-1,8.823726783E-1
4.448155125E0,-4.562512207E-1,7.409591675E-2,7.887098694E-1,9.141764815E-1
4.458089125E0,-2.104623413E-1,-1.287322998E-1,8.101153564E-1,8.468490378E-1
4.468022125E0,7.274871826E-2,-1.907034302E-1,8.177494812E-1,8.428371066E-1
4.477955125E0,2.320175171E-1,-2.103126526E-1,9.473799133E-1,9.977936862E-1
4.487888125E0,3.737727356E-1,-2.827619934E-1,1.088386688E0,1.185008855E0
4.497822125E0,5.607339478E-1,-4.254153442E-1,1.260528717E0,1.443722072E0
4.507755125E0,1.049617310E0,-7.318281555E-1,1.619931335E0,2.064327125E0
4.517688125E0,2.921923828E0,-1.549877014E0,2.163301392E0,3.952167826E0
4.527622125E0,6.149062958E0,-4.012705536E0,2.993175659E0,7.929179119E0
4.537555125E0,1.095601685E1,-9.139394531E0,3.348536682E0,1.465522212E1
4.547488125E0,2.165741318E1,-1.984348526E1,-2.027982788E0,2.944350806E1
4.557422125E0,2.655717407E1,-2.873828842E1,-4.166435852E0,3.935139011E1
4.567355125E0,2.886297913E1,-3.241269745E1,-2.753673706E0,4.348835751E1
4.577288125E0,2.956457016E1,-3.285248291E1,-3.664978638E0,4.434841046E1
4.587222125E0,2.542133606E1,-2.868425079E1,-3.234922943E0,3.846420800E1
4.597155125E0,1.995934433E1,-2.266347107E1,-2.060764618E0,3.026970594E1
4.607088125E0,1.686707474E1,-1.922362427E1,-1.679657135E0,2.562942037E1
4.617022125E0,1.621547974E1,-1.712379089E1,-1.931583252E0,2.366214300E1
4.626955125E0,1.566103271E1,-1.534743484E1,-2.346819763E0,2.205264757E1
4.636888125E0,1.477577362E1,-1.357392288E1,-2.180814972E0,2.018243847E1
4.646821125E0,1.379321686E1,-1.178738800E1,-1.864822083E0,1.823932314E1
4.656755125E0,1.219858292E1,-1.028451324E1,-1.665287018E0,1.604212638E1
4.666688125E0,1.032088760E1,-8.614436188E0,-1.409618683E0,1.351725773E1
4.676621125E0,8.320896606E0,-6.944209442E0,-1.085093536E0,1.089205183E1
4.686555125E0,6.167774048E0,-5.353916473E0,-6.761439514E-1,8.195305300E0
4.696488125E0,4.550387421E0,-3.910168762E0,-3.893403625E-1,6.012240127E0
4.706421125E0,2.934198303E0,-2.583627319E0,-1.752854919E-1,3.913486273E0
4.716355125E0,1.772314453E0,-1.359772339E0,-8.128097534E-2,2.235326806E0
4.726288125E0,1.050066376E0,-5.358856201E-1,-2.679428101E-2,1.179207668E0
4.736221125E0,6.224057007E-1,-1.202000427E-1,1.434017944E-1,6.499238272E-1
4.746155125E0,2.945874023E-1,1.686991882E-1,2.639012146E-1,4.299825634E-1
4.756088125E0,9.729766846E-2,5.022056580E-1,3.167413330E-1,6.016663787E-1
4.766021125E0,-1.384620667E-1,6.165678406E-1,4.505630493E-1,7.761022531E-1
4.775955125E0,-2.607577515E-1,7.125183105E-1,5.680686951E-1,9.478285658E-1
4.785888125E0,-4.531077576E-1,6.384223938E-1,7.096742249E-1,1.056658553E0
4.795821125E0,-5.661227417E-1,6.144721985E-1,7.933502197E-1,1.152161279E0
4.805754125E0,-6.721023560E-1,5.691165161E-1,8.238867188E-1,1.205986945E0
4.815688125E0,-7.762857056E-1,4.613406372E-1,9.193881226E-1,1.288692826E0
4.825621125E0,-8.720864868E-1,2.902464294E-1,1.004111938E0,1.361256264E0
4.835554125E0,-9.160949707E-1,7.244934082E-2,1.036893768E0,1.385506257E0
4.845488125E0,-9.321116638E-1,-1.204994202E-1,1.118025055E0,1.460593129E0
4.855421125E0,-8.801696777E-1,-3.469784546E-1,1.212927704E0,1.538273813E0
4.865354125E0,-7.762857056E-1,-5.486091614E-1,1.283880157E0,1.597479192E0
4.875288125E0,-7.355703735E-1,-7.131170654E-1,1.392254791E0,1.728575462E0
4.885221125E0,-6.523434448E-1,-8.366102600E-1,1.505718842E0,1.841916916E0
4.895154125E0,-5.258564758E-1,-9.454339600E-1,1.506766663E0,1.854916759E0
4.905088125E0,-3.606001282E-1,-1.056952057E0,1.424886932E0,1.810381969E0
4.915021125E0,-1.562750244E-1,-1.136287079E0,1.291364594E0,1.727192150E0
4.924954125E0,1.062789917E-2,-1.159638519E0,1.133143616E0,1.621384871E0
4.934888125E0,2.517764282E-1,-1.148860931E0,1.086590424E0,1.601234386E0
4.944821125E0,9.392967224E-1,-1.387464752E0,1.079405365E0,1.993101280E0
4.954754125E0,3.481909332E0,-3.092419281E0,1.614093475E0,4.928696314E0
4.964687125E0,1.084869003E1,-8.272846527E0,3.162174225E0,1.400476387E1
4.974621125E0,2.639116928E1,-2.056513458E1,1.018032990E0,3.347319775E1
4.984554125E0,3.671894257E1,-2.965303619E1,-2.192191315E0,4.724816400E1
4.994487125E0,3.697041962E1,-2.855746445E1,-1.431173859E0,4.673744709E1
5.004421125E0,3.534569824E1,-2.805555817E1,-1.807191925E0,4.516302327E1
5.014354125E0,3.379627029E1,-2.476255600E1,-2.271376648E0,4.195868465E1
5.024287125E0,2.922043579E1,-1.964993774E1,-3.187920685E0,3.535699025E1
5.034221125E0,2.308798828E1,-1.509086838E1,-3.154989166E0,2.776226698E1
5.044154125E0,2.036530014E1,-1.172885971E1,-2.237546997E0,2.360758811E1
5.054087125E0,1.761731461E1,-9.257648621E0,-1.593735809E0,1.996531557E1
5.064021125E0,1.508697647E1,-7.226372681E0,-1.220711517E0,1.677281902E1
5.073954125E0,1.307216629E1,-5.466931458E0,-1.258433075E0,1.422506678E1
5.083887125E0,1.147393982E1,-4.090992737E0,-1.256337433E0,1.224605652E1
5.093821125E0,9.262738037E0,-2.620750122E0,-6.466552734E-1,9.648046962E0
5.103754125E0,7.331304474E0,-1.387614441E0,-2.249821472E-1,7.464858746E0
5.113687125E0,5.843847656E0,-3.607498169E-1,-9.011260986E-2,5.855665303E0
5.123620125E0,4.559967499E0,4.842430115E-1,-1.541793823E-2,4.585633282E0
5.133554125E0,3.237916718E0,9.448352051E-1,1.613644409E-1,3.376811620E0
5.143487125E0,2.263892212E0,1.364861755E0,3.463796997E-1,2.666089731E0
5.153420125E0,1.481020203E0,1.619781647E0,4.721182251E-1,2.244996446E0
5.163354125E0,8.349636841E-1,1.735640717E0,3.236270142E-1,1.953035457E0
5.173287000E0,3.724255371E-1,1.818418579E0,1.683998108E-1,1.863787919E0
5.183220000E0,8.307723999E-2,1.773961029E0,2.380050659E-2,1.776064758E0
5.193154000E0,-7.723937988E-2,1.617835693E0,-1.347198486E-3,1.619679001E0
5.203087000E0,-2.354603577E-1,1.347797241E0,4.101470947E-2,1.368824748E0
5.213020000E0,-3.646417236E-1,1.154998169E0,5.673202515E-2,1.212519229E0
5.222954000E0,-5.611830139E-1,1.028660889E0,4.864883423E-2,1.172789968E0
5.232887000E0,-6.424639893E-1,9.068142700E-1,1.649569702E-1,1.123513640E0
5.242820000E0,-8.104147339E-1,8.066725159E-1,2.716850281E-1,1.175289472E0
5.252753000E0,-9.139993286E-1,5.848338318E-1,3.769161987E-1,1.148691083E0
5.262687000E0,-1.096320190E0,2.829116821E-1,4.451742554E-1,1.216608851E0
5.272620000E0,-1.067729645E0,8.846603394E-2,4.686753845E-1,1.169414148E0
5.282553000E0,-1.079555054E0,2.245330811E-3,5.051994324E-1,1.191918882E0
5.292487000E0,-1.048868866E0,-8.352630615E-2,5.722599792E-1,1.197741218E0
5.302420000E0,-1.045126648E0,-1.228944397E-1,6.027964783E-1,1.212747438E0
5.312353000E0,-1.091979218E0,-2.396516418E-1,6.117778015E-1,1.274411079E0
5.322287000E0,-1.117875366E0,-3.818559265E-1,5.674699402E-1,1.310527152E0
5.332220000E0,-9.738748169E-1,-5.438191223E-1,4.087998962E-1,1.187976747E0
5.342153000E0,-4.933740234E-1,-6.873706055E-1,2.712359619E-1,8.885185554E-1
5.352087000E0,-2.290237427E-1,-6.997947693E-1,2.059716797E-1,7.645841528E-1
5.362020000E0,-2.110610962E-1,-7.289840698E-1,1.483415222E-1,7.732850494E-1
5.371953000E0,-2.131567383E-1,-8.913963318E-1,2.999761963E-1,9.643697080E-1
5.381887000E0,5.493576050E-2,-1.278042297E0,6.631210327E-1,1.440881520E0
5.391820000E0,2.010319519E0,-2.470462646E0,1.170266418E0,3.393242365E0
5.401753000E0,3.391721878E1,-7.179370422E0,1.729653168E0,3.471185373E1
5.411686000E0,9.890667252E1,-2.923959595E1,-1.630110168E-1,1.031383072E2
5.421620000E0,5.658098923E1,-3.394027084E1,1.778152313E0,6.600387983E1
5.431553000E0,5.898992981E1,-2.062261505E1,3.943399658E0,6.261512973E1
5.441486000E0,4.258569260E1,-1.182600769E1,4.945415955E0,4.447305713E1
5.451420000E0,2.219299942E1,-6.067781982E0,2.717149658E0,2.316743628E1
5.461353000E0,1.941836929E1,-4.166286163E0,4.581971741E-1,1.986557200E1
5.471286000E0,1.739188339E1,-3.808679810E0,-6.216572571E-1,1.781488444E1
5.481220000E0,1.653536453E1,-2.787802734E0,-3.113525391E-1,1.677161485E1
5.491153000E0,1.417986282E1,-2.025887146E0,-3.445834351E-1,1.432799589E1
5.501086000E0,1.170820267E1,-1.373693390E0,-4.698728943E-1,1.179787370E1
5.511020000E0,9.394015045E0,-6.415658569E-1,-4.546046448E-1,9.426865375E0
5.520953000E0,6.898105316E0,-3.381468201E-1,-4.423301697E-1,6.920538722E0
5.530886000E0,5.114863586E0,-1.046324158E-1,-5.053491211E-1,5.140832149E0
5.540820000E0,3.782484283E0,1.642085266E-1,-6.050418091E-1,3.834087556E0
5.550753000E0,2.603535919E0,3.146456909E-1,-6.402186584E-1,2.699496457E0
5.560686000E0,1.760189667E0,4.144880676E-1,-6.706054688E-1,1.928673045E0
5.570619000E0,1.120569763E0,5.867797852E-1,-6.613247681E-1,1.427353341E0
5.580553000E0,5.246589661E-1,6.885681152E-1,-7.258406067E-1,1.129706894E0
5.590486000E0,1.586700439E-1,7.641609192E-1,-7.050338745E-1,1.051756083E0
5.600419000E0,-2.245330811E-2,8.901988220E-1,-5.319937134E-1,1.037292343E0
5.610353000E0,-8.442443848E-2,9.412426758E-1,-2.966830444E-1,9.904978997E-1
5.620286000E0,-3.249742126E-1,5.239105225E-1,-2.522254944E-1,6.661142353E-1
5.630219000E0,-4.965174866E-1,3.339555359E-1,-2.127076721E-1,6.350594210E-1
5.640153000E0,-5.643264771E-1,2.661465454E-1,-1.249900818E-1,6.363339350E-1
5.650086000E0,-6.667135620E-1,2.863545227E-1,-3.637435913E-2,7.265183965E-1
5.660019000E0,-7.920030212E-1,1.064286804E-1,3.338058472E-2,7.998188002E-1
5.669953000E0,-8.544232178E-1,-5.104385376E-2,1.431024170E-1,8.678264872E-1
5.679886000E0,-8.755293274E-1,-8.442443848E-2,2.445913696E-1,9.129644172E-1
5.689819000E0,-7.891589355E-1,-1.332229614E-1,2.900967407E-1,8.512792151E-1
5.699752000E0,-7.521858215E-1,-2.357597351E-1,2.701881409E-1,8.332873420E-1
5.709686000E0,-8.074209595E-1,-3.129991150E-1,2.658471680E-1,9.058541651E-1
5.719619000E0,-8.999285889E-1,-4.137396240E-1,2.360591125E-1,1.018221904E0
5.729552000E0,-9.484277344E-1,-4.822970581E-1,1.586700439E-1,1.075779625E0
5.739486000E0,-1.043180695E0,-5.099894714E-1,4.745132446E-2,1.162138912E0
5.749419000E0,-1.101409607E0,-5.373825073E-1,-1.916015625E-2,1.225663165E0
5.759352000E0,-1.147214355E0,-5.478607178E-1,-5.613327026E-2,1.272557695E0
5.769286000E0,-1.176703033E0,-5.748046875E-1,-9.550140381E-2,1.313069296E0
5.779219000E0,-9.111552429E-1,-5.884263611E-1,-2.107617188E-1,1.104929844E0
5.789152000E0,4.775070190E-2,-4.421804810E-1,-3.797602844E-1,5.848261117E-1
5.799086000E0,6.840774536E-1,-3.218307495E-1,-5.167254639E-1,9.157194979E-1
5.809019000E0,6.846762085E-1,-2.689906311E-1,-7.134164429E-1,1.024744110E0
5.818952000E0,-1.061592407E0,-1.301393738E0,-1.024619293E0,1.967345622E0
5.828886000E0,-1.633553009E0,-4.671036530E0,-2.600991211E0,5.590369663E0
5.838819000E0,6.788293671E1,-8.705895996E0,-8.291407928E0,6.893934411E1
5.848752000E0,1.125129282E2,-2.041065582E1,-1.375399841E1,1.151734620E2
5.858685000E0,6.378895020E1,-1.802850952E1,-7.960595856E0,6.676397538E1
5.868619000E0,5.487453781E1,-9.008865967E0,-6.152954865E0,5.594848898E1
5.878552000E0,2.946113525E1,-3.883673859E0,-8.783734131E-1,2.972899179E1
5.888485000E0,1.837294327E1,-1.813927917E0,-8.831634521E-2,1.846248029E1
5.898419000E0,1.468745728E1,-9.379495239E-1,-1.132844238E0,1.476091076E1
5.908352000E0,1.317440369E1,-1.064286804E-1,-1.394500122E0,1.324842897E1
5.918285000E0,1.217463272E1,6.126759338E-1,-1.336420898E0,1.226307769E1
5.928219000E0,1.087563400E1,8.482859802E-1,-1.115779724E0,1.096558108E1
5.938152000E0,9.358089752E0,8.994795227E-1,-5.951623535E-1,9.420038506E0
5.948085000E0,7.816146240E0,9.012757874E-1,7.496411133E-1,7.903568934E0
5.958019000E0,6.174510040E0,1.092577972E0,2.915337524E0,6.915019432E0
5.967952000E0,4.299209747E0,8.425978088E-1,4.496050415E0,6.277550864E0
5.977885000E0,2.371817780E0,3.531156921E-1,5.488935699E0,5.989876909E0
5.987818000E0,6.521937561E-1,-1.896556091E-1,4.331692200E0,4.384618941E0
5.997752000E0,-8.349636841E-1,-3.363505554E-1,1.766626282E0,1.982741655E0
6.007685000E0,-1.199755096E0,-5.718109131E-2,8.734336853E-1,1.485115609E0
6.017618000E0,-1.556912384E0,1.538800049E-1,7.418572998E-1,1.731475521E0
6.027552000E0,-1.884580994E0,1.043330383E-1,8.794212341E-1,2.082285430E0
6.037485000E0,-2.032024384E0,2.844085693E-3,1.314117279E0,2.419924670E0
6.047418000E0,-2.060764618E0,-1.321751404E-1,1.632205811E0,2.632169616E0
6.057352000E0,-2.016756134E0,-1.886077881E-1,1.545685730E0,2.547944775E0
6.067285000E0,-1.996398468E0,-3.014730835E-1,1.225800934E0,2.362007788E0
6.077218000E0,-1.911974030E0,-3.376977539E-1,9.415420532E-1,2.157819710E0
6.087152000E0,-1.793121185E0,-3.252735901E-1,8.171507263E-1,1.997203496E0
6.097085000E0,-1.607656860E0,-2.688409424E-1,7.276368713E-1,1.785018613E0
6.107018000E0,-1.372944946E0,-1.645079041E-1,5.721102905E-1,1.496446077E0
6.116951000E0,-1.188229065E0,-1.210981750E-1,3.505709839E-1,1.244770297E0
6.126885000E0,-9.916877747E-1,-7.214996338E-2,1.706451416E-1,1.008845887E0
6.136818000E0,-9.912387085E-1,-5.418731689E-2,1.293310547E-1,1.001107868E0
6.146751000E0,-9.924362183E-1,-8.382568359E-2,1.751358032E-1,1.011251177E0
6.156685000E0,-9.725276184E-1,-1.588197327E-1,1.597178650E-1,9.982702402E-1
6.166618000E0,-8.881031799E-1,-1.980381775E-1,2.148033142E-1,9.349261157E-1
6.176551417E0,-4.996609497E-1,-1.947450256E-1,1.242416382E-1,5.504749534E-1
6.186485417E0,1.655557251E-1,-2.177970886E-1,2.739303589E-2,2.749448096E-1
6.196418417E0,4.382885742E-1,-2.610571289E-1,7.185058594E-2,5.151797798E-1
6.206351417E0,7.153623962E-1,-3.251239014E-1,1.923500061E-1,8.089792544E-1
6.216285417E0,1.057700500E0,-4.950205994E-1,4.098477173E-1,1.237639242E0
6.226218417E0,1.559606781E0,-1.138981476E0,9.491761780E-1,2.151879999E0
6.236151417E0,9.381441193E0,-2.705324249E0,2.699935455E0,1.013014657E1
6.246084417E0,4.700959305E1,-4.688550110E0,2.863395538E0,4.732951906E1
6.256018417E0,7.162425659E1,-9.924661560E0,2.268532562E0,7.234417239E1
6.265951417E0,6.131519440E1,-1.053464310E1,9.331594849E-1,6.222059591E1
6.275884417E0,5.457545975E1,-7.172335052E0,-1.630559235E0,5.506888341E1
6.285818417E0,3.612542679E1,-3.553759918E0,-5.295986938E-1,3.630366572E1
6.295751417E0,2.524769714E1,-2.266137543E0,-1.368154907E-1,2.534956230E1
6.305684417E0,2.176863190E1,-1.477128296E0,4.722679138E-1,2.182380076E1
6.315618417E0,2.097588043E1,-4.110452271E-1,3.754193115E-1,2.098326614E1
6.325551417E0,1.938513840E1,4.866380310E-1,4.535568237E-1,1.939654920E1
6.335484417E0,1.646665741E1,9.933343506E-1,4.192781067E-1,1.650191848E1
6.345418417E0,1.355625961E1,1.151255951E0,4.864883423E-1,1.361375172E1
6.355351417E0,1.091036179E1,1.562151489E0,3.535647583E-1,1.102729884E1
6.365284417E0,8.068222046E0,1.685045929E0,-2.409988403E-2,8.242339933E0
6.375218417E0,5.574557648E0,1.507814484E0,-1.636097717E-1,5.777193578E0
6.385151417E0,4.127067719E0,1.525926819E0,5.837860107E-2,4.400516864E0
6.395084417E0,2.788401489E0,9.886940002E-1,-3.487747192E-1,2.978983467E0
6.405017417E0,1.244212646E0,1.913021851E-1,2.532733154E-1,1.284059581E0
6.414951417E0,3.891906738E-1,6.496490479E-2,5.248086548E-1,6.565926771E-1
6.424884417E0,-1.850152588E-1,1.481918335E-2,3.067121887E-1,3.585005173E-1
6.434817417E0,-3.995191956E-1,7.933502197E-3,-1.338217163E-1,4.214104648E-1
6.444751417E0,-7.258406067E-1,1.032852173E-2,-3.796105957E-1,8.191797538E-1
6.454684417E0,-1.112486572E0,-4.191284180E-2,-1.941462708E-1,1.130077800E0
6.464617417E0,-1.053509216E0,-3.742218018E-3,5.239105225E-2,1.054817755E0
6.474551417E0,-9.668394470E-1,3.802093506E-2,2.427951050E-1,9.975838666E-1
6.484484417E0,-9.734257507E-1,-2.544708252E-3,2.880010986E-1,1.015139794E0
6.494417417E0,-1.033450928E0,-1.191522217E-1,3.405418396E-1,1.094617201E0
6.504351417E0,-1.170565796E0,-2.424957275E-1,4.968168640E-1,1.294548360E0
6.514284417E0,-1.282682648E0,-3.309617615E-1,6.848258972E-1,1.491240079E0
6.524217417E0,-1.379531250E0,-3.894900513E-1,7.858657837E-1,1.634745852E0
6.534150417E0,-1.461410980E0,-4.233197021E-1,8.773255920E-1,1.756309146E0
6.544084417E0,-1.596430206E0,-4.755610657E-1,1.023870850E0,1.955264496E0
6.554017417E0,-1.694925385E0,-4.909790039E-1,1.026415558E0,2.041411604E0
6.563950417E0,-1.669627991E0,-3.957769775E-1,8.792715454E-1,1.928060034E0
6.573884417E0,-1.537153473E0,-2.844085693E-1,7.057823181E-1,1.715184455E0
6.583817417E0,-1.370100861E0,-1.766326904E-1,6.029461670E-1,1.507288810E0
6.593750417E0,-7.723937988E-1,-9.101074219E-2,4.977149963E-1,9.233609009E-1
6.603684417E0,4.161346436E-2,-6.885681152E-3,2.718347168E-1,2.750876338E-1
6.613617417E0,3.126997375E-1,1.025367737E-1,-1.811233521E-2,3.295799941E-1
6.623550417E0,4.008663940E-1,1.318757629E-1,-3.119512939E-1,5.247844248E-1
6.633484417E0,4.047583008E-1,-1.077758789E-2,-5.122348022E-1,6.529394544E-1
6.643417417E0,7.725434875E-1,-4.580474854E-2,-6.872209167E-1,1.034985074E0
6.653350417E0,8.995393982E0,-3.218307495E-2,-6.631210327E-1,9.019860206E0
6.663283417E0,3.876099609E1,-3.751498718E0,-1.183289337E0,3.896009156E1
6.673217417E0,6.319378784E1,-1.606504257E1,-4.405937805E0,6.535252637E1
6.683150417E0,5.531013199E1,-9.880204010E0,-3.362906799E0,5.628621744E1
6.693083417E0,6.248950241E1,-8.150700531E0,-6.267317047E0,6.332970151E1
6.703017417E0,4.456173340E1,-6.446344757E0,-3.786076813E0,4.518448652E1
6.712950417E0,2.797502563E1,-3.173101501E0,-1.449585571E0,2.819169968E1
6.722883417E0,2.293410828E1,-2.340383148E0,-1.882784729E0,2.312997177E1
6.732817417E0,2.145473465E1,-1.658401337E0,-1.651216278E0,2.158199363E1
6.742750417E0,1.928888855E1,-8.533753967E-1,-9.478289795E-1,1.933100750E1
6.752683417E0,1.607297607E1,-3.832031250E-1,-3.311114502E-1,1.608095269E1
6.762617417E0,1.303534286E1,-2.380050659E-2,-5.313949585E-2,1.303547291E1
6.772550417E0,1.024125320E1,2.454895020E-2,5.239105225E-2,1.024141663E1
6.782483417E0,7.763605499E0,9.954299927E-2,6.481521606E-2,7.764514162E0
6.792416417E0,6.014343109E0,3.927832031E-1,2.740800476E-1,6.033383922E0
6.802350417E0,4.438120880E0,5.837860107E-1,5.635780334E-1,4.511689623E0
6.812283417E0,2.979104919E0,6.698570251E-1,4.857398987E-1,3.091879332E0
6.822216417E0,1.789828033E0,7.167095947E-1,3.808081055E-1,1.965240913E0
6.832150417E0,9.141490173E-1,8.440946960E-1,3.104544067E-1,1.282398620E0
6.842083417E0,3.188369751E-1,9.351054382E-1,3.171903992E-1,1.037636230E0
6.852016417E0,-1.332229614E-1,9.047186279E-1,2.839595032E-1,9.575474676E-1
6.861950417E0,-5.026547241E-1,7.782316589E-1,2.739303589E-1,9.660973699E-1
6.871883417E0,-7.463479614E-1,6.571334839E-1,2.739303589E-1,1.031454089E0
6.881816417E0,-8.324189758E-1,5.498066711E-1,2.486329651E-1,1.028118222E0
6.891750417E0,-9.110055542E-1,4.619393921E-1,2.435435486E-1,1.050063132E0
6.901683417E0,-9.383985901E-1,3.903881836E-1,2.297721863E-1,1.042012526E0
6.911616417E0,-9.587562561E-1,3.429368591E-1,2.468367004E-1,1.047734511E0
6.921549417E0,-9.621990967E-1,3.077600098E-1,3.155438232E-1,1.058353074E0
6.931483417E0,-9.960287476E-1,2.570155334E-1,3.610491943E-1,1.090177404E0
6.941416417E0,-9.767189026E-1,2.088157654E-1,3.875440979E-1,1.071342273E0
6.951349417E0,-1.004411316E0,1.619631958E-1,4.016148376E-1,1.093786380E0
6.961283417E0,-1.004411316E0,1.435514832E-1,4.228706360E-1,1.099212761E0
6.971216417E0,-1.008602600E0,1.203497314E-1,3.975732422E-1,1.090792256E0
6.981149417E0,-1.025367737E0,7.753875732E-2,3.604504395E-1,1.089640204E0
6.991083417E0,-1.044527893E0,5.777984619E-2,3.808081055E-1,1.113279769E0
7.001016417E0,-1.071920929E0,-6.137237549E-3,3.848497009E-1,1.138929952E0
7.010949417E0,-1.082099762E0,-9.819580078E-2,3.817062378E-1,1.151643157E0
7.020883417E0,-1.076411591E0,-1.790277100E-1,3.742218018E-1,1.153583456E0
7.030816417E0,-9.657916260E-1,-2.806663513E-1,3.174897766E-1,1.054669059E0
7.040749417E0,-2.918930054E-1,-2.745291138E-1,2.680924988E-1,4.821217157E-1
7.050682417E0,3.501219177E-1,-2.098635864E-1,4.257147217E-1,5.897975131E-1
7.060616417E0,3.703298950E-1,-4.728666687E-1,7.256909180E-1,9.420055339E-1
7.070549417E0,-1.462458801E-1,-1.546733551E0,1.133742371E0,1.923315964E0
7.080482417E0,-2.550695801E-1,-3.462599487E0,2.042652283E0,4.028285497E0
7.090416417E0,3.394670746E1,-3.221900024E0,3.288361816E0,3.425745044E1
7.100349417E0,1.096212415E2,-7.469317474E0,-4.706363068E0,1.099761662E2
7.110282417E0,6.674395523E1,-1.222013809E1,-3.297343140E0,6.793349547E1
7.120216417E0,5.492543198E1,-4.631219330E0,-6.528224487E0,5.550557616E1
7.130149417E0,3.111205215E1,-9.291178894E-1,-3.922143860E0,3.137206180E1
7.140082417E0,2.169303909E1,-3.860472107E-1,-2.271226959E0,2.181502806E1
7.150016417E0,1.951446945E1,-1.477427673E-1,-1.687440948E0,1.958784835E1
7.159949417E0,1.839973755E1,7.589218140E-2,-8.610095215E-1,1.842002820E1
7.169881875E0,1.716869751E1,2.249821472E-1,-7.444020081E-1,1.718630052E1
7.179814875E0,1.472922043E1,4.299060059E-1,-8.988807678E-1,1.476288387E1
7.189748875E0,1.221489899E1,6.221063232E-1,-7.640112305E-1,1.225457003E1
7.199681875E0,9.884095917E0,7.689509583E-1,-4.593946838E-1,9.924599798E0
7.209614875E0,7.651488647E0,7.077282715E-1,-3.100053406E-1,7.690400584E0
7.219548875E0,5.712121582E0,7.628137207E-1,-2.715353394E-1,5.769224314E0
7.229481875E0,4.029919739E0,7.875123596E-1,-1.381626892E-1,4.108469027E0
7.239414875E0,2.603086853E0,6.873706055E-1,2.424957275E-1,2.703209887E0
7.249348875E0,1.455273743E0,6.360273743E-1,6.164181519E-1,1.703620798E0
7.259281875E0,6.346801758E-1,6.623725891E-1,7.746391296E-1,1.200675707E0
7.269214875E0,7.200027466E-2,7.237449646E-1,8.128097534E-1,1.090711011E0
7.279147875E0,-3.367996216E-1,8.411009216E-1,7.099736023E-1,1.151063535E0
7.289081875E0,-4.746629333E-1,8.583151245E-1,5.384303284E-1,1.118890956E0
7.299014875E0,-5.080435181E-1,6.599775696E-1,3.620970154E-1,9.081810707E-1
7.308947875E0,-5.682183838E-1,6.325845337E-1,1.935475159E-1,8.720641977E-1
7.318881875E0,-5.957611084E-1,5.777984619E-1,1.266366577E-1,8.395351118E-1
7.328814875E0,-6.698570251E-1,5.182223511E-1,3.457809448E-2,8.476193036E-1
7.338747875E0,-6.965016174E-1,4.535568237E-1,1.781295776E-2,8.313516686E-1
7.348681875E0,-7.825726318E-1,4.113446045E-1,9.430389404E-2,8.891105287E-1
7.358614875E0,-8.415499878E-1,3.213816833E-1,2.535726929E-1,9.358374212E-1
7.368547875E0,-8.689430237E-1,2.534230042E-1,3.966751099E-1,9.882491286E-1
7.378481875E0,-9.202862549E-1,1.930984497E-1,5.111869812E-1,1.070292452E0
7.388414875E0,-1.011296997E0,1.197509766E-1,5.349874878E-1,1.150336266E0
7.398347875E0,-1.047072601E0,7.394622803E-2,5.276527405E-1,1.174838922E0
7.408281875E0,-1.122066650E0,1.796264648E-3,5.038522339E-1,1.230001572E0
7.418214875E0,-1.145717468E0,-9.460327148E-2,4.463717651E-1,1.233233980E0
7.428147875E0,-1.105600891E0,-1.360670471E-1,4.089495850E-1,1.186636985E0
7.438080875E0,-1.168470154E0,-1.945953369E-1,3.833528137E-1,1.245049889E0
7.448014875E0,-1.099014587E0,-2.445913696E-1,3.550616455E-1,1.180562058E0
7.457947875E0,-7.875123596E-1,-2.324665833E-1,2.412982178E-1,8.558278208E-1
7.467880875E0,1.347198486E-2,-1.621128845E-1,1.776805115E-1,2.408992442E-1
7.477814875E0,3.950285339E-1,-1.673519897E-1,2.948867798E-1,5.205885554E-1
7.487747875E0,7.354206848E-1,-4.881349182E-1,4.758604431E-1,1.002777365E0
7.497680875E0,7.858657837E-2,-1.440903625E0,8.857081604E-1,1.693179865E0
7.507614875E0,4.674778748E-1,-7.384144592E-1,1.790426788E0,1.992340222E0
7.517547875E0,3.684378296E1,2.989433441E0,-4.938230896E-1,3.696816085E1
7.527480875E0,1.271677533E2,-6.260730743E0,-1.311078598E1,1.279950270E2
7.537413875E0,7.092491089E1,-1.107007965E1,-6.162385254E0,7.204765534E1
7.547347875E0,5.170353195E1,-3.332819366E0,-4.367467804E0,5.199459276E1
7.557280875E0,2.849070328E1,2.291734314E-1,-1.847607880E0,2.855146841E1
7.567213875E0,2.002206390E1,5.381309509E-1,-2.456840973E0,2.017941266E1
7.577147875E0,1.812745377E1,5.514532471E-1,-2.472258911E0,1.830357191E1
7.587080875E0,1.751103561E1,8.355624390E-1,-2.030677185E0,1.764817789E1
7.597013875E0,1.685240524E1,9.060658264E-1,-2.079475708E0,1.700437405E1
7.606947875E0,1.469569016E1,1.024918671E0,-1.411265259E0,1.479883229E1
7.616880875E0,1.166898422E1,1.138831787E0,-3.513194275E-1,1.172968695E1
7.626813875E0,8.639733582E0,1.032253418E0,2.561174011E-1,8.704949144E0
7.636747875E0,6.302643585E0,8.839118958E-1,9.550140381E-1,6.435578312E0
7.646680875E0,4.599335632E0,9.942324829E-1,1.954934692E0,5.095503522E0
7.656613875E0,2.902464294E0,9.198371887E-1,3.061733093E0,4.317940362E0
7.666546875E0,1.305135956E0,5.417234802E-1,3.306025085E0,3.595364524E0
7.676480875E0,2.092648315E-1,5.459147644E-1,2.380799103E0,2.451534023E0
7.686413875E0,-4.270619202E-1,7.520361328E-1,1.939217377E0,2.123323871E0
7.696346875E0,-9.354048157E-1,6.631210327E-1,1.720222778E0,2.067335986E0
7.706280875E0,-1.255738678E0,5.771997070E-1,1.403780823E0,1.969933940E0
7.716213875E0,-1.165476379E0,5.921685791E-1,8.705895996E-1,1.570644794E0
7.726146875E0,-1.191671906E0,5.303471375E-1,1.383123779E-1,1.311670816E0
7.736080875E0,-1.267713776E0,4.849914551E-1,-1.676513672E-1,1.367633690E0
7.746013875E0,-1.020877075E0,4.531077576E-1,2.517764282E-1,1.144940179E0
7.755946875E0,-8.391549683E-1,4.194277954E-1,6.018983459E-1,1.114622068E0
7.765880875E0,-8.158035278E-1,3.815565491E-1,6.108796692E-1,1.088253080E0
7.775813875E0,-8.719367981E-1,2.866539001E-1,5.803431702E-1,1.085929295E0
7.785746875E0,-9.068142700E-1,2.092648315E-1,5.516029358E-1,1.081836258E0
7.795679875E0,-1.081800385E0,7.933502197E-3,5.251080322E-1,1.202536261E0
7.805613875E0,-1.186582489E0,-1.442999268E-1,4.947212219E-1,1.293657435E0
7.815546875E0,-1.286873932E0,-2.365081787E-1,4.974156189E-1,1.399786746E0
7.825479875E0,-1.247056732E0,-2.436932373E-1,4.963677979E-1,1.364154639E0
7.835413875E0,-1.378633118E0,-2.543211365E-1,4.243675232E-1,1.464717143E0
7.845346875E0,-1.664388885E0,-3.201841736E-1,3.969744873E-1,1.740774831E0
7.855279875E0,-1.848805389E0,-4.523593140E-1,3.516188049E-1,1.935548010E0
7.865213875E0,-1.885628815E0,-4.900808716E-1,2.871029663E-1,1.969315465E0
7.875146875E0,-1.745370483E0,-4.369413757E-1,2.493814087E-1,1.816432486E0
7.885079875E0,-1.142574005E0,-3.698808289E-1,2.088157654E-1,1.218971373E0
7.895012875E0,2.945874023E-1,-2.227368164E-1,1.993853760E-1,4.196998394E-1
7.904946875E0,7.551795959E-1,-2.495310974E-1,2.725831604E-1,8.407517886E-1
7.914879875E0,1.307680664E0,-4.219725037E-1,4.077520752E-1,1.433300829E0
7.924812875E0,2.787353668E0,-7.917036438E-1,4.709207153E-1,2.935626245E0
7.934746875E0,2.774031372E0,-9.217831421E-1,1.334325256E0,3.213309525E0
7.944679875E0,6.335275726E0,4.476590881E0,2.615810394E0,8.186455183E0
7.954612875E0,6.076508835E1,6.627468109E0,2.500999146E0,6.117658287E1
7.964546875E0,1.159692407E2,-8.330177307E0,3.650758209E0,1.163253398E2
7.974479875E0,6.319932632E1,-6.473288727E0,1.923500061E-1,6.353027084E1
7.984412875E0,4.218901749E1,1.653461609E0,9.797126770E-1,4.223277126E1
7.994346875E0,2.592129639E1,2.089953918E0,1.444196777E0,2.604548364E1
8.004279875E0,1.979812958E1,1.646575928E0,1.233884125E0,1.990476368E1
8.014212875E0,1.867232071E1,1.672172699E0,2.395917664E0,1.889952760E1
8.024145875E0,1.744367569E1,1.778751068E0,1.728455658E0,1.761911848E1
8.034079875E0,1.594439346E1,1.858984222E0,7.132667542E-1,1.606823745E1
8.044012875E0,1.361583572E1,2.011067963E0,3.508703613E-1,1.376802407E1
8.053945875E0,1.094284424E1,1.994302826E0,2.335144043E-1,1.112553876E1
8.063879875E0,8.418643341E0,1.691033478E0,3.607498169E-1,8.594375507E0
8.073812875E0,6.283333740E0,1.376986542E0,8.518785095E-1,6.488610932E0
8.083745875E0,4.575684814E0,1.187630310E0,1.173709259E0,4.870826490E0
8.093679875E0,3.068618774E0,1.121018829E0,1.107696533E0,3.449651578E0
8.103612875E0,1.684447174E0,1.015188904E0,9.678872681E-1,2.191980054E0
8.113545875E0,6.325845337E-1,9.639953613E-1,6.373745728E-1,1.317458385E0
8.123478875E0,-2.222877502E-1,8.467890930E-1,2.380050659E-1,9.072541118E-1
8.133412875E0,-8.180488586E-1,7.593708801E-1,-4.490661621E-3,1.116184678E0
8.143345875E0,-1.140777740E0,6.846762085E-1,-7.978408813E-2,1.332861907E0
8.153278875E0,-1.203347626E0,7.149133301E-1,-2.350112915E-1,1.419287457E0
8.163212875E0,-1.142574005E0,7.369175720E-1,-2.510279846E-1,1.382583782E0
8.173146750E0,-1.087488556E0,6.104306030E-1,-9.235794067E-2,1.250514642E0
8.183079750E0,-9.952803040E-1,5.183720398E-1,7.679031372E-2,1.124806298E0
8.193013750E0,-9.744735718E-1,4.314028931E-1,1.842668152E-1,1.081508880E0
8.202946750E0,-9.807604980E-1,3.861968994E-1,2.580633545E-1,1.085189336E0
8.212879750E0,-9.093589783E-1,3.035687256E-1,2.333647156E-1,9.866847587E-1
8.222813750E0,-9.297166443E-1,2.180964661E-1,1.410067749E-1,9.653092861E-1
8.232746750E0,-9.324110413E-1,1.561253357E-1,9.505233765E-2,9.501581012E-1
8.242679750E0,-9.750723267E-1,1.148112488E-1,7.065307617E-2,9.843472569E-1
8.252612750E0,-9.846524048E-1,7.274871826E-2,7.214996338E-2,9.899688639E-1
8.262546750E0,-1.064286804E0,4.670288086E-2,5.927673340E-2,1.066958899E0
8.272479750E0,-1.118324432E0,-5.688171387E-3,3.338058472E-2,1.118836965E0
8.282412750E0,-1.170715485E0,-8.382568359E-3,4.011657715E-2,1.171432607E0
8.292346750E0,-1.291214905E0,-1.916015625E-2,5.358856201E-2,1.292468482E0
8.302279750E0,-1.405577087E0,-1.157093811E-1,9.565109253E-2,1.413571626E0
8.312212750E0,-1.188079376E0,-1.872605896E-1,5.583389282E-2,1.204041758E0
8.322146750E0,-3.502716064E-2,-1.466949463E-1,-1.119671631E-1,1.878375757E-1
8.332079750E0,7.761360168E-1,-2.436932373E-1,-2.604583740E-1,8.541733285E-1
8.342012750E0,1.415007477E0,-4.646337891E-1,-4.948709106E-1,1.569403688E0
8.351945750E0,1.962269440E0,-7.735913086E-1,-5.174739075E-1,2.171802042E0
8.361879750E0,2.167043610E0,-5.981561279E-1,-2.368075562E-1,2.260519095E0
8.371812750E0,2.028551605E1,4.950505371E0,-1.158141632E0,2.091293755E1
8.381745750E0,1.057604700E2,-1.329684906E0,-1.373753265E1,1.066572308E2
8.391679750E0,8.695657288E1,-8.611592102E0,-1.331496140E1,8.839057236E1
8.401612750E0,5.603851730E1,-4.733157349E-1,-5.764213257E0,5.633618379E1
8.411545750E0,3.606210846E1,2.414479065E0,-2.247576141E0,3.621266317E1
8.421479750E0,2.191263245E1,1.527723083E0,-1.761985931E0,2.203637885E1
8.431412750E0,1.815499649E1,1.455423431E0,-1.450633392E0,1.827091930E1
8.441345750E0,1.661574738E1,1.826501770E0,-1.087488556E0,1.675117312E1
8.451279750E0,1.613839005E1,1.814676361E0,-1.754202118E0,1.633456178E1
8.461212750E0,1.433239563E1,2.132914581E0,-1.601819000E0,1.457850175E1
8.471145750E0,1.167916306E1,2.370769958E0,-5.683680725E-1,1.193090282E1
8.481078750E0,8.940458221E0,2.570454712E0,5.498066711E-1,9.318868923E0
8.491012750E0,6.176455994E0,2.524649963E0,1.330732727E0,6.803919140E0
8.500945750E0,4.348756714E0,2.423460388E0,1.934277649E0,5.340999460E0
8.510878750E0,2.945874023E0,2.350711670E0,1.843715973E0,4.195629596E0
8.520812750E0,1.259331207E0,1.714235229E0,1.660047913E0,2.698198767E0
8.530745750E0,-3.323089600E-2,1.076411591E0,2.225721588E0,2.472570078E0
8.540678750E0,-1.043480072E0,4.656816101E-1,2.594255219E0,2.834761041E0
8.550612750E0,-1.856289825E0,-9.250762939E-2,2.801873474E0,3.362270742E0
8.560545750E0,-2.223027191E0,-3.376977539E-1,2.353855133E0,3.255230200E0
8.570478750E0,-2.289638672E0,-2.110610962E-1,1.344803467E0,2.663735797E0
8.580411750E0,-2.173929291E0,-1.541793823E-2,6.122268677E-1,2.258545552E0
8.590345750E0,-1.994751892E0,8.472381592E-2,4.213737488E-1,2.040531566E0
8.600278750E0,-1.796564026E0,3.757186890E-2,5.050497437E-1,1.866582221E0
8.610211750E0,-1.615740051E0,-1.646575928E-2,6.385720825E-1,1.737429521E0
8.620145750E0,-1.521286469E0,-1.131646729E-1,7.634124756E-1,1.705847992E0
8.630078750E0,-1.406624908E0,-1.414558411E-1,9.033714294E-1,1.677701799E0
8.640011750E0,-1.257385254E0,-1.317260742E-1,9.511221313E-1,1.582088096E0
8.649945750E0,-1.109492798E0,-8.502319336E-2,9.404942322E-1,1.456960059E0
8.659878750E0,-9.934840393E-1,2.903961182E-2,8.771759033E-1,1.325628681E0
8.669811750E0,-8.713380432E-1,1.604663086E-1,8.035290527E-1,1.196092956E0
8.679744750E0,-7.453001404E-1,2.365081787E-1,7.487429810E-1,1.082600789E0
8.689678750E0,-6.878196716E-1,2.854563904E-1,8.542735291E-1,1.133298069E0
8.699611750E0,-6.370751953E-1,3.095562744E-1,9.505233765E-1,1.185404817E0
8.709544750E0,-2.119592285E-1,2.701881409E-1,9.592053223E-1,1.018824419E0
8.719478750E0,2.974314880E-1,1.658551025E-1,9.717791748E-1,1.029722375E0
8.729411750E0,5.183720398E-1,4.116439819E-2,9.416917419E-1,1.075726460E0
8.739344750E0,6.770420837E-1,-5.688171387E-2,8.183482361E-1,1.063633089E0
8.749278750E0,9.110055542E-1,-1.914518738E-1,7.867639160E-1,1.218844699E0
8.759211750E0,1.185834045E0,-2.841091919E-1,8.894503784E-1,1.509318519E0
8.769144750E0,2.722688141E0,-3.752696228E-1,1.366658020E0,3.069464472E0
8.779078750E0,1.491827728E1,-1.089733887E-1,2.115401001E0,1.506790608E1
8.789011750E0,5.448040741E1,5.760021973E-1,2.715353394E0,5.455107436E1
8.798944750E0,6.209477325E1,1.941462708E-1,5.607339478E0,6.234774105E1
8.808877750E0,6.100219528E1,-1.688488770E-1,2.158361664E0,6.104060013E1
8.818811750E0,4.820171402E1,1.588496704E0,-7.653584290E-1,4.823395412E1
8.828744750E0,3.238290939E1,1.941163330E0,-3.625460815E-1,3.244306360E1
8.838677750E0,2.528511932E1,1.548080750E0,3.577560425E-2,2.533249086E1
8.848611750E0,2.486793686E1,1.699266357E0,4.234693909E-1,2.492952298E1
8.858544750E0,2.502136780E1,1.609453125E0,-1.267863464E-1,2.507339747E1
8.868477750E0,2.223895386E1,1.743574219E0,-5.647755432E-1,2.231434720E1
8.878411750E0,1.843686035E1,1.849104767E0,-3.903881836E-1,1.853346732E1
8.888344750E0,1.471365280E1,1.883533173E0,-1.133143616E-1,1.483415370E1
8.898277750E0,1.117561020E1,1.895358582E0,2.445913696E-1,1.133783367E1
8.908210750E0,8.277187500E0,1.783541107E0,5.396278381E-1,8.484341459E0
8.918144750E0,6.218518524E0,1.595981140E0,3.926335144E-1,6.432051734E0
8.928077750E0,4.553530884E0,1.197060699E0,3.652404785E-2,4.708389516E0
8.938010750E0,3.036435699E0,7.726931763E-1,-3.772155762E-1,3.155833977E0
8.947944750E0,1.822011108E0,4.652325439E-1,-3.379971313E-1,1.910604056E0
8.957877750E0,8.675958252E-1,2.221380615E-1,-2.225871277E-1,9.228287293E-1
8.967810750E0,1.023870850E-1,1.437011719E-1,-3.198847961E-1,3.653209887E-1
8.977744750E0,-4.634362793E-1,2.231858826E-1,-6.474037170E-1,8.268716321E-1
8.987677750E0,-9.262738037E-1,2.079176331E-1,-7.234455872E-1,1.193560396E0
8.997610750E0,-1.228345642E0,9.954299927E-2,-5.742059326E-1,1.359578713E0
9.007543750E0,-1.326691132E0,1.218466187E-1,-5.774990845E-1,1.452054114E0
9.017477750E0,-1.356479187E0,1.815724182E-1,-5.278024292E-1,1.466826415E0
9.027410750E0,-1.376836853E0,1.983375549E-1,-4.263134766E-1,1.454909168E0
9.037343750E0,-1.356179810E0,2.160008240E-1,-3.192860413E-1,1.409901985E0
9.047277750E0,-1.292562103E0,2.667453003E-1,-2.230361938E-1,1.338512230E0
9.057210750E0,-1.196012878E0,3.206332397E-1,-2.165995789E-1,1.257047277E0
9.067143750E0,-1.111139374E0,3.459306335E-1,-2.125579834E-1,1.182996030E0
9.077077750E0,-1.018631744E0,3.424877930E-1,-1.913021851E-1,1.091560830E0
9.087010750E0,-9.255253601E-1,2.902464294E-1,-1.595681763E-1,9.830067064E-1
9.096943750E0,-8.173004150E-1,1.525328064E-1,-1.299298096E-1,8.415034051E-1
9.106877750E0,-3.311114502E-1,-4.909790039E-2,-1.468446350E-1,3.655252975E-1
9.116810750E0,2.625540161E-1,-1.302291870E-1,-1.369651794E-1,3.235022611E-1
9.126743750E0,4.460723877E-1,-1.654060364E-1,-9.235794067E-2,4.846335947E-1
9.136676750E0,5.369334412E-1,-1.748364258E-1,-1.199006653E-1,5.772707039E-1
9.146610750E0,6.444099426E-1,-2.010319519E-1,-1.627116394E-1,6.943724486E-1
9.156543750E0,7.490423584E-1,-2.230361938E-1,-2.148033142E-1,8.105245599E-1
9.166476750E0,8.464897156E-1,-2.345622253E-1,-2.553689575E-1,9.147554759E-1
9.176410750E0,1.023721161E0,-2.432441711E-1,-2.330653381E-1,1.077725472E0
9.186343750E0,1.597478027E0,-2.818638611E-1,-2.829116821E-1,1.646639701E0
9.196276750E0,3.719914398E0,-6.804849243E-1,-2.671943665E-1,3.791070521E0
9.206210750E0,1.116483261E1,-1.533860321E0,-8.810678101E-1,1.130409197E1
9.216143750E0,2.535846680E1,-3.159779205E0,-2.093396759E0,2.564017069E1
9.226076750E0,4.567227402E1,-6.314918060E0,-2.603835297E0,4.618024212E1
9.236009750E0,5.763749222E1,-8.250243530E0,-4.012256470E0,5.836304678E1
9.245943750E0,5.766323868E1,-5.129383392E0,-6.638245697E0,5.827028381E1
9.255876750E0,4.342993698E1,-1.149309998E0,-6.281836853E0,4.389694538E1
9.265809750E0,3.083318207E1,3.086581421E-1,-3.010838928E0,3.098137404E1
9.275743750E0,2.408566360E1,4.170327759E-1,-1.880689087E0,2.416257642E1
9.285676750E0,2.205244171E1,5.692662048E-1,-1.177301788E0,2.209118125E1
9.295609750E0,2.089250381E1,7.783813477E-1,-8.140072632E-1,2.092283922E1
9.305543750E0,1.855586288E1,1.634900208E0,-7.237449646E-1,1.864180122E1
9.315476750E0,1.514730103E1,2.811004486E0,-7.376660156E-1,1.542357370E1
9.325409750E0,1.169832321E1,3.684737549E0,-5.801934814E-1,1.227862701E1
9.335342750E0,9.178163910E0,3.966751099E0,-4.008663940E-1,1.000672279E1
9.345276750E0,7.037764893E0,3.960164795E0,7.289840698E-2,8.075788139E0
9.355209750E0,5.250331879E0,4.396657104E0,6.981481934E-1,6.883602940E0
9.365142750E0,3.614982605E0,4.731660461E0,1.003513184E0,6.038522060E0
9.375076750E0,2.258204041E0,4.323459320E0,9.131011963E-1,4.962412697E0
9.385009750E0,1.056353302E0,3.421734467E0,8.168513489E-1,3.673063460E0
9.394942750E0,-8.128097534E-2,2.332449646E0,1.061143341E0,2.563777123E0
9.404876750E0,-7.680528259E-1,1.521735535E0,1.405427399E0,2.209255611E0
9.414809750E0,-9.967771912E-1,1.129700775E0,1.571432190E0,2.176967556E0
9.424742750E0,-1.030606842E0,9.168434143E-1,1.785037994E0,2.255906237E0
9.434675750E0,-1.071621552E0,6.274951172E-1,2.503543854E0,2.794611726E0
9.444609750E0,-1.008752289E0,2.378553772E-1,4.825215912E0,4.935267466E0
9.454542750E0,-1.338666229E0,-2.640509033E-1,7.802524567E0,7.920930486E0
9.464475750E0,-1.922152863E0,-4.378395081E-1,7.488777008E0,7.743910907E0
9.474409750E0,-1.879641266E0,-4.043092346E-1,3.619473267E0,4.098427012E0
9.484342750E0,-1.954785004E0,-2.878514099E-1,1.637444916E0,2.566177838E0
9.494275750E0,-1.761237488E0,-3.622467041E-2,1.375339966E0,2.234911572E0
9.504209750E0,-1.480571136E0,1.469943237E-1,9.705816650E-1,1.776436599E0
9.514142750E0,-1.161434784E0,2.180964661E-1,7.327262878E-1,1.390462023E0
9.524075750E0,-8.753796387E-1,2.113604736E-1,1.000220032E0,1.345883678E0
9.534008750E0,-7.164102173E-1,1.713935852E-1,1.303339691E0,1.497101770E0
9.543942750E0,-6.414161682E-1,9.849517822E-2,1.462458801E0,1.599969295E0
9.553875750E0,-6.333329773E-1,2.245330811E-2,1.522783356E0,1.649388966E0
9.563808750E0,-6.077362061E-1,-7.679031372E-2,1.457968140E0,1.581426933E0
9.573742750E0,-3.929328918E-1,-1.622625732E-1,1.153351593E0,1.229205149E0
9.583675750E0,4.351451111E-1,-1.041833496E-1,9.503736877E-1,1.050435902E0
9.593608750E0,8.572673035E-1,-1.416055298E-1,1.141975250E0,1.434944887E0
9.603542750E0,1.219064941E0,-2.152523804E-1,1.601819000E0,2.024420171E0
9.613475750E0,3.042572937E0,-3.008743286E-1,3.222199402E0,4.441885233E0
9.623408750E0,9.548344116E0,9.235794067E-2,4.311334534E0,1.047697527E1
9.633342750E0,3.906142136E1,2.117796021E0,4.251009979E0,3.934908873E1
9.643275750E0,6.712221863E1,-2.173629913E0,7.817643127E0,6.761088999E1
9.653208750E0,6.078305099E1,-3.846551056E0,5.425767059E0,6.114584362E1
9.663141750E0,5.368930252E1,-2.222877502E-1,-9.451345825E-1,5.369808094E1
9.673075750E0,3.577156265E1,1.025816803E0,2.812651062E-1,3.578737354E1
9.683008750E0,2.594389938E1,4.881349182E-1,1.969604187E0,2.602313455E1
9.692941750E0,2.389241547E1,4.879852295E-1,2.905458069E0,2.407337394E1
9.702875750E0,2.358899643E1,5.319937134E-1,2.342628479E0,2.371100331E1
9.712808750E0,2.296509384E1,6.496490479E-1,1.182540894E0,2.300469478E1
9.722741750E0,2.031485504E1,1.031504974E0,7.909552002E-1,2.035639821E1
9.732675750E0,1.730221985E1,9.951306152E-1,8.634045410E-1,1.735230717E1
9.742608750E0,1.445768509E1,8.547225952E-1,1.156195679E0,1.452900538E1
9.752541750E0,1.130164810E1,8.325686646E-1,1.399140472E0,1.141831925E1
9.762474750E0,8.330925751E0,1.151255951E0,1.703008575E0,8.580789727E0
9.772408750E0,5.830974426E0,1.365011444E0,1.467099152E0,6.165703441E0
9.782341750E0,3.842359772E0,1.143172760E0,1.206042023E0,4.186300268E0
9.792274750E0,2.303110657E0,7.033872986E-1,6.295907593E-1,2.489067479E0
9.802208750E0,1.044827271E0,3.417393494E-1,1.519340515E-1,1.109744909E0
9.812141750E0,3.263214111E-2,2.125579834E-2,-9.011260986E-2,9.816795838E-2
9.822074750E0,-5.530998230E-1,-1.193019104E-1,-2.983296204E-1,6.396506253E-1
9.832008750E0,-9.578581238E-1,-2.177970886E-1,-6.015989685E-1,1.151889351E0
9.841941750E0,-1.357676697E0,-3.800596619E-1,-8.322692871E-1,1.637193796E0
9.851874750E0,-1.870510254E0,-8.198451233E-1,-7.589218140E-1,2.178742058E0
9.861807750E0,-2.380499725E0,-1.228645020E0,-2.359094238E-1,2.689237956E0
9.871741750E0,-2.952610016E0,-1.543889465E0,2.550695801E-1,3.341640477E0
9.881674750E0,-2.780018921E0,-1.400188293E0,3.207829285E-1,3.129206632E0
9.891607750E0,-1.944755859E0,-1.088386688E0,7.334747314E-2,2.229807343E0
9.901541750E0,-1.558409271E0,-1.140628052E0,-1.847158813E-1,1.940049424E0
9.911474750E0,-1.368603973E0,-1.030307465E0,-3.676354980E-1,1.752074818E0
9.921407750E0,-1.093027039E0,-7.758366394E-1,-4.692741394E-1,1.420158025E0
9.931341750E0,-9.654922485E-1,-6.330335999E-1,-3.665876770E-1,1.211318845E0
9.941274750E0,-8.155041504E-1,-6.494993591E-1,-1.799258423E-1,1.057955455E0
9.951207750E0,-8.152047729E-1,-8.026309204E-1,2.948867798E-2,1.144397133E0
9.961140750E0,-6.236032104E-1,-8.325686646E-1,6.227050781E-2,1.042079249E0
9.971074750E0,-6.587800598E-1,-9.642947388E-1,8.068222046E-2,1.170625957E0
9.981007750E0,-7.327262878E-1,-1.204395447E0,1.221459961E-1,1.415053303E0
9.990940750E0,-7.189549255E-1,-1.766476593E0,2.559677124E-2,1.907351812E0
1.000087475E1,-4.213737488E-1,-2.397863617E0,-1.678010559E-1,2.440381723E0
1.001080775E1,3.589535522E-1,-2.661465454E0,-2.942880249E-1,2.701638662E0
1.002074075E1,1.587897949E0,-2.438429260E0,-3.201841736E-1,2.927434894E0
1.003067475E1,2.524949341E0,-2.021396484E0,-1.832189941E-1,3.239595981E0
1.004060775E1,3.159180450E0,-1.883832550E0,1.023870850E-1,3.679637117E0
1.005054075E1,5.547763367E0,-2.407593384E0,2.023791504E-1,6.051044670E0
1.006047375E1,1.493788651E1,-4.964426422E0,-6.358776855E-1,1.575405736E1
1.007040775E1,4.457026566E1,-7.162754974E0,-3.474125519E0,4.527563569E1
1.008034075E1,7.381061005E1,-7.301366730E0,-5.153782654E0,7.434969796E1
1.009027375E1,6.404476822E1,-5.764812012E0,-7.605234833E0,6.475187249E1
1.010020775E1,5.246395065E1,-7.984396362E-1,-8.094567261E0,5.309073029E1
1.011014075E1,3.355437332E1,5.628295898E-1,-2.525997162E0,3.365402514E1
1.012007375E1,2.339065887E1,4.885839844E-1,-1.435215454E0,2.343974147E1
1.013000675E1,1.982941452E1,2.386038208E-1,2.258802795E-1,1.983213639E1
1.013994075E1,1.813508789E1,3.652404785E-1,8.665480042E-1,1.815945260E1
1.014987375E1,1.641187134E1,6.979985046E-1,6.483018494E-1,1.643949567E1
1.015980675E1,1.429138092E1,1.081650696E0,4.846920776E-1,1.434044850E1
1.016974075E1,1.178304703E1,1.174906769E0,2.209405518E-1,1.184353908E1
1.017967363E1,9.267228699E0,1.009051666E0,1.077758789E-1,9.322624559E0
1.018960663E1,7.331603851E0,9.490264893E-1,7.282356262E-1,7.428552580E0
1.019954062E1,6.249803467E0,8.084687805E-1,1.454375610E0,6.467524531E0
1.020947363E1,5.509443054E0,9.677375793E-1,3.169808350E0,6.429476166E0
1.021940663E1,4.365671539E0,1.802551575E0,8.273445282E0,9.526708613E0
1.022934063E1,5.704637146E-1,4.110751648E0,1.941208237E1,1.985075943E1
1.023927363E1,-1.326990509E0,5.601800995E0,2.100207596E1,2.177678288E1
1.024920663E1,-2.228865051E-1,2.716850281E0,5.648354187E0,6.271750861E0
1.025913962E1,1.047821045E-1,1.449435883E0,-4.299060059E-1,1.515474461E0
1.026907363E1,-1.666035461E-1,1.363364868E0,-1.420995026E0,1.976296377E0
1.027900663E1,-5.517526245E-1,1.049617310E0,-9.568103027E-1,1.523684157E0
1.028893963E1,-8.309220886E-1,6.644682312E-1,-1.219963074E-1,1.070902725E0
1.029887363E1,-9.936337280E-1,3.790118408E-1,5.409750366E-1,1.193152107E0
1.030880662E1,-1.210083618E0,1.926493835E-1,9.129515076E-1,1.528036846E0
1.031873962E1,-1.307081909E0,1.865121460E-1,1.005908203E0,1.659849756E0
1.032867363E1,-1.212927704E0,3.245251465E-1,7.405101013E-1,1.457691804E0
1.033860663E1,-7.518864441E-1,4.011657715E-1,1.800755310E-1,8.710306527E-1
1.034853963E1,-1.481918335E-2,4.197271729E-1,-2.664459229E-1,4.973770578E-1
1.035847263E1,4.819976807E-1,4.614903259E-1,-3.668870544E-1,7.615124397E-1
1.036840662E1,7.695497131E-1,5.059478760E-1,-1.248403931E-1,9.293950387E-1
1.037833963E1,8.562194824E-1,5.297483826E-1,2.414479065E-1,1.035394728E0
1.038827263E1,9.153465271E-1,5.050497437E-1,4.064048767E-1,1.121650316E0
1.039820663E1,9.937834167E-1,4.361929321E-1,4.813989258E-1,1.187271948E0
1.040813963E1,1.155746613E0,3.547622681E-1,5.252577209E-1,1.318143457E0
1.041807263E1,1.516496429E0,3.733236694E-1,4.808001709E-1,1.634105501E0
1.042800662E1,2.095791779E0,1.475930786E-1,4.158352661E-1,2.141738981E0
1.043793963E1,3.461701355E0,-1.486408997E-1,3.842509460E-1,3.486132410E0
1.044787263E1,6.013744354E0,-4.053570557E-1,3.165916443E-1,6.035699278E0
1.045780563E1,9.834548950E0,-8.337661743E-1,1.972897339E-1,9.871800359E0
1.046773963E1,1.541853699E1,-1.727407837E0,-1.984872437E-1,1.551626946E1
1.047767262E1,2.400064041E1,-3.221750336E0,-2.157014465E-1,2.421687309E1
1.048760562E1,3.719150986E1,-5.743256836E0,1.612147522E-1,3.763269051E1
1.049753963E1,4.925716919E1,-9.429191895E0,-6.227050781E-1,5.015541983E1
1.050747263E1,5.370921112E1,-1.089479416E1,-2.257006531E0,5.484952121E1
1.051740563E1,4.414784409E1,-8.860524445E0,-3.846101990E0,4.519218441E1
1.052733963E1,3.133808212E1,-7.097490692E0,-2.715802460E0,3.224632302E1
1.053727262E1,2.286570053E1,-5.572761383E0,-4.975653076E-1,2.354025279E1
1.054720563E1,2.043161224E1,-4.814138947E0,1.880090332E-1,2.099195227E1
1.055713863E1,1.893397659E1,-3.746558990E0,9.153465271E-1,1.932278534E1
1.056707263E1,1.625739258E1,-2.277064819E0,1.368454285E0,1.647302355E1
1.057700563E1,1.367271744E1,-1.034349060E0,9.756710815E-1,1.374645460E1
1.058693863E1,1.144400208E1,-4.510121155E-1,6.791377258E-1,1.147300412E1
1.059687262E1,9.901908875E0,-2.025288391E-1,3.562591553E-1,9.910385355E0
1.060680563E1,8.418044586E0,-1.471440125E-1,3.341052246E-1,8.425957056E0
1.061673863E1,6.871161346E0,-1.342707825E-1,1.770817566E-1,6.874754166E0
1.062667163E1,5.245092773E0,-2.333647156E-1,2.544708252E-2,5.250343307E0
1.063660563E1,3.931424561E0,-1.875599670E-1,3.397933960E-2,3.936042735E0
1.064653862E1,2.829116821E0,-1.091230774E-1,-4.176315308E-2,2.831528562E0
1.065647162E1,1.958676910E0,-1.408570862E-1,-1.209484863E-1,1.967456351E0
1.066640563E1,1.400787048E0,-7.304809570E-2,-7.259902954E-2,1.404567904E0
1.067633863E1,1.006656647E0,-6.197113037E-2,1.302291870E-2,1.008646431E0
1.068627163E1,7.123686218E-1,-5.254074097E-2,1.437011719E-1,7.286148568E-1
1.069620563E1,5.168751526E-1,-5.029541016E-2,1.978884888E-1,5.557422115E-1
1.070613862E1,3.076103210E-1,-7.289840698E-2,2.122586060E-1,3.807781548E-1
1.071607163E1,8.158035278E-2,-9.011260986E-2,3.243754578E-1,3.464030514E-1
1.072600563E1,-6.092330933E-2,-1.511856079E-1,4.079017639E-1,4.392636869E-1
1.073593863E1,-1.327738953E-1,-1.962419128E-1,4.623884583E-1,5.195602775E-1
1.074587163E1,-2.484832764E-2,-2.047741699E-1,5.102888489E-1,5.504040419E-1
1.075580463E1,4.864883423E-2,-2.218386841E-1,4.602928162E-1,5.132724300E-1
1.076573862E1,8.876541138E-2,-2.368075562E-1,4.861889648E-1,5.480299503E-1
1.077567163E1,1.170565796E-1,-2.005828857E-1,4.308041382E-1,4.894159196E-1
1.078560463E1,1.085243225E-1,-1.746867371E-1,4.764591980E-1,5.189473500E-1
1.079553863E1,3.472778320E-2,-1.910028076E-1,5.572911072E-1,5.901368228E-1
1.080547163E1,6.496490479E-2,-2.091151428E-1,5.935157776E-1,6.326219725E-1
1.081540462E1,3.192860413E-1,-1.963916016E-1,5.771997070E-1,6.882388678E-1
1.082533862E1,7.036866760E-1,-2.423460388E-1,5.739065552E-1,9.398272579E-1
1.083527163E1,1.298549652E0,-3.899391174E-1,6.527925110E-1,1.504799580E0
1.084520463E1,2.113455048E0,-6.631210327E-1,7.598199463E-1,2.341740398E0
1.085513763E1,3.078348541E0,-9.762698364E-1,8.011340332E-1,3.327333508E0
1.086507163E1,4.494553528E0,-1.472637634E0,7.872129822E-1,4.794723902E0
1.087500462E1,6.479875031E0,-2.192490692E0,7.062313843E-1,6.877103941E0
1.088493763E1,8.778644714E0,-2.961741028E0,7.092251587E-1,9.291905793E0
1.089487163E1,1.091155930E1,-3.799249420E0,6.587800598E-1,1.157283084E1
1.090480463E1,1.320494019E1,-4.845124512E0,4.634362793E-1,1.407339511E1
1.091473763E1,1.725297226E1,-6.335126038E0,1.686991882E-1,1.838007979E1
1.092467063E1,2.248848495E1,-8.416398010E0,-4.595443726E-2,2.401186837E1
1.093460462E1,2.761083298E1,-1.051069290E1,-3.632945251E-1,2.954597681E1
1.094453763E1,3.454770767E1,-1.255319550E1,-4.203259277E-1,3.676008020E1
1.095447063E1,3.885919189E1,-1.421578812E1,-1.407822418E0,4.140178004E1
1.096440463E1,3.741888702E1,-1.393407394E1,-1.196461945E0,3.994700294E1
1.097433763E1,3.024445633E1,-1.077219910E1,-2.737806702E-1,3.210673400E1
1.098427062E1,2.426558945E1,-7.493117981E0,-2.576142883E-1,2.539748045E1
1.099420462E1,2.025902115E1,-4.733007660E0,-2.350112915E-1,2.080587729E1
1.100413763E1,1.586910004E1,-2.715353394E0,-7.336244202E-1,1.611644144E1
1.101407063E1,1.193004135E1,-1.464105377E0,-1.109792175E0,1.207067230E1
1.102400363E1,8.997489624E0,-7.319778442E-1,-6.174659729E-1,9.048307871E0
1.103393763E1,7.585924988E0,-3.152444458E-1,5.447172546E-1,7.611987511E0
1.104387062E1,6.914421387E0,8.846603394E-2,1.121318207E0,7.005312546E0
1.105380362E1,5.845943298E0,3.317102051E-1,1.091530151E0,5.956217153E0
1.106373763E1,4.947661285E0,4.596940613E-1,1.124611359E0,5.094646360E0
1.107367063E1,4.277804260E0,6.141728210E-1,1.095272369E0,4.458300024E0
1.108360363E1,3.462449799E0,6.042933655E-1,1.064735870E0,3.672518421E0
1.109353762E1,2.984942780E0,7.081773376E-1,2.246079254E0,3.802140260E0
1.110347062E1,2.387834473E0,8.755293274E-1,3.598965912E0,4.406910563E0
1.111340363E1,8.488847351E-1,6.727011108E-1,2.284998322E0,2.528705085E0
1.112333663E1,3.882925415E-1,7.719447327E-1,3.269501038E0,3.381760903E0
1.113327063E1,2.260299683E-2,8.399034119E-1,3.958368530E0,4.046557804E0
1.114320363E1,-2.782713318E-1,8.734336853E-1,3.651506653E0,3.764813697E0
1.115313662E1,-5.194198608E-1,7.773335266E-1,2.911894684E0,3.058296103E0
1.116307062E1,-6.409671021E-1,6.005511475E-1,2.269430695E0,2.433478207E0
1.117300363E1,-5.810916138E-1,5.451663208E-1,1.844015350E0,2.008797250E0
1.118293638E1,-6.173162842E-1,4.869374084E-1,1.631906433E0,1.811437562E0
1.119287038E1,-6.709048462E-1,4.032614136E-1,1.663939819E0,1.838866173E0
1.120280338E1,-6.774911499E-1,3.203338623E-1,1.601369934E0,1.768047993E0
1.121273638E1,-6.882687378E-1,3.094065857E-1,1.635798340E0,1.801466763E0
1.122266937E1,-6.712042236E-1,2.933898926E-1,1.863175507E0,2.002002924E0
1.123260337E1,-6.005511475E-1,2.984793091E-1,1.522933044E0,1.664054277E0
1.124253638E1,-4.230203247E-1,3.246748352E-1,1.001118164E0,1.134282823E0
1.125246938E1,-2.019300842E-1,3.254232788E-1,7.358697510E-1,8.295663685E-1
1.126240338E1,2.430944824E-1,3.406915283E-1,4.893324280E-1,6.439036185E-1
1.127233638E1,8.482859802E-1,4.195774841E-1,7.616162109E-1,1.214781306E0
1.128226937E1,1.214723969E0,6.346801758E-1,1.258582764E0,1.860753562E0
1.129220338E1,2.029629364E0,1.051712952E0,1.564247131E0,2.769903351E0
1.130213638E1,1.115824631E1,1.848655701E0,2.044298859E0,1.149361329E1
1.131206938E1,3.917713074E1,2.200424194E0,1.176104279E0,3.925649832E1
1.132200238E1,5.553840729E1,-4.935386810E0,-3.917353821E-1,5.575864223E1
1.133193638E1,5.004378342E1,-8.478219452E0,1.998194733E0,5.079619322E1
1.134186937E1,4.368949722E1,-4.921465759E0,1.421294403E0,4.398878346E1
1.135180238E1,3.644022217E1,-2.849773865E0,2.694396973E-3,3.655148437E1
1.136173638E1,2.956786331E1,-1.644330597E0,9.749226379E-1,2.962959396E1
1.137166938E1,2.614103943E1,-1.377285919E0,1.773811340E0,2.623732581E1
1.138160238E1,2.430301163E1,-1.418899384E0,2.122436371E0,2.443674254E1
1.139153537E1,2.234403534E1,-1.070424042E0,1.890119476E0,2.244937136E1
1.140146937E1,1.965188370E1,-6.096821594E-1,1.581311646E0,1.972482679E1
1.141140238E1,1.683070038E1,-2.598596191E-1,1.230441284E0,1.687761796E1
1.142133538E1,1.442086166E1,-3.044668579E-1,7.225474548E-1,1.444216140E1
1.143126938E1,1.177930481E1,-3.829037476E-1,9.535171509E-2,1.178591231E1
1.144120238E1,9.309889984E0,-5.303471375E-1,-1.866618347E-1,9.326851679E0
1.145113537E1,7.281907196E0,-7.176077271E-1,-3.478765869E-1,7.325445473E0
1.146106938E1,5.675447845E0,-8.750802612E-1,-5.252577209E-1,5.766486745E0
1.147100238E1,4.400399323E0,-9.011260986E-1,-6.722520447E-1,4.541746939E0
1.148093538E1,3.127446442E0,-9.487271118E-1,-8.500822449E-1,3.376928220E0
1.149086838E1,1.870210876E0,-9.487271118E-1,-1.014590149E0,2.329627658E0
1.150080238E1,8.155041504E-1,-8.982820129E-1,-9.259744263E-1,1.526232693E0
1.151073537E1,-5.972579956E-2,-8.632548523E-1,-5.339396667E-1,1.016792840E0
1.152066838E1,-8.839118958E-1,-1.051114197E0,-1.860630798E-1,1.385915136E0
1.153060238E1,-1.446292419E0,-1.233884125E0,5.194198608E-2,1.901822748E0
1.154053538E1,-1.949695587E0,-1.505120087E0,1.130149841E-1,2.465658481E0
1.155046838E1,-3.089126129E0,-2.261197815E0,-9.041198730E-2,3.829345914E0
1.156040237E1,-4.866979065E0,-3.166814575E0,-3.056643677E-1,5.814604929E0
1.157033537E1,-5.644013214E0,-3.381318512E0,-1.194515991E-1,6.580461133E0
1.158026838E1,-4.815486145E0,-3.052003326E0,8.756790161E-2,5.701868050E0
1.159020138E1,-3.451821899E0,-2.675536194E0,-1.137634277E-1,4.368811105E0
1.160013538E1,-1.921554108E0,-2.270029449E0,-1.454974365E-1,2.977679196E0
1.161006838E1,-1.159339142E0,-1.886976013E0,-9.086105347E-2,2.216529145E0
1.162000137E1,-6.626719666E-1,-1.534459076E0,-1.008901978E-1,1.674478314E0
1.162993538E1,-3.911366272E-1,-1.422491913E0,-1.306782532E-1,1.481063101E0
1.163986838E1,-1.522334290E-1,-1.567689972E0,-1.651066589E-1,1.583694123E0
1.164980138E1,2.429447937E-1,-1.718875580E0,-3.152444458E-1,1.764351012E0
1.165973438E1,6.372248840E-1,-1.871558075E0,-5.095404053E-1,2.041670053E0
1.166966838E1,1.235830078E0,-2.021396484E0,-6.752458191E-1,2.463590194E0
1.167960137E1,2.001188507E0,-2.157613220E0,-7.017407227E-1,3.025308297E0
1.168953438E1,2.782713318E0,-2.356998596E0,-7.574249268E-1,3.724597738E0
1.169946838E1,3.515289917E0,-2.481988678E0,-7.758366394E-1,4.372579729E0
1.170940138E1,3.922443237E0,-2.377955017E0,-7.596702576E-1,4.649444043E0
1.171933438E1,6.275250549E0,-2.535876617E0,-8.786727905E-1,6.825064509E0
1.172926837E1,2.180320999E1,-4.675527191E0,-2.250270538E0,2.241214488E1
1.173920137E1,4.554788269E1,-1.146391068E1,-2.651885376E0,4.704320739E1
1.174913438E1,3.879437668E1,-1.806518326E1,-1.163081360E0,4.281013042E1
1.175906738E1,4.118520493E1,-1.973346405E0,-3.954626312E0,4.142166426E1
1.176900138E1,5.087186142E1,-1.323547668E0,8.845106506E-1,5.089676239E1
1.177893438E1,4.953379395E1,-3.453618164E0,6.671476593E0,5.010022775E1
1.178886737E1,3.538057571E1,-1.139131165E0,4.441264343E0,3.567642901E1
1.179880138E1,2.406710220E1,2.100132751E-1,2.746039581E0,2.422416660E1
1.180873438E1,1.812850159E1,8.235873413E-1,3.852538605E0,1.855162849E1
1.181866738E1,1.496917145E1,1.797761536E0,6.123166809E0,1.627271373E1
1.182860138E1,1.263357834E1,3.118465118E0,9.868977356E0,1.633183518E1
1.183853438E1,1.048195267E1,3.831282806E0,1.162811920E1,1.611717146E1
1.184846737E1,8.228538666E0,4.301604767E0,1.027418472E1,1.384815958E1
1.185840038E1,6.829248505E0,3.294499054E0,4.836143188E0,8.993366449E0
1.186833438E1,6.196663971E0,1.815574493E0,7.924520874E-1,6.505607998E0
1.187826738E1,4.834496613E0,9.662406921E-1,-1.519340515E-1,4.932449952E0
1.188820038E1,3.424129486E0,6.234535217E-1,-3.264710999E-1,3.495703135E0
1.189813437E1,2.315235443E0,4.643344116E-1,-2.390528870E-1,2.373408495E0
1.190806737E1,1.523382111E0,4.778063965E-1,1.061293030E-1,1.600079822E0
1.191800038E1,8.786727905E-1,5.077441406E-1,2.639012146E-1,1.048577053E0
1.192793338E1,2.999761963E-1,4.587959290E-1,3.659889221E-1,6.591110027E-1
1.193786738E1,-1.517843628E-1,4.119433594E-1,4.808001709E-1,6.510795869E-1
1.194780038E1,-4.342469788E-1,2.770738220E-1,6.053411865E-1,7.948448235E-1
1.195773337E1,-6.319857788E-1,9.370513916E-2,1.457968140E-1,6.553193028E-1
1.196766738E1,-9.066645813E-1,-2.155517578E-2,-3.162922668E-1,9.604926271E-1
1.197760038E1,-1.114582214E0,-4.370910645E-2,-5.460644531E-1,1.241930105E0
1.198753338E1,-1.248104553E0,-3.397933960E-2,-6.177653503E-1,1.393037544E0
1.199746738E1,-1.477727051E0,-4.490661621E-4,-6.078858948E-1,1.597874432E0
1.200740038E1,-1.769620056E0,-5.837860107E-3,-6.065386963E-1,1.870689288E0
1.201733337E1,-2.105820923E0,-5.733078003E-2,-5.626799011E-1,2.180453450E0
1.202726638E1,-2.511776733E0,-2.507286072E-1,-5.785469055E-1,2.589711126E0
1.203720038E1,-2.600991211E0,-5.757028198E-1,-3.221301270E-1,2.683348064E0
1.204713338E1,-2.226320343E0,-7.349716187E-1,8.681945801E-3,2.344517205E0
1.205706638E1,-1.447938995E0,-6.619235229E-1,3.787124634E-2,1.592515091E0
1.206700037E1,-5.460644531E-1,-5.519023132E-1,-3.586541748E-1,8.552282546E-1
1.207693337E1,-2.365081787E-2,-5.902226257E-1,-8.265811157E-1,1.015951992E0
1.208686638E1,5.559439087E-1,-6.059399414E-1,-1.059047699E0,1.340827681E0
1.209680038E1,1.146765289E0,-5.776487732E-1,-1.129251709E0,1.709958525E0
1.210673338E1,1.736838226E0,-6.854246521E-1,-1.273401947E0,2.260081082E0
1.211666638E1,2.197879486E0,-7.704478455E-1,-1.387015686E0,2.710733597E0
1.212659937E1,3.004701691E0,-1.011446686E0,-1.411414948E0,3.470352835E0
1.213653337E1,1.478056366E1,-4.001628571E0,-2.812950439E0,1.556890438E1
1.214646638E1,3.736440033E1,-7.560777283E0,-7.020101624E0,3.876268298E1
1.215639938E1,5.483891190E1,-7.787406006E0,-7.401807861E0,5.588145229E1
1.216633338E1,4.987104263E1,-7.163204041E0,-3.553011475E0,5.050798230E1
1.217626613E1,4.453239441E1,-3.957320709E0,-9.433383179E-1,4.471783119E1
1.218619913E1,3.335124573E1,-2.550995178E0,6.059399414E-1,3.345415267E1
1.219613212E1,2.460149094E1,-1.725910950E0,1.244062958E0,2.469331524E1
1.220606612E1,2.243564484E1,-1.457369385E0,1.096320190E0,2.250964244E1
1.221599913E1,2.232966522E1,-2.036515045E0,1.640438690E0,2.248226816E1
1.222593213E1,2.187790466E1,-2.771636353E0,2.296075287E0,2.217197876E1
1.223586613E1,1.961895218E1,-3.794459381E0,3.556454315E0,2.029654093E1
1.224579913E1,1.654479492E1,-4.281247101E0,4.610562286E0,1.770075141E1
1.225573212E1,1.358215576E1,-4.138294373E0,5.325475616E0,1.516446920E1
1.226566613E1,1.081590820E1,-3.636238403E0,5.306165771E0,1.258417638E1
1.227559913E1,8.340505829E0,-3.114872589E0,4.555476837E0,1.000094185E1
1.228553213E1,6.471791840E0,-2.800226898E0,3.695814514E0,7.961432360E0
1.229546513E1,4.894521790E0,-2.467019806E0,3.162323914E0,6.327939855E0
1.230539912E1,3.814068604E0,-2.010768585E0,2.646945648E0,5.059311305E0
1.231533212E1,2.838696899E0,-1.663341064E0,1.836081848E0,3.767771243E0
1.232526513E1,1.876198425E0,-1.375789032E0,1.179397430E0,2.608427551E0
1.233519913E1,1.016236725E0,-9.735754395E-1,7.101232910E-1,1.576344285E0
1.234513213E1,3.065625000E-1,-6.659651184E-1,4.514611816E-1,8.609920463E-1
1.235506513E1,-2.483335876E-1,-4.857398987E-1,2.865042114E-1,6.161959778E-1
1.236499812E1,-7.791297913E-1,-3.010240173E-1,2.163002014E-1,8.628119539E-1
1.237493212E1,-1.182989960E0,-1.908531189E-1,2.080673218E-1,1.216216333E0
1.238486513E1,-1.270707550E0,-7.110214233E-2,2.742297363E-1,1.301904428E0
1.239479813E1,-1.129551086E0,4.011657715E-2,3.600013733E-1,1.186210768E0
1.240473213E1,-1.078357544E0,1.359173584E-1,3.653901672E-1,1.146664073E0
1.241466513E1,-1.105151825E0,2.474354553E-1,3.685336304E-1,1.190966791E0
1.242459812E1,-1.026864624E0,3.754193115E-1,3.906875610E-1,1.161045816E0
1.243453213E1,-1.033750305E0,4.513114929E-1,3.745211792E-1,1.188523399E0
1.244446513E1,-1.052311707E0,4.858895874E-1,3.634442139E-1,1.214718204E0
1.245439813E1,-1.045875092E0,5.504054260E-1,3.984713745E-1,1.247229039E0
1.246433113E1,-1.117426300E0,5.051994324E-1,3.926335144E-1,1.287644780E0
1.247426512E1,-1.202748871E0,3.890409851E-1,3.661386108E-1,1.316060491E0
1.248419812E1,-1.247206421E0,2.567161560E-1,4.312532043E-1,1.344398143E0
1.249413113E1,-1.335822144E0,8.487350464E-2,4.611909485E-1,1.415740584E0
1.250406513E1,-1.294058990E0,-1.489402771E-1,3.173400879E-1,1.340700044E0
1.251399813E1,-3.477268982E-1,-2.848576355E-1,1.541793823E-1,4.752148463E-1
1.252393113E1,5.538482666E-1,-2.835104370E-1,-7.185058594E-3,6.222360447E-1
1.253386512E1,1.115031281E0,-4.614903259E-1,-1.031355286E-1,1.211158542E0
1.254379812E1,2.004631348E0,-7.710466003E-1,-3.293151855E-3,2.147805984E0
1.255373113E1,4.926405487E0,-1.986219635E0,4.140390015E-1,5.327848323E0
1.256366413E1,3.814697296E1,-5.447621613E0,-2.706372070E0,3.862890857E1
1.257359813E1,7.842626175E1,-7.507488098E0,-1.132035919E1,7.959391586E1
1.258353113E1,5.743765778E1,-4.184997253E0,-1.216924393E1,5.886161084E1
1.259346412E1,5.292424347E1,-2.165696411E0,-8.217162323E0,5.360212257E1
1.260339813E1,3.296938980E1,-9.815089417E-1,-2.936892700E0,3.311448871E1
1.261333113E1,2.224554016E1,-1.304836578E0,-2.212998047E0,2.239339224E1
1.262326413E1,2.001218445E1,-3.541635132E-1,-4.827461243E-1,2.002113888E1
1.263319713E1,1.876153519E1,6.017486572E-1,-3.635939026E-1,1.877470385E1
1.264313112E1,1.736299347E1,1.134341125E0,-1.454974365E0,1.746073373E1
1.265306412E1,1.547107773E1,1.188827820E0,-1.623972931E0,1.560143730E1
1.266299713E1,1.319341415E1,1.251547394E0,-9.029223633E-1,1.328336617E1
1.267293113E1,1.057221497E1,1.124461670E0,-2.143542480E-1,1.063400635E1
1.268286413E1,8.048014069E0,9.440867615E-1,2.457888794E-1,8.106925585E0
1.269279713E1,5.686674500E0,6.406677246E-1,5.496569824E-1,5.748986415E0
1.270273012E1,3.556154938E0,1.733395386E-1,8.732839966E-1,3.665911820E0
1.271266412E1,1.818717957E0,-2.885998535E-1,1.212179260E0,2.204632269E0
1.272259713E1,5.774990845E-1,-5.969586182E-1,1.281634827E0,1.527236921E0
1.273253013E1,-1.706451416E-1,-6.024971008E-1,1.093625793E0,1.260214227E0
1.274246413E1,-5.924679565E-1,-4.933740234E-1,7.243437195E-1,1.057879970E0
1.275239713E1,-9.053173828E-1,-3.968247986E-1,3.748205566E-1,1.057147073E0
1.276233012E1,-1.042132874E0,-3.185375977E-1,1.143621826E-1,1.095712479E0
1.277226413E1,-1.115480347E0,-1.336720276E-1,4.715194702E-2,1.124450053E0
1.278219713E1,-9.993218994E-1,1.622625732E-1,-1.196012878E-1,1.019449788E0
1.279213013E1,-9.842033386E-1,2.987786865E-1,-1.339714050E-1,1.037243102E0
1.280206313E1,-1.083446960E0,3.653901672E-1,-1.745370483E-1,1.156646217E0
1.281199712E1,-1.070573730E0,3.510200500E-1,-2.511776733E-1,1.154310795E0
1.282193012E1,-1.199156342E0,2.619552612E-1,-1.712438965E-1,1.239322784E0
1.283186313E1,-1.341210938E0,1.785786438E-1,-8.322692871E-2,1.355604600E0
1.284179713E1,-1.449585571E0,8.981323242E-2,-2.784210205E-2,1.452632069E0
1.285173013E1,-1.494043121E0,1.137634277E-2,5.044509888E-2,1.494937784E0
1.286166313E1,-1.441352692E0,1.856140137E-2,1.664538574E-1,1.451050996E0
1.287159612E1,-1.293310547E0,5.568420410E-2,2.496807861E-1,1.318367701E0
1.288153012E1,-1.186283112E0,4.490661621E-2,2.875520325E-1,1.221462401E0
1.289146313E1,-1.129102020E0,-3.128494263E-2,3.147953796E-1,1.172581021E0
1.290139613E1,-6.059399414E-1,-1.303788757E-1,2.577639771E-1,6.712705354E-1
1.291133013E1,2.511776733E-1,-2.342628479E-1,1.606159973E-1,3.791659321E-1
1.292126313E1,6.692582703E-1,-3.912863159E-1,1.860630798E-1,7.972647509E-1
1.293119612E1,1.155147858E0,-6.078858948E-1,2.134561157E-1,1.322669780E0
1.294113013E1,1.845512238E0,-9.952803040E-1,2.134561157E-1,2.107619941E0
1.295106313E1,3.485352173E0,-1.864522705E0,2.609074402E-1,3.961337827E0
1.296099613E1,1.334070786E1,-4.421804810E0,3.300636292E-1,1.405829954E1
1.297092913E1,5.467230835E1,-6.384673004E0,-2.724783783E0,5.511124927E1
1.298086312E1,6.970300186E1,-5.395080872E0,-7.944130096E0,7.036138550E1
1.299079612E1,6.393205261E1,-3.344495087E0,-9.320517883E0,6.469439738E1
1.300072913E1,4.877562057E1,1.197509766E-3,-4.913083191E0,4.902243925E1
1.301066313E1,2.823623245E1,1.361718292E0,-1.977537689E0,2.833813253E1
1.302059613E1,2.164214493E1,1.071022797E0,-1.361568604E0,2.171136559E1
1.303052913E1,1.946746719E1,7.963439941E-1,-1.996847534E-1,1.948477140E1
1.304046212E1,1.827579529E1,9.083111572E-1,-2.305206299E-2,1.829836752E1
1.305039612E1,1.695973206E1,1.385668488E0,-3.652404785E-1,1.702016419E1
1.306032913E1,1.526585449E1,1.614542542E0,-5.029541016E-1,1.535923253E1
1.307026213E1,1.326047470E1,1.843416595E0,-1.675016785E-1,1.338904145E1
1.308019613E1,1.095392120E1,1.810036011E0,3.611988831E-1,1.110833402E1
1.309012913E1,8.558452606E0,1.779050446E0,8.550219727E-1,8.783119837E0
1.310006212E1,6.237528992E0,1.846410370E0,1.398392029E0,6.653683149E0
1.310999613E1,4.262835388E0,1.901944885E0,2.248474274E0,5.181196431E0
1.311992913E1,2.738255768E0,1.949845276E0,2.876119080E0,4.424025566E0
1.312986213E1,1.562600555E0,1.814227295E0,2.678230591E0,3.592500560E0
1.313979513E1,5.812413025E-1,1.598226471E0,2.138602753E0,2.732359976E0
1.314972912E1,-2.630030823E-1,1.312620392E0,1.117276611E0,1.743688602E0
1.315966212E1,-8.653504944E-1,1.025816803E0,2.874023438E-1,1.372491056E0
1.316959513E1,-9.809101868E-1,8.026309204E-1,-7.828720093E-2,1.269854352E0
1.317952925E1,-1.026714935E0,6.125262451E-1,-2.519261169E-1,1.221801427E0
1.318946225E1,-1.081950073E0,5.369334412E-1,-3.275189209E-1,1.251471983E0
1.319939525E1,-9.997709656E-1,4.902305603E-1,-1.585203552E-1,1.124720716E0
1.320932825E1,-8.798703003E-1,4.794529724E-1,2.859054565E-2,1.002429208E0
1.321926225E1,-8.065228271E-1,4.337979126E-1,2.718347168E-1,9.552768253E-1
1.322919525E1,-9.071136475E-1,3.106040955E-1,4.070036316E-1,1.041624707E0
1.323912825E1,-1.012793884E0,2.204914856E-1,3.878434753E-1,1.106702538E0
1.324906225E1,-1.091829529E0,1.309776306E-1,4.095483398E-1,1.173446506E0
1.325899525E1,-1.149160309E0,6.601272583E-2,3.722758484E-1,1.209758820E0
1.326892825E1,-1.319356384E0,2.634521484E-2,2.957849121E-1,1.352362397E0
1.327886125E1,-1.488953705E0,-4.430786133E-2,2.152523804E-1,1.505084685E0
1.328879525E1,-1.563947754E0,-1.216969299E-1,1.627116394E-1,1.577091563E0
1.329872825E1,-1.563947754E0,-1.748364258E-1,5.538482666E-2,1.574664355E0
1.330866125E1,-1.466201019E0,-2.077679443E-1,-1.062789917E-1,1.484657594E0
1.331859525E1,-5.273533630E-1,-1.565744019E-1,-3.131488037E-1,6.329923270E-1
1.332852825E1,7.108717346E-1,-1.405577087E-1,-3.180885315E-1,7.913756418E-1
1.333846125E1,1.166673889E0,-2.893482971E-1,-3.260220337E-1,1.245448019E0
1.334839525E1,1.108145599E0,-2.565664673E-1,-1.751358032E-1,1.150862968E0
1.335832825E1,3.270698547E-1,8.557704163E-1,4.816983032E-1,1.035060844E0
1.336826125E1,7.562872925E0,6.119125214E0,-7.129673767E-1,9.754438105E0
1.337819425E1,5.968852707E1,3.747756500E0,-6.514153748E0,6.015978841E1
1.338812825E1,9.297944824E1,-6.337071991E0,-1.314596283E1,9.411775930E1
1.339806125E1,4.900120148E1,-2.500699768E0,-6.497238922E0,4.949328600E1
1.340799425E1,3.704212051E1,2.347119141E0,-3.186423798E0,3.725293219E1
1.341792825E1,2.494787064E1,2.284998322E0,-1.683249664E0,2.510877926E1
1.342786125E1,2.004766068E1,9.427395630E-1,-2.354603577E0,2.020746432E1
1.343779425E1,1.893682068E1,5.652246094E-1,-1.744322662E0,1.902538614E1
1.344772725E1,1.801114563E1,7.126679993E-1,-1.728305969E0,1.810790723E1
1.345766125E1,1.697634750E1,7.318281555E-1,-1.750459900E0,1.708203901E1
1.346759425E1,1.509700562E1,4.858895874E-1,-1.073866882E0,1.514294744E1
1.347752725E1,1.289822800E1,3.683839417E-1,-3.614982605E-1,1.290855039E1
1.348746125E1,1.051563263E1,3.730242920E-1,1.356179810E-1,1.052312069E1
1.349739425E1,8.171058197E0,3.032693481E-1,4.887336731E-1,8.191277370E0
1.350732725E1,6.084846497E0,1.672023010E-1,7.122189331E-1,6.128667825E0
1.351726125E1,4.441863098E0,-8.637039185E-2,8.975335693E-1,4.532457847E0
1.352719425E1,3.179089050E0,-1.252894592E-1,1.047371979E0,3.349521264E0
1.353712725E1,2.122286682E0,-1.670526123E-1,1.005758514E0,2.354476062E0
1.354706025E1,1.198407898E0,-2.486329651E-1,9.277706909E-1,1.535824956E0
1.355699425E1,4.224215698E-1,-2.706372070E-1,8.217910767E-1,9.628214030E-1
1.356692725E1,-1.821711731E-1,-2.743794250E-1,7.358697510E-1,8.062100816E-1
1.357686025E1,-5.704637146E-1,-2.067201233E-1,5.737568665E-1,8.350802362E-1
1.358679425E1,-8.158035278E-1,-1.565744019E-1,2.820135498E-1,8.772585603E-1
1.359672725E1,-9.815089417E-1,-1.414558411E-1,9.819580078E-2,9.964998609E-1
1.360666025E1,-1.124461670E0,-1.032852173E-1,1.493893433E-1,1.139034266E0
1.361659325E1,-1.212478638E0,-9.116043091E-2,1.685494995E-1,1.227527435E0
1.362652725E1,-1.126557312E0,4.685256958E-2,9.939331055E-2,1.131903517E0
1.363646025E1,-1.066532135E0,1.559756470E-1,1.886077881E-1,1.094254127E0
1.364639325E1,-1.045575714E0,1.143621826E-1,2.468367004E-1,1.080386801E0
1.365632725E1,-1.128952332E0,1.811233521E-2,3.107537842E-1,1.171080415E0
1.366626025E1,-1.284179535E0,-1.130149841E-1,3.285667419E-1,1.330355429E0
1.367619325E1,-1.429826660E0,-2.237846375E-1,2.833607483E-1,1.474712567E0
1.368612625E1,-1.552272034E0,-2.929408264E-1,2.667453003E-1,1.602034909E0
1.369606025E1,-1.534309387E0,-3.266207886E-1,2.809657288E-1,1.593652464E0
1.370599325E1,-1.490300903E0,-3.650907898E-1,2.975811768E-1,1.562959572E0
1.371592625E1,-1.452130280E0,-4.381388855E-1,3.230282593E-1,1.550804723E0
1.372586025E1,-7.509883118E-1,-6.047424316E-1,3.412902832E-1,1.022827410E0
1.373579325E1,8.156538391E-1,-6.396199036E-1,2.957849121E-1,1.077911648E0
1.374572625E1,1.323996735E0,-6.505471802E-1,2.520758057E-1,1.496569811E0
1.375566025E1,1.643881531E0,-7.312294006E-1,2.658471680E-1,1.818713183E0
1.376559325E1,2.689157867E0,-9.497749329E-1,2.639012146E-1,2.864137970E0
1.377552625E1,1.693937439E1,-1.529818726E0,-5.983058167E-1,1.701883427E1
1.378545925E1,6.076927963E1,-4.800517273E0,-3.381019135E0,6.105228582E1
1.379539325E1,5.451244080E1,-2.141446838E0,-4.864134979E0,5.477090291E1
1.380532625E1,6.139916977E1,-3.936813354E-1,-8.477620697E0,6.198292576E1
1.381525925E1,4.373844543E1,7.312294006E-1,-4.740342407E0,4.400064945E1
1.382519325E1,2.627291519E1,1.321002960E0,-2.093396759E0,2.638926735E1
1.383512625E1,2.170097260E1,1.392105103E0,-1.427431641E0,2.179237778E1
1.384505925E1,2.060884369E1,1.840722198E0,-1.628164215E0,2.075484558E1
1.385499225E1,2.148033142E1,2.125729523E0,-2.134411469E0,2.169052964E1
1.386492625E1,2.049762497E1,2.196232910E0,-2.083367615E0,2.071995389E1
1.387485925E1,1.778451691E1,1.986069946E0,-1.732796631E0,1.797876802E1
1.388479225E1,1.468401443E1,1.575922852E0,-9.940827942E-1,1.480175710E1
1.389472625E1,1.191477310E1,1.255588989E0,-3.588038635E-1,1.198611956E1
1.390465925E1,9.253307648E0,1.096020813E0,-1.076261902E-1,9.318612957E0
1.391459225E1,6.784491577E0,8.333171082E-1,1.475930786E-1,6.837070065E0
1.392452525E1,4.767585754E0,5.379812622E-1,5.944139099E-1,4.834524347E0
1.393445925E1,3.134631500E0,2.574645996E-1,1.084345093E0,3.326861425E0
1.394439225E1,1.899250488E0,1.010398865E-1,1.543290710E0,2.449307595E0
1.395432525E1,9.693841553E-1,4.775070190E-2,1.773961029E0,2.022108677E0
1.396425925E1,2.415975952E-1,9.190887451E-2,1.641187134E0,1.661418625E0
1.397419225E1,-3.876937866E-1,1.089733887E-1,1.297352142E0,1.358419763E0
1.398412525E1,-8.930429077E-1,5.822891235E-2,9.577084351E-1,1.310771409E0
1.399405825E1,-1.256936188E0,1.062789917E-2,6.848258972E-1,1.431428672E0
1.400399225E1,-1.446591797E0,-1.706451416E-2,5.282514954E-1,1.540119692E0
1.401392525E1,-1.509161682E0,-9.580078125E-3,3.960763550E-1,1.560300368E0
1.402385825E1,-1.603615265E0,-2.290237427E-2,3.594026184E-1,1.643556108E0
1.403379225E1,-1.610351257E0,8.382568359E-3,4.323010254E-1,1.667388862E0
1.404372525E1,-1.549427948E0,4.026626587E-2,5.499563599E-1,1.644627720E0
1.405365825E1,-1.423839111E0,1.038839722E-1,6.274951172E-1,1.559442149E0
1.406359225E1,-1.313668213E0,1.796264648E-1,5.510041809E-1,1.435825702E0
1.407352525E1,-1.111289062E0,2.682421875E-1,4.311035156E-1,1.221788645E0
1.408345825E1,-9.449848938E-1,3.427871704E-1,3.697311401E-1,1.071074512E0
1.409339125E1,-7.963439941E-1,3.794609070E-1,3.600013733E-1,9.527619460E-1
1.410332525E1,-8.910969543E-1,3.363505554E-1,3.222798157E-1,1.005509700E0
1.411325825E1,-1.022972717E0,2.556683350E-1,2.847079468E-1,1.092198742E0
1.412319125E1,-1.032103729E0,1.686991882E-1,2.233355713E-1,1.069381270E0
1.413312525E1,-8.116122437E-1,1.160087585E-1,2.091151428E-1,8.461096909E-1
1.414305825E1,-1.077758789E-1,1.422042847E-1,1.428030396E-1,2.285397269E-1
1.415299125E1,2.447410583E-1,6.137237549E-2,7.664062500E-2,2.637016108E-1
1.416292425E1,5.445675659E-1,-7.140151978E-2,4.490661621E-4,5.492287434E-1
1.417285825E1,5.658233643E-1,-3.089575195E-1,1.493893433E-1,6.617612895E-1
1.418279100E1,9.454339600E-1,-8.167016602E-1,9.068142700E-1,1.543748391E0
1.419272400E1,1.808090057E1,7.464976501E-1,3.544628906E-1,1.809977536E1
1.420265800E1,6.024492004E1,-1.216819611E0,-2.435285797E0,6.030639815E1
1.421259100E1,5.779750946E1,-5.554649048E0,-2.110012207E0,5.810213746E1
1.422252400E1,5.434314285E1,-1.642684021E0,-6.688690796E0,5.477786205E1
1.423245800E1,4.046550156E1,7.403604126E-1,-3.706442413E0,4.064163709E1
1.424239100E1,2.705114685E1,4.938230896E-1,-1.975891113E0,2.712770821E1
1.425232400E1,2.246423538E1,4.486170959E-1,-1.177152100E0,2.249952923E1
1.426225700E1,2.296674042E1,7.243437195E-1,-1.020877075E-1,2.297838683E1
1.427219100E1,2.391187500E1,1.261576538E0,-2.236349487E-1,2.394617619E1
1.428212400E1,2.268562500E1,1.663191376E0,-5.339396667E-1,2.275277739E1
1.429205700E1,2.055705139E1,1.503772888E0,-4.049079895E-1,2.061595608E1
1.430199100E1,1.724773315E1,1.361269226E0,-1.375639343E-1,1.730191541E1
1.431192400E1,1.382569931E1,1.186133423E0,1.983375549E-1,1.387790372E1
1.432185700E1,1.063792831E1,1.117725677E0,4.108955383E-1,1.070437596E1
1.433179000E1,7.701334991E0,9.672885132E-1,6.233038330E-1,7.786829611E0
1.434172400E1,5.070855103E0,5.053491211E-1,1.290167084E0,5.256755683E0
1.435165700E1,2.780168610E0,-3.197351074E-1,2.294129333E0,3.618645801E0
1.436159000E1,1.591640167E0,-6.297404480E-1,2.708168335E0,3.203758291E0
1.437152400E1,9.407936096E-1,-6.188131714E-1,2.781216431E0,3.000531152E0
1.438145700E1,4.587959290E-1,-4.707710266E-1,2.287543030E0,2.380120202E0
1.439139000E1,2.829116821E-2,-3.053649902E-1,1.389261017E0,1.422706695E0
1.440132300E1,-4.908293152E-1,-3.007246399E-1,7.646099854E-1,9.570669545E-1
1.441125700E1,-9.328601074E-1,-3.797602844E-1,3.805087280E-1,1.076676714E0
1.442119000E1,-1.232087860E0,-4.354444885E-1,1.966909790E-1,1.321491483E0
1.443112300E1,-1.416204987E0,-3.809577942E-1,1.073268127E-1,1.470470826E0
1.444105700E1,-1.338965607E0,-2.315684509E-1,4.176315308E-2,1.359484095E0
1.445099000E1,-1.165177002E0,-6.661148071E-2,-4.475692749E-2,1.167937378E0
1.446092300E1,-1.033600616E0,1.386117554E-1,-4.281097412E-2,1.043731878E0
1.447085600E1,-9.163943481E-1,3.800596619E-1,-5.343887329E-2,9.935188277E-1
1.448079000E1,-9.723779297E-1,3.523672485E-1,-3.921844482E-2,1.034997392E0
1.449072300E1,-1.059347076E0,2.203417969E-1,-2.140548706E-2,1.082231459E0
1.450065600E1,-1.132395172E0,9.580078125E-2,-5.388793945E-2,1.137717243E0
1.451059000E1,-1.130449219E0,3.787124634E-2,-6.152206421E-2,1.132755327E0
1.452052300E1,-1.021924896E0,6.077362061E-2,-1.496887207E-3,1.023731492E0
1.453045600E1,-9.877958679E-1,9.894424438E-2,4.640350342E-3,9.927498038E-1
1.454038900E1,-9.776170349E-1,1.219963074E-1,-5.433700562E-2,9.866968512E-1
1.455032300E1,-9.502239990E-1,1.437011719E-1,-1.276844788E-1,9.694735691E-1
1.456025600E1,-1.939965820E-1,1.686991882E-1,-2.586621094E-1,3.646918929E-1
1.457018900E1,4.346960449E-1,6.212081909E-2,-2.963836670E-1,5.297762978E-1
1.458012300E1,7.725434875E-1,-9.699829102E-2,-3.065625000E-1,8.367871145E-1
1.459005600E1,9.472302246E-1,-2.297721863E-1,-2.616558838E-1,1.009209670E0
1.459998900E1,1.730850677E0,-4.328997803E-1,-2.619552612E-2,1.784357726E0
1.460992300E1,1.411684387E1,-9.066645813E-1,-7.078779602E-1,1.416362993E1
1.461985600E1,5.597430084E1,-1.572929077E0,-4.622986450E0,5.618690652E1
1.462978900E1,5.724845123E1,-3.902983704E0,-4.681215363E0,5.757197432E1
1.463972200E1,5.594705750E1,-1.726210327E0,-8.502019958E0,5.661569913E1
1.464965600E1,4.315166565E1,6.213578796E-1,-6.385122070E0,4.362593400E1
1.465958900E1,2.831736374E1,9.357041931E-1,-3.860621796E0,2.859463292E1
1.466952200E1,2.257635223E1,1.204694824E0,-1.804497528E0,2.268036995E1
1.467945600E1,2.196307755E1,8.831634521E-1,-1.934577026E0,2.206579573E1
1.468938900E1,2.254252258E1,1.039588165E0,-1.382674713E0,2.260880044E1
1.469932200E1,2.126552811E1,1.751807098E0,-8.699908447E-1,2.135528969E1
1.470925500E1,1.838147552E1,2.102677460E0,-1.356030121E0,1.855097606E1
1.471918900E1,1.537916885E1,2.279908905E0,-1.231638794E0,1.559595311E1
1.472912200E1,1.247311203E1,2.202070770E0,-6.304888916E-1,1.268168584E1
1.473905500E1,9.759405212E0,1.955234070E0,3.427871704E-2,9.953396676E0
1.474898900E1,7.429500275E0,1.682052155E0,4.839436340E-1,7.632887738E0
1.475892200E1,5.302273865E0,1.389560394E0,1.140927429E0,5.598812519E0
1.476885500E1,3.316054230E0,1.079704742E0,2.355052643E0,4.208117267E0
1.477878800E1,1.452729034E0,4.158352661E-1,3.406017151E0,3.726163368E0
1.478872200E1,1.859133911E-1,-2.561174011E-1,4.248165894E0,4.259938189E0
1.479865500E1,-1.188528442E-1,-3.158432007E-1,3.754342804E0,3.769479117E0
1.480858800E1,-1.552272034E-1,-2.456391907E-1,1.999092865E0,2.020100586E0
1.481852200E1,-4.085005188E-1,-2.059716797E-1,4.977149963E-1,6.760304906E-1
1.482845500E1,-8.445437622E-1,-2.276765442E-1,-2.649490356E-2,8.750958547E-1
1.483838800E1,-1.220561829E0,-3.686833191E-1,9.894424438E-2,1.278862202E0
1.484832100E1,-1.430874481E0,-4.343966675E-1,2.456391907E-1,1.515401220E0
1.485825500E1,-1.484013977E0,-4.360432434E-1,2.847079468E-1,1.572733229E0
1.486818800E1,-1.486259308E0,-3.956272888E-1,3.086581421E-1,1.568680187E0
1.487812100E1,-1.447190552E0,-3.421884155E-1,4.526586914E-1,1.554462382E0
1.488805500E1,-1.310674438E0,-2.086660767E-1,5.712121582E-1,1.444884890E0
1.489798800E1,-1.139430542E0,3.832031250E-2,4.243675232E-1,1.216494226E0
1.490792100E1,-9.677375793E-1,3.195854187E-1,5.987548828E-4,1.019142395E0
1.491785500E1,-8.928932190E-1,4.204756165E-1,-3.694317627E-1,1.053820607E0
1.492778800E1,-8.131091309E-1,3.742218018E-1,-4.182302856E-1,9.879802566E-1
1.493772100E1,-7.167095947E-1,3.652404785E-1,-3.022215271E-1,8.593085021E-1
1.494765400E1,-6.177653503E-1,3.362008667E-1,-1.496887207E-1,7.190770223E-1
1.495758800E1,-5.237608337E-1,3.022215271E-1,4.385879517E-2,6.062894163E-1
1.496752100E1,-3.378474426E-1,2.436932373E-1,2.071691895E-1,4.652379622E-1
1.497745400E1,8.801696777E-2,1.410067749E-1,2.630030823E-1,3.111278169E-1
1.498738800E1,2.487826538E-1,1.130149841E-1,2.227368164E-1,3.525292681E-1
1.499732100E1,2.897973633E-1,1.164578247E-1,1.911524963E-1,3.661751132E-1
1.500725400E1,1.106948090E0,1.109193420E-1,1.086740112E-1,1.117786748E0
1.501718700E1,9.853409729E0,3.728746033E-1,-6.658154297E-1,9.882916014E0
1.502712100E1,3.301010513E1,-1.549278259E0,-2.114652557E0,3.311403116E1
1.503705400E1,4.868895081E1,-3.614982605E0,-2.460583191E0,4.888493121E1
1.504698700E1,4.938500336E1,2.350112915E-1,-5.306614838E0,4.966984949E1
1.505692100E1,4.908427872E1,-4.430786133E-2,-7.023394775E0,4.958423595E1
1.506685400E1,3.422408066E1,1.087039490E0,-4.285438385E0,3.450846757E1
1.507678700E1,2.462963242E1,1.054257660E0,-1.758692780E0,2.471483871E1
1.508672000E1,2.355606491E1,7.150630188E-1,-1.816921692E0,2.363685076E1
1.509665400E1,2.458263016E1,8.226892090E-1,-1.426683197E0,2.463773423E1
1.510658700E1,2.403821228E1,1.473535767E0,-3.248245239E-1,2.408552404E1
1.511652000E1,2.263847305E1,1.941013641E0,-4.689747620E-1,2.272637088E1
1.512645400E1,2.044388672E1,1.740580444E0,-4.965174866E-1,2.052385573E1
1.513638700E1,1.748005005E1,1.631756744E0,-2.540217590E-1,1.755788446E1
1.514632000E1,1.418405411E1,1.497336273E0,-1.377136230E-1,1.426353294E1
1.515625300E1,1.126572281E1,1.159339142E0,-2.200424194E-1,1.132735610E1
1.516618700E1,8.960217133E0,9.068142700E-1,-2.321672058E-1,9.008979121E0
1.517612000E1,7.002138977E0,6.117778015E-1,-2.339634705E-1,7.032706537E0
1.518605354E1,5.341641998E0,3.204835510E-1,-2.469863892E-2,5.351304417E0
1.519598754E1,4.094585266E0,7.828720093E-2,3.156935120E-1,4.107483388E0
1.520592054E1,3.038231964E0,-1.188528442E-1,3.568579102E-1,3.061425654E0
1.521585354E1,1.686692505E0,-7.964936829E-1,6.309379578E-1,1.969115664E0
1.522578654E1,1.745370483E-1,-1.827998657E0,1.332229614E0,2.268673184E0
1.523572054E1,-1.104702759E-1,-1.790127411E0,1.479223938E0,2.324836185E0
1.524565354E1,-4.834945679E-2,-1.322649536E0,9.208850098E-1,1.612379815E0
1.525558654E1,-2.612068176E-1,-9.029223633E-1,4.427792358E-1,1.039014556E0
1.526552054E1,-7.818241882E-1,-6.005511475E-1,4.388873291E-1,1.079135223E0
1.527545354E1,-1.237776031E0,-3.947291565E-1,2.803669739E-1,1.329099790E0
1.528538654E1,-1.465751953E0,-2.218386841E-1,1.148112488E-1,1.486883591E0
1.529531954E1,-1.461111603E0,-5.733078003E-2,-1.047821045E-3,1.462236312E0
1.530525354E1,-1.245559845E0,2.317181396E-1,-2.694396973E-3,1.266933259E0
1.531518654E1,-1.107696533E0,3.582051086E-1,5.852828979E-2,1.165644916E0
1.532511954E1,-1.040486298E0,4.213737488E-1,1.691482544E-1,1.135243896E0
1.533505354E1,-1.021326141E0,3.463796997E-1,1.823208618E-1,1.093767288E0
1.534498654E1,-9.910890198E-1,2.480342102E-1,1.648072815E-1,1.034862239E0
1.535491954E1,-9.645941162E-1,1.628613281E-1,2.456391907E-1,1.008615007E0
1.536485354E1,-9.936337280E-1,7.035369873E-2,3.701802063E-1,1.062681050E0
1.537478654E1,-9.283694458E-1,8.786727905E-2,3.821553040E-1,1.007786268E0
1.538471954E1,-9.464817810E-1,3.442840576E-2,3.379971313E-1,1.005611823E0
1.539465254E1,-9.286688232E-1,9.580078125E-3,2.854563904E-1,9.715981227E-1
1.540458654E1,-6.629713440E-1,-1.332229614E-2,1.695973206E-1,6.844499526E-1
1.541451954E1,7.499404907E-2,5.433700562E-2,5.987548828E-3,9.280338526E-2
1.542445254E1,3.716770935E-1,5.074447632E-2,-9.220825195E-2,3.862916326E-1
1.543438654E1,5.182223511E-1,-5.448669434E-2,-2.173480225E-1,5.645913282E-1
1.544431954E1,5.267546082E-1,-6.526428223E-2,-6.496490479E-2,5.347431931E-1
1.545425254E1,6.718927917E0,-1.965412903E-1,-1.381626892E-1,6.723221681E0
1.546418554E1,4.042134338E1,-3.429518280E0,-1.842069397E0,4.060837126E1
1.547411954E1,5.398493774E1,-6.531367950E0,-1.550924835E0,5.440071358E1
1.548405254E1,5.018389206E1,-7.827223206E-1,-4.532873840E0,5.039427172E1
1.549398554E1,4.918202545E1,-1.771266632E0,-5.726641388E0,4.954597294E1
1.550391954E1,3.227618134E1,-4.581971741E-1,-2.975512390E0,3.241628449E1
1.551385254E1,2.350876328E1,2.046244812E-1,-1.831291809E0,2.358087046E1
1.552378554E1,2.274280609E1,4.808001709E-1,-1.385668488E0,2.279005210E1
1.553371854E1,2.467244339E1,8.481362915E-1,-1.107097778E0,2.471182841E1
1.554365254E1,2.480282227E1,1.685794373E0,-1.293160858E0,2.489365702E1
1.555358554E1,2.262769547E1,2.284549255E0,-1.292262726E0,2.277941418E1
1.556351854E1,1.963901047E1,2.629731445E0,-1.009201355E0,1.983997749E1
1.557345254E1,1.663176407E1,2.503094788E0,-6.192622375E-1,1.683046480E1
1.558338554E1,1.425216248E1,2.494113464E0,-1.347198486E-1,1.446937755E1
1.559331854E1,1.229423401E1,2.759212189E0,2.948867798E-1,1.260350745E1
1.560325154E1,1.011686188E1,2.881807251E0,3.607498169E-1,1.052548563E1
1.561318554E1,7.938890991E0,2.592009888E0,2.348616028E-1,8.354619405E0
1.562311854E1,6.093079376E0,1.829645233E0,8.846603394E-2,6.362471548E0
1.563305154E1,4.639751587E0,1.033600616E0,-8.128097534E-2,4.754180436E0
1.564298554E1,3.485352173E0,4.396357727E-1,-1.963916016E-1,3.518455491E0
1.565291854E1,2.643203430E0,1.688488770E-1,-2.742297363E-1,2.662749756E0
1.566285154E1,2.023641815E0,7.514373779E-2,-3.526666260E-1,2.055516122E0
1.567278454E1,1.413510590E0,1.416055298E-1,-2.860551453E-1,1.449100362E0
1.568271854E1,7.470964050E-1,1.877096558E-1,-1.154100037E-1,7.789142586E-1
1.569265154E1,4.161346436E-2,1.372645569E-1,1.588197327E-1,2.140022114E-1
1.570258454E1,-4.572990417E-1,7.155120850E-2,2.375559998E-1,5.202642041E-1
1.571251854E1,-6.993457031E-1,5.284011841E-2,1.675016785E-1,7.210640075E-1
1.572245154E1,-7.737409973E-1,9.026229858E-2,2.456391907E-1,8.167992565E-1
1.573238454E1,-9.171427917E-1,7.095245361E-2,2.688409424E-1,9.583635028E-1
1.574231754E1,-1.095422058E0,4.790039063E-2,1.962419128E-1,1.113891746E0
1.575225154E1,-1.235530701E0,2.200424194E-2,4.984634399E-2,1.236731562E0
1.576218454E1,-1.141226807E0,2.065704346E-2,2.064207458E-1,1.159928818E0
1.577211754E1,-1.062490540E0,-1.047821045E-2,2.968327332E-1,1.103225095E0
1.578205154E1,-1.064436493E0,-3.727249146E-2,1.821711731E-1,1.080555701E0
1.579198454E1,-1.033600616E0,-3.173400879E-2,1.398092651E-1,1.043496005E0
1.580191754E1,-1.018182678E0,-6.227050781E-2,1.460961914E-1,1.030493901E0
1.581185054E1,-9.422904968E-1,-1.025367737E-1,2.008822632E-1,9.689060089E-1
1.582178454E1,-9.788145447E-1,-1.728904724E-1,2.746788025E-1,1.031221350E0
1.583171754E1,-1.059496765E0,-2.417472839E-1,3.294648743E-1,1.135571331E0
1.584165054E1,-1.133442993E0,-3.350033569E-1,3.095562744E-1,1.221779585E0
1.585158454E1,-1.237925720E0,-3.839515686E-1,1.628613281E-1,1.306293500E0
1.586151754E1,-7.002438354E-1,-3.561094666E-1,-4.191284180E-2,7.867096463E-1
1.587145054E1,4.751119995E-1,-3.059637451E-1,-4.236190796E-2,5.666919416E-1
1.588138354E1,1.013542328E0,-4.806504822E-1,-3.577560425E-2,1.122306923E0
1.589131754E1,1.629361725E0,-7.569758606E-1,9.131011963E-3,1.796640047E0
1.590125054E1,2.507585449E0,-1.125659180E0,1.001417542E-1,2.750476640E0
1.591118354E1,2.037862244E0,-2.093546448E0,1.138083344E0,3.135450996E0
1.592111754E1,3.766677155E1,3.594175873E0,-5.102888489E-1,3.784130248E1
1.593105054E1,8.946760117E1,-2.034269714E0,-5.727689209E0,8.967383306E1
1.594098354E1,6.022575989E1,-5.979765015E0,-5.598807220E0,6.078031249E1
1.595091754E1,4.599111099E1,8.228388977E-1,-3.852538605E0,4.615952131E1
1.596085054E1,2.884007675E1,2.126477966E0,-9.072633362E-1,2.893259515E1
1.597078354E1,2.177611633E1,2.054477692E0,-1.274749146E0,2.190993169E1
1.598071654E1,2.032233948E1,2.500699768E0,-3.064128113E-1,2.047791176E1
1.599065054E1,2.069192093E1,3.566633148E0,2.380050659E-2,2.099707194E1
1.600058354E1,2.062381256E1,4.542154541E0,-8.487350464E-1,2.113511683E1
1.601051654E1,1.925760361E1,4.733007660E0,-9.051676941E-1,1.985134723E1
1.602045054E1,1.697799408E1,5.256918182E0,7.888595581E-2,1.777339851E1
1.603038354E1,1.403631134E1,5.072202301E0,1.142124939E0,1.496829054E1
1.604031654E1,1.112052475E1,4.085304565E0,2.020648041E0,1.201826953E1
1.605024954E1,8.521030426E0,2.514770508E0,2.615660706E0,9.261409782E0
1.606018354E1,6.593638458E0,1.121318207E0,2.764151917E0,7.236985454E0
1.607011654E1,5.368885345E0,3.365002441E-1,2.765948181E0,6.048853743E0
1.608004954E1,4.381987610E0,-4.270619202E-1,2.824925537E0,5.231099463E0
1.608998354E1,3.508553925E0,-8.665480042E-1,2.756368103E0,4.545153595E0
1.609991654E1,2.758314056E0,-7.716453552E-1,1.947749634E0,3.463735213E0
1.610984954E1,1.944905548E0,-5.318440247E-1,9.071136475E-1,2.210966039E0
1.611978254E1,9.288185120E-1,-3.034190369E-1,4.248165894E-1,1.065474577E0
1.612971654E1,-4.969665527E-2,-1.836680603E-1,1.543290710E-1,2.449921960E-1
1.613964954E1,-9.294172668E-1,-2.730322266E-1,6.526428223E-2,9.708874699E-1
1.614958254E1,-1.460063782E0,-3.682342529E-1,-7.035369873E-3,1.505799525E0
1.615951654E1,-1.525627441E0,-2.330653381E-1,-9.145980835E-2,1.546034747E0
1.616944954E1,-1.294358368E0,-8.681945801E-2,-1.963916016E-1,1.312048347E0
1.617938238E1,-1.251098328E0,-4.355941772E-2,-2.616558838E-1,1.278909008E0
1.618931537E1,-1.397793274E0,-4.715194702E-2,-2.679428101E-1,1.424023417E0
1.619924938E1,-1.326990509E0,1.695973206E-1,-2.239343262E-1,1.356397303E0
1.620918238E1,-1.209634552E0,3.348536682E-1,-1.776805115E-1,1.267640759E0
1.621911538E1,-1.122815094E0,3.653901672E-1,-6.376739502E-2,1.182493125E0
1.622904938E1,-1.171164551E0,2.643502808E-1,5.942642212E-2,1.202097740E0
1.623898237E1,-1.187480621E0,1.347198486E-1,8.502319336E-2,1.198118778E0
1.624891537E1,-1.257684631E0,4.191284180E-3,1.564247131E-1,1.267381904E0
1.625884838E1,-1.335223389E0,-8.367599487E-2,2.122586060E-1,1.354576275E0
1.626878238E1,-1.323847046E0,-1.193019104E-1,1.447489929E-1,1.337070012E0
1.627871538E1,-1.281784515E0,-1.097218323E-1,2.080673218E-2,1.286640332E0
1.628864838E1,-1.127904510E0,-1.398092651E-1,-1.143621826E-1,1.142275765E0
1.629858237E1,-4.355941772E-2,-8.173004150E-2,-2.760260010E-1,2.911487176E-1
1.630851537E1,7.099736023E-1,-1.387614441E-1,-2.664459229E-1,7.709154844E-1
1.631844838E1,1.082997894E0,-2.851570129E-1,-2.592608643E-1,1.149528232E0
