"Time (s)","Acceleration x (m/s^2)","Acceleration y (m/s^2)","Acceleration z (m/s^2)","Absolute acceleration (m/s^2)"
9.342083358E-4,-2.284848633E0,3.883524170E0,7.982300720E0,9.166210670E0
1.086720834E-2,-2.105521545E0,3.520678711E0,7.496411133E0,8.545442027E0
2.080116667E-2,-1.718576202E0,3.333418121E0,7.233408051E0,8.147844657E0
3.073416667E-2,-1.444645844E0,3.366499329E0,7.214547272E0,8.091354131E0
4.066716666E-2,-1.297651520E0,3.454067230E0,7.317533112E0,8.195167523E0
5.060116667E-2,-1.122515717E0,3.437601471E0,7.476801910E0,8.305402592E0
6.053416667E-2,-1.116079102E0,3.242856445E0,7.619305573E0,8.355571069E0
7.046716667E-2,-1.084045715E0,2.893782349E0,7.635471954E0,8.237084640E0
8.040116667E-2,-9.035211182E-1,2.316582642E0,7.054230652E0,7.479644085E0
9.033416667E-2,-3.144960022E-1,1.538650360E0,6.729555817E0,6.910374386E0
1.002671667E-1,1.202000427E-1,6.676116943E-1,6.402186584E0,6.438023492E0
1.102011667E-1,7.563771057E-1,-1.071771240E-1,6.240522766E0,6.287107257E0
1.201341667E-1,1.549278259E0,-1.136736145E0,6.537804565E0,6.814346684E0
1.300671667E-1,1.933828583E0,-2.230661316E0,6.854695587E0,7.463403680E0
1.400011667E-1,1.800605621E0,-3.240162048E0,6.758296051E0,7.708138311E0
1.499341667E-1,1.574875031E0,-4.138294373E0,6.413113861E0,7.793185553E0
1.598671667E-1,1.098565521E0,-4.907395020E0,6.227948914E0,8.004793548E0
1.698011667E-1,8.584648132E-1,-5.364095306E0,6.691534882E0,8.618997585E0
1.797341667E-1,1.588197327E0,-5.807323608E0,7.993527374E0,1.000719032E1
1.896671667E-1,1.323397980E0,-5.272336121E0,1.096978821E1,1.224275964E1
1.996011667E-1,9.377998352E-1,-5.207670593E0,1.286335052E1,1.390917281E1
2.095341667E-1,1.880090332E-1,-5.298980713E0,1.310659470E1,1.413850659E1
2.194671667E-1,-1.385818176E0,-5.096302185E0,1.175625275E1,1.288806683E1
2.294011667E-1,-3.508104858E0,-4.604874115E0,1.048629364E1,1.197806410E1
2.393341667E-1,-4.580923920E0,-4.406087494E0,9.817783813E0,1.169561242E1
2.492671667E-1,-4.116739197E0,-4.860841827E0,9.430838470E0,1.138051137E1
2.592011667E-1,-3.505410461E0,-5.584886169E0,9.135203247E0,1.126635675E1
2.691341667E-1,-3.930376740E0,-5.930367737E0,8.689729614E0,1.123069560E1
2.790671667E-1,-5.228028259E0,-6.041436768E0,8.694220276E0,1.180765446E1
2.890011667E-1,-6.111790466E0,-6.193221130E0,9.260642395E0,1.270706371E1
2.989341667E-1,-6.999594269E0,-6.276448059E0,9.857900391E0,1.362227295E1
3.088671667E-1,-6.844816132E0,-6.005960541E0,1.003932312E1,1.355400600E1
3.188011667E-1,-6.337221680E0,-5.279371490E0,1.035576508E1,1.323910919E1
3.287341667E-1,-5.879024506E0,-4.870571594E0,1.095556778E1,1.335327159E1
3.386671667E-1,-5.539979553E0,-4.883744202E0,1.192884384E1,1.402995532E1
3.486011667E-1,-5.552553406E0,-4.380041656E0,1.212403793E1,1.403595063E1
3.585341667E-1,-5.595663757E0,-3.809577942E0,1.254990234E1,1.425918602E1
3.684671667E-1,-5.374274139E0,-3.384911041E0,1.334310287E1,1.477764662E1
3.784011667E-1,-5.514532471E0,-2.630928955E0,1.377390701E1,1.506825703E1
3.883341667E-1,-5.851032715E0,-1.971250763E0,1.407657761E1,1.537109139E1
3.982671667E-1,-6.193221130E0,-1.337618408E0,1.431637894E1,1.565579499E1
4.082011667E-1,-6.146218872E0,-9.475296021E-1,1.432790497E1,1.561930471E1
4.181341667E-1,-5.647755432E0,-1.063388672E0,1.392988266E1,1.506882769E1
4.280671667E-1,-5.203030243E0,-1.426533508E0,1.359113708E1,1.462277432E1
4.380011667E-1,-3.904929657E0,-1.707648926E0,1.424018738E1,1.486430210E1
4.479341667E-1,-3.976630554E0,-1.665885773E0,1.315853668E1,1.384687162E1
4.578671667E-1,-4.246219940E0,-9.409432983E-1,1.202479431E1,1.278715904E1
4.678011667E-1,-4.335733795E0,-6.319857788E-1,1.154489227E1,1.234838172E1
4.777341667E-1,-3.310366058E0,-1.341061249E0,1.184187469E1,1.236878996E1
4.876671667E-1,-7.107220459E-1,-2.245330811E0,1.291708878E1,1.313003499E1
4.976011667E-1,-1.393152924E0,-1.702709198E0,1.368963226E1,1.386528489E1
5.075341667E-1,-3.497177582E0,-1.511706390E0,1.294612839E1,1.349510087E1
5.174671667E-1,-6.123166809E0,-2.347268829E0,1.251532425E1,1.412926692E1
5.274011667E-1,-5.472469940E0,-3.158731384E0,9.722432098E0,1.159530927E1
5.373341667E-1,-4.060905304E0,-4.634063416E0,6.636000366E0,9.055495375E0
5.472671667E-1,-5.366340637E0,-5.567522278E0,4.967270508E0,9.190685091E0
5.572011667E-1,-6.104904785E0,-5.236859894E0,4.727319489E0,9.329636302E0
5.671341667E-1,-5.253175964E0,-4.897066498E0,4.174818420E0,8.306998666E0
5.770671667E-1,-3.633993073E0,-4.461771698E0,3.740421753E0,6.863240286E0
5.870011667E-1,-3.680546265E0,-4.575535126E0,3.881727905E0,7.039158616E0
5.969341667E-1,-4.950655060E0,-5.610033875E0,1.907932434E0,7.721507092E0
6.068671667E-1,-7.092550964E0,-6.444997559E0,2.183958435E-1,9.585925592E0
6.168011667E-1,-7.907156982E0,-5.617069244E0,-3.239263916E-1,9.704613684E0
6.267341667E-1,-6.530918884E0,-4.812342682E0,1.873204651E0,8.325889696E0
6.366671667E-1,-3.070415039E0,-4.271367645E0,4.604125671E0,6.990708353E0
6.466011667E-1,-3.379073181E0,-5.961952057E0,4.859195251E0,8.400880096E0
6.565341667E-1,-2.107467499E0,-2.496358795E0,6.472839661E0,7.250577892E0
6.664671667E-1,-2.489173737E0,-2.660866699E0,4.924758911E0,6.126128289E0
6.764011667E-1,-3.933669891E0,-4.514013062E0,3.635190582E0,7.004618712E0
6.863341667E-1,-4.595593414E0,-6.345753937E0,4.599934387E0,9.085563726E0
6.962671667E-1,-6.705006866E0,-8.445138245E0,4.770130463E0,1.179116710E1
7.062001667E-1,-9.523046722E0,-9.909542999E0,4.195325775E0,1.436969797E1
7.161341667E-1,-1.124805954E1,-1.050964508E1,6.079757080E0,1.655097971E1
7.260671667E-1,-1.102173019E1,-8.943601685E0,6.498436432E0,1.561077268E1
7.360001667E-1,-8.182733917E0,-6.235283661E0,6.763535156E0,1.231183595E1
7.459341667E-1,-4.928950195E0,-4.310885468E0,6.738686829E0,9.396179208E0
7.558671667E-1,-4.009861450E0,-3.542982330E0,6.389163666E0,8.333854150E0
7.658001667E-1,-3.685336304E0,-2.924618225E0,5.573060760E0,7.293428664E0
7.757341667E-1,-2.933749237E0,-2.765499115E0,5.266498260E0,6.632561637E0
7.856671667E-1,-2.968926086E0,-2.474803619E0,4.869224396E0,6.216793488E0
7.956001667E-1,-1.398242340E0,-1.527423706E0,3.990252228E0,4.495577567E0
8.055341667E-1,-1.977687378E0,-1.947749634E0,5.381608887E0,6.055302652E0
8.154671667E-1,-3.774401093E0,-2.878963165E0,4.401746521E0,6.473785983E0
8.254001667E-1,-4.606221313E0,-3.473377075E0,3.741619263E0,6.876142654E0
8.353341667E-1,-5.494474182E0,-4.254153442E0,3.921545105E0,7.979071629E0
8.452671667E-1,-4.947810974E0,-5.261708221E0,4.792134705E0,8.667811827E0
8.552001667E-1,-4.478536835E0,-8.098608856E0,7.904612274E0,1.217077043E1
8.651341667E-1,-8.096064148E0,-1.209948898E1,8.012837219E0,1.661774499E1
8.750671667E-1,-1.415815796E1,-1.332394272E1,3.312012634E0,1.972182329E1
8.850001667E-1,-1.782702850E1,-1.267818558E1,1.522783356E0,2.192847929E1
8.949341667E-1,-1.857607086E1,-1.341345657E1,1.321601715E0,2.295077029E1
9.048671667E-1,-1.611533798E1,-1.346135696E1,1.077309723E0,2.102552843E1
9.148001667E-1,-1.299822006E1,-1.247490829E1,1.602866821E0,1.808718452E1
9.247341667E-1,-1.125883713E1,-1.150253036E1,2.697989502E0,1.632019502E1
9.346671667E-1,-1.055679703E1,-1.079450272E1,2.917582855E0,1.537789134E1
9.446001667E-1,-1.090856552E1,-1.100152222E1,3.257825317E0,1.583173138E1
9.545341667E-1,-1.127350662E1,-1.063598236E1,3.639681244E0,1.592053240E1
9.644671667E-1,-9.223070526E0,-7.915838928E0,3.297343140E0,1.259357009E1
9.744001667E-1,-7.706873474E0,-4.031865692E0,4.351750488E0,9.725717044E0
9.843341667E-1,-3.359913025E0,-1.219963074E-1,5.804928589E0,6.708285515E0
9.942671667E-1,6.512956238E-1,2.495760040E0,6.591093750E0,7.077818943E0
1.004200167E0,3.591930542E0,3.699556732E0,5.124144287E0,7.269493772E0
1.014134167E0,2.954705658E0,1.488504639E0,3.637136536E0,4.916776766E0
1.024066583E0,2.673739929E0,-1.116228790E0,2.272125092E0,3.682038071E0
1.033999583E0,2.712509308E0,-2.353256378E0,1.464105377E0,3.878031315E0
1.043933583E0,8.937913513E-1,-1.853894806E0,1.527573395E0,2.563058604E0
1.053866583E0,4.644841003E-1,-1.969454498E0,1.481918335E0,2.508102560E0
1.063799583E0,4.983137512E-1,-1.971699829E0,1.821112976E0,2.729902797E0
1.073733583E0,3.806584167E-1,-1.490600281E0,2.127076721E0,2.625118170E0
1.083666583E0,1.106199646E-1,-1.918410645E0,2.368973694E0,3.050339742E0
1.093599583E0,1.553469543E0,-4.465214539E0,4.269571381E0,6.370294206E0
1.103533583E0,8.527766418E-1,-1.087234085E1,9.622889099E0,1.454424347E1
1.113466583E0,-4.690346375E0,-1.543664932E1,6.456074524E0,1.737729523E1
1.123399583E0,-7.118596802E0,-1.760548920E1,3.528163147E-1,1.899347650E1
1.133333583E0,-5.359754333E0,-1.903651337E1,-1.218466187E0,1.981414817E1
1.143266583E0,-5.293142853E0,-1.867980515E1,2.248025208E0,1.954497631E1
1.153199583E0,-1.068957092E1,-1.529878601E1,6.096522217E0,1.963383210E1
1.163133583E0,-1.478340775E1,-1.155073013E1,6.400689697E0,1.982264714E1
1.173066583E0,-1.390323807E1,-1.203871536E1,4.863985291E0,1.902338165E1
1.182999583E0,-1.409693527E1,-1.346929047E1,3.887565765E0,1.988111006E1
1.192933583E0,-1.002016296E1,-1.236997650E1,4.329746246E0,1.649747517E1
1.202866583E0,-6.949149170E0,-1.060394897E1,1.889071655E0,1.281807317E1
1.212799583E0,-7.314090271E0,-8.885522461E0,1.673519897E-1,1.150984068E1
1.222733583E0,-8.119265900E0,-7.981552277E0,1.069675598E0,1.143555252E1
1.232666583E0,-9.776619415E0,-7.645501099E0,2.660267944E0,1.269302957E1
1.242599583E0,-1.084869003E1,-7.977211304E0,3.831881561E0,1.400047470E1
1.252533583E0,-1.123997635E1,-7.658524017E0,4.154161377E0,1.422136123E1
1.262466583E0,-1.112396759E1,-6.950646057E0,4.346960449E0,1.381847317E1
1.272399583E0,-1.088371719E1,-6.350693665E0,3.911665649E0,1.319423124E1
1.282333583E0,-1.045021866E1,-6.056555328E0,3.303330688E0,1.252201765E1
1.292266583E0,-1.065843567E1,-6.647526398E0,3.433260498E0,1.302225540E1
1.302199583E0,-7.306156769E0,-9.888137512E0,2.880909119E0,1.262754242E1
1.312133583E0,-2.329904938E0,-1.055110886E1,2.433190155E0,1.107586428E1
1.322066583E0,9.276210022E-1,-1.128787674E1,3.134481812E0,1.175166449E1
1.331999583E0,5.078339539E0,-1.077908478E1,9.943821716E-1,1.195688074E1
1.341933583E0,7.824379120E0,-8.807235260E0,-7.460485840E-1,1.180444366E1
1.351866583E0,9.174122314E0,-7.633975067E0,-1.293160858E0,1.200476408E1
1.361799583E0,7.843838654E0,-8.311765594E0,-5.604345703E-1,1.144226110E1
1.371733583E0,5.354066162E0,-8.545729065E0,1.707499237E0,1.022795499E1
1.381666583E0,2.513722687E0,-9.091494141E0,3.551364899E0,1.007900095E1
1.391599583E0,-1.251397705E-1,-9.101822662E0,4.079317017E0,9.974951782E0
1.401533583E0,-2.048939209E0,-7.913443909E0,3.812571716E0,9.019781010E0
1.411466583E0,-5.013973389E0,-6.756499786E0,4.507875824E0,9.545216758E0
1.421399583E0,-6.686744843E0,-7.205116882E0,2.912343750E0,1.025221986E1
1.431333583E0,-4.962929535E0,-6.987619171E0,6.580316162E-1,8.595958170E0
1.441266583E0,-3.112776947E0,-5.020410004E0,5.119354248E-2,5.907327459E0
1.451199583E0,-3.144361267E0,-3.073857880E0,1.324595490E0,4.592402776E0
1.461133583E0,-2.931952972E0,-2.577340393E0,3.320395203E0,5.124846928E0
1.471066583E0,-2.989732819E0,-4.627926178E0,7.269483032E0,9.121490371E0
1.480999583E0,-5.860014038E0,-8.870852966E0,8.994944916E0,1.392626407E1
1.490933583E0,-9.558972015E0,-1.478909592E1,9.501341858E0,2.000916793E1
1.500866583E0,-7.113806763E0,-1.966939728E1,8.825946350E0,2.270217533E1
1.510799583E0,-7.319928131E0,-1.960443237E1,1.003153931E1,2.320661322E1
1.520733583E0,-7.424859924E0,-1.708277618E1,1.007494904E1,2.117674161E1
1.530666583E0,-5.287304993E0,-1.218256622E1,8.812773743E0,1.593849099E1
1.540599583E0,-2.714754639E0,-8.394094391E0,6.743027802E0,1.110401447E1
1.550532583E0,-1.594334564E0,-7.321574707E0,5.243595886E0,9.145635938E0
1.560466583E0,-2.708767090E0,-7.951165466E0,2.355052643E0,8.723802174E0
1.570399583E0,-2.827919312E0,-1.031909134E1,-2.779569855E0,1.105471765E1
1.580332583E0,-3.263214111E-1,-1.082249451E1,-5.866899719E0,1.231476290E1
1.590266583E0,1.219514008E0,-8.636440430E0,-5.601351929E0,1.036583143E1
1.600199583E0,3.836372223E0,-7.820936279E0,-5.902825012E0,1.052274390E1
1.610132583E0,4.523742828E0,-1.053913376E1,-3.931574249E0,1.212414391E1
1.620066583E0,1.748513947E0,-1.367945343E1,6.554869080E-1,1.380631777E1
1.629999583E0,-1.568139038E0,-1.257340347E1,3.997736664E0,1.328651321E1
1.639932583E0,-6.446195068E0,-9.692644043E0,7.613617401E0,1.390927566E1
1.649866583E0,-8.289461975E0,-9.235794067E0,5.508544922E0,1.357789155E1
1.659799583E0,-8.494984589E0,-1.071217392E1,2.949017487E0,1.398614090E1
1.669732583E0,-7.658224640E0,-1.194426178E1,1.036145325E0,1.422629225E1
1.679666583E0,-1.820214844E0,-1.182870209E1,-2.667303314E0,1.226156116E1
1.689599583E0,-3.052452393E0,-1.183139648E1,-6.831044769E0,1.399866354E1
1.699532583E0,7.590715027E-1,-1.046698380E1,-7.017107849E0,1.262433134E1
1.709466583E0,1.695973206E0,-9.729617157E0,-2.963537292E0,1.031136889E1
1.719399583E0,2.687511292E0,-9.024283905E0,-6.864724731E-1,9.440956593E0
1.729332583E0,3.015030212E0,-7.714956665E0,6.119274902E-1,8.305746130E0
1.739266583E0,3.473377075E0,-6.264023895E0,2.633773041E0,7.631454914E0
1.749199583E0,4.164340210E0,-5.264552307E0,4.293521576E0,7.968159631E0
1.759132583E0,4.352648621E0,-5.528154144E0,4.345912628E0,8.270005733E0
1.769066583E0,4.289180603E0,-6.629863129E0,4.660857697E0,9.169282950E0
1.778999583E0,3.985162811E0,-7.475754089E0,5.174140320E0,9.926739137E0
1.788932583E0,3.817960510E0,-8.135282593E0,5.866899719E0,1.073220190E1
1.798866583E0,3.728746033E0,-9.868079224E0,6.422693939E0,1.235044663E1
1.808799583E0,3.018772430E0,-1.150028503E1,7.247628479E0,1.392471405E1
1.818732583E0,1.224902802E0,-1.214155151E1,7.694598999E0,1.442652119E1
1.828666583E0,-1.636097717E-1,-1.242356506E1,6.967860260E0,1.424509788E1
1.838599583E0,-1.584604797E0,-1.297456924E1,6.402036896E0,1.455460394E1
1.848532583E0,-3.134930878E0,-1.366882553E1,5.735173645E0,1.515113196E1
1.858466583E0,-4.195625153E0,-1.396401169E1,4.977898407E0,1.540702325E1
1.868399583E0,-4.254901886E0,-1.312725174E1,3.689677277E0,1.428434971E1
1.878332583E0,-2.224673767E0,-1.199814972E1,1.834584961E0,1.233979222E1
1.888266583E0,-7.834707642E-1,-1.111753098E1,8.159532166E-1,1.117493182E1
1.898199583E0,-3.805087280E-1,-1.100271973E1,1.142424316E0,1.106841279E1
1.908132583E0,-3.029699707E-1,-1.106753494E1,1.440454559E0,1.116499126E1
1.918066583E0,-5.054988098E-1,-1.073836945E1,1.371448059E0,1.083738793E1
1.927999583E0,-9.187893677E-1,-1.009111542E1,1.204096069E0,1.020414777E1
1.937932583E0,-1.368603973E0,-9.370064850E0,1.017733612E0,9.524020886E0
1.947866583E0,-1.864971771E0,-9.069639587E0,8.256829834E-1,9.296140831E0
1.957799583E0,-2.384391632E0,-8.638835449E0,6.833290100E-1,8.987866260E0
1.967732583E0,-2.864593048E0,-8.174351349E0,6.658154297E-1,8.687302429E0
1.977666583E0,-3.133134613E0,-7.805218964E0,9.994715881E-1,8.469764993E0
1.987599583E0,-3.515140228E0,-7.611970825E0,1.067879333E0,8.452140376E0
1.997532583E0,-4.462669830E0,-7.688012695E0,6.135740662E-1,8.910523798E0
2.007466583E0,-4.514462128E0,-7.533533936E0,1.487456818E0,8.907694968E0
2.017399583E0,-4.176015930E0,-8.091723175E0,2.134710846E0,9.352651142E0
2.027332667E0,-3.327131195E0,-8.339158630E0,3.019520874E0,9.472532658E0
2.037265667E0,-2.458936615E0,-9.196725311E0,4.289929047E0,1.044172481E1
2.047199667E0,-2.906655579E0,-1.021206390E1,4.480632477E0,1.152436390E1
2.057132667E0,-3.116668854E0,-9.971813507E0,4.531526642E0,1.138795078E1
2.067065667E0,-2.104623413E0,-8.740923157E0,4.709955597E0,1.014972212E1
2.076999667E0,-4.255650330E-1,-8.646469574E0,5.025349731E0,1.000982925E1
2.086932667E0,1.042432251E0,-8.886869659E0,5.231171722E0,1.036476121E1
2.096865667E0,9.363029480E-1,-9.368867340E0,4.788392487E0,1.056319275E1
2.106799667E0,3.674858093E-1,-9.964778137E0,4.429588623E0,1.091114588E1
2.116732667E0,-4.008663940E-1,-1.017509079E1,4.147425385E0,1.099519458E1
2.126665667E0,-9.014254761E-1,-1.025337799E1,3.700903931E0,1.093805367E1
2.136599667E0,-1.238225098E0,-9.942175140E0,3.259022827E0,1.053571439E1
2.146532667E0,-1.430425415E0,-9.384135590E0,2.853665771E0,9.912190775E0
2.156465667E0,-1.389111328E0,-9.249116364E0,2.401306458E0,9.656192650E0
2.166399667E0,-1.260379028E0,-9.729317780E0,2.122136993E0,1.003751190E1
2.176332667E0,-1.103804626E0,-9.862391052E0,2.276615753E0,1.018175433E1
2.186265667E0,-2.787203979E-1,-9.345515900E0,2.348765717E0,9.640179090E0
2.196199667E0,-2.417472839E-1,-8.988957367E0,2.446362762E0,9.319038956E0
2.206132667E0,-9.746232605E-1,-9.329648895E0,2.611768799E0,9.737226261E0
2.216065667E0,-1.491797791E0,-9.092242584E0,2.819237366E0,9.635477943E0
2.225999667E0,-1.868264923E0,-9.706415405E0,3.274889832E0,1.041296390E1
2.235932667E0,-1.488804016E0,-9.710606689E0,3.537743225E0,1.044164962E1
2.245865667E0,-8.640032959E-1,-9.620943146E0,3.550167389E0,1.029139141E1
2.255799667E0,-4.269122314E-1,-8.738977203E0,3.274740143E0,9.342157118E0
2.265732667E0,4.195774841E-1,-7.872728577E0,3.038830719E0,8.449283558E0
2.275665667E0,9.072633362E-1,-6.817572784E0,2.928959198E0,7.475374734E0
2.285599667E0,1.101259918E0,-6.495143280E0,3.251239014E0,7.346442320E0
2.295532667E0,6.586303711E-2,-7.363936615E0,3.593277740E0,8.194116507E0
2.305465667E0,-8.343649292E-1,-8.660690002E0,4.241130524E0,9.679406194E0
2.315399667E0,-1.430874481E0,-8.829838257E0,4.753964081E0,1.012983810E1
2.325332667E0,-1.348994751E0,-8.809929657E0,4.999004517E0,1.021884013E1
2.335265667E0,-1.683249664E0,-8.112380219E0,4.021537170E0,9.209603871E0
2.345199667E0,-3.117716675E0,-7.906109161E0,3.344644775E0,9.133091919E0
2.355132667E0,-2.052531738E0,-7.626790009E0,2.879112854E0,8.406551207E0
2.365065667E0,-9.379495239E-1,-8.015531616E0,3.175197144E0,8.672391441E0
2.374999667E0,-9.357041931E-1,-8.492439880E0,3.247197418E0,9.140096746E0
2.384932667E0,-1.374741211E0,-9.415270844E0,3.247047729E0,1.005388270E1
2.394865667E0,-2.834206238E0,-1.026430527E1,3.428620148E0,1.118678344E1
2.404799667E0,-3.514242096E0,-1.038570282E1,3.144361267E0,1.140612679E1
2.414732667E0,-4.326602783E0,-1.020877075E1,2.885399780E0,1.145705127E1
2.424665667E0,-4.507576447E0,-9.511071625E0,2.503992920E0,1.081890519E1
2.434598667E0,-4.283791809E0,-1.019050873E1,2.559377747E0,1.134670678E1
2.444532667E0,-3.672163696E0,-1.037492523E1,2.100282440E0,1.120424233E1
2.454465667E0,-2.619402924E0,-1.079165863E1,1.704505463E0,1.123505703E1
2.464398667E0,-1.975442047E0,-1.129655869E1,1.755100250E0,1.160150793E1
2.474332667E0,-2.044897614E0,-1.144490021E1,2.190544739E0,1.183071567E1
2.484265667E0,-2.314936066E0,-1.121482864E1,2.507884827E0,1.172266168E1
2.494198667E0,-2.675087128E0,-1.142364441E1,2.623594208E0,1.202243691E1
2.504132667E0,-2.270478516E0,-1.162886765E1,2.571352844E0,1.212425218E1
2.514065667E0,-2.232756958E0,-1.201431610E1,2.491718445E0,1.247147368E1
2.523998667E0,-2.430795135E0,-1.266980301E1,2.565514984E0,1.315349917E1
2.533932667E0,-1.816173248E0,-1.321452026E1,2.856509857E0,1.364117589E1
2.543865667E0,-5.453160095E-1,-1.336510712E1,3.209775238E0,1.375594834E1
2.553798667E0,1.167122955E0,-1.351404739E1,4.078269196E0,1.416417779E1
2.563732667E0,1.937870178E0,-1.285212387E1,4.640649719E0,1.380101658E1
2.573665667E0,1.458267517E0,-1.095916031E1,4.508324890E0,1.193962864E1
2.583598667E0,-7.867639160E-1,-9.051227875E0,4.224664764E0,1.001955667E1
2.593532667E0,-3.341351624E0,-8.633895721E0,4.089046783E0,1.012072574E1
2.603465667E0,-1.708996124E0,-9.440418549E0,4.024381256E0,1.040374041E1
2.613398667E0,-1.455872498E0,-8.695567474E0,4.239933014E0,9.783122732E0
2.623332667E0,-1.950893097E0,-6.478527832E0,4.065246277E0,7.893258772E0
2.633265667E0,-2.577639771E0,-3.133883057E0,3.455713806E0,5.329860008E0
2.643198667E0,-1.798060913E0,2.185455322E-2,2.142943726E0,2.797446779E0
2.653132667E0,-2.026186523E0,8.756790161E-1,1.474134521E0,2.654301821E0
2.663065667E0,-2.608625336E0,1.361418915E0,2.947370911E-1,2.957238164E0
2.672998667E0,-3.369193726E0,1.369801483E0,-1.530267792E0,3.945825893E0
2.682932667E0,-4.092489624E0,1.420545959E-1,-3.307971039E0,5.264154559E0
2.692865667E0,-2.868634644E0,-2.914738770E0,-4.349654846E0,5.970281743E0
2.702798667E0,-1.547931061E0,-6.055357819E0,-4.914430389E0,7.950790837E0
2.712732667E0,-2.084116058E0,-9.455686798E0,-2.901416473E0,1.010800525E1
2.722665667E0,-2.742596741E0,-1.294777496E1,2.926414490E-1,1.323829114E1
2.732598667E0,-2.839894409E0,-1.580967361E1,1.893712006E0,1.617395824E1
2.742532667E0,-1.189276886E0,-1.658536057E1,1.795815582E0,1.672463806E1
2.752465667E0,9.409432983E-1,-1.556987228E1,1.946402435E0,1.571924870E1
2.762398667E0,2.001787262E0,-1.360835129E1,2.011666718E0,1.390112154E1
2.772332667E0,2.561922455E0,-1.138622223E1,2.213896179E0,1.187900836E1
2.782265667E0,2.503843231E0,-9.871222687E0,2.688858490E0,1.053281673E1
2.792198667E0,2.434088287E0,-8.861422577E0,3.285068665E0,9.759163489E0
2.802131667E0,2.369722137E0,-8.607999573E0,4.369713135E0,9.940202842E0
2.812065667E0,1.596280518E0,-8.297545166E0,5.094356232E0,9.866601882E0
2.821998667E0,1.155447235E0,-7.808811493E0,3.854634247E0,8.784691254E0
2.831931667E0,1.417252808E0,-7.922425232E0,2.840942230E0,8.534891905E0
2.841865667E0,1.107696533E0,-8.401728516E0,2.412832489E0,8.811231144E0
2.851798667E0,7.110214233E-1,-9.318571930E0,1.895059204E0,9.535857783E0
2.861731667E0,1.249900818E-1,-9.740843811E0,1.299597473E0,9.827950664E0
2.871665667E0,-8.327183533E-1,-9.753417664E0,6.062393188E-1,9.807655280E0
2.881598667E0,-7.420069885E-1,-1.109103607E1,2.231858826E-1,1.111806941E1
2.891531667E0,3.480262756E-1,-1.148696274E1,3.055146790E-1,1.149629394E1
2.901465667E0,1.059347076E0,-1.102681961E1,4.490661621E-4,1.107758851E1
2.911398667E0,1.342857513E0,-1.032567764E1,-1.013392639E-1,1.041312416E1
2.921331667E0,1.555415497E0,-9.189689941E0,-7.349716187E-2,9.320682401E0
2.931265667E0,1.446292419E0,-8.099057922E0,-4.628375244E-1,8.240189292E0
2.941198667E0,1.310674438E0,-7.032974854E0,-7.973918152E-1,7.198363459E0
2.951131667E0,1.575773163E0,-6.011349335E0,-7.589218140E-1,6.260618516E0
2.961065667E0,1.425186310E0,-5.332960052E0,-7.361691284E-1,5.568982306E0
2.970998667E0,1.206640778E0,-4.873565369E0,-9.136999512E-1,5.103182239E0
2.980931667E0,9.623487854E-1,-4.372706909E0,-8.770262146E-1,4.562439685E0
2.990865667E0,5.713618469E-1,-4.189038849E0,-8.400531006E-1,4.310474458E0
3.000798667E0,5.499563599E-1,-4.804558868E0,-1.475481720E0,5.056014658E0
3.010731667E0,1.230441284E0,-6.218219147E0,-1.492546234E0,6.512137082E0
3.020665667E0,1.668879547E0,-7.623496857E0,-1.311722260E0,7.913499766E0
3.030599292E0,1.554367676E0,-8.840166779E0,-9.538165283E-1,9.026315611E0
3.040532292E0,1.467548218E0,-1.009605515E1,-5.450166321E-1,1.021670546E1
3.050466292E0,1.210083618E0,-1.134430939E1,-1.447489929E-1,1.140958413E1
3.060399292E0,8.164022827E-1,-1.259900024E1,4.790039063E-2,1.262551442E1
3.070332292E0,6.738986206E-1,-1.412851959E1,-6.436614990E-3,1.414458365E1
3.080266292E0,6.845265198E-1,-1.572480011E1,-1.513352966E-1,1.574041986E1
3.090199292E0,5.459147644E-1,-1.787956924E1,-8.487350464E-2,1.788810283E1
3.100132292E0,3.156935120E-1,-2.068084396E1,5.153782654E-1,2.068967337E1
3.110065292E0,1.544787598E-1,-2.401980057E1,1.327738953E0,2.405696518E1
3.119999292E0,7.247927856E-1,-2.678634750E1,7.559280396E-1,2.680681190E1
3.129932292E0,2.754272461E-2,-2.775588135E1,-4.550537109E-2,2.775593232E1
3.139865292E0,-1.123563538E0,-2.713931351E1,-1.107397156E0,2.718512573E1
3.149799292E0,-9.490264893E-1,-2.649280792E1,-1.930236053E0,2.657997995E1
3.159732292E0,-1.272952881E0,-2.438189758E1,-2.100132751E0,2.450526263E1
3.169665292E0,-1.856289825E0,-1.999497025E1,-1.602417755E0,2.014478567E1
3.179599292E0,-2.054477692E0,-1.652488632E1,-3.161425781E-1,1.665511011E1
3.189532292E0,-1.775158539E0,-1.456635910E1,5.149291992E-2,1.467421742E1
3.199465292E0,-1.631607056E0,-1.325433746E1,1.146615601E-1,1.335487740E1
3.209399292E0,-1.628014526E0,-1.177137131E1,9.505233765E-2,1.188379774E1
3.219332292E0,-1.599723358E0,-1.012898666E1,-3.772155762E-2,1.025460426E1
3.229265292E0,-1.556912384E0,-8.497828674E0,-2.609074402E-1,8.643213583E0
3.239199292E0,-1.444645844E0,-7.031627655E0,-3.038681030E-1,7.184923445E0
3.249132292E0,-1.190324707E0,-5.713917847E0,-3.094065857E-1,5.844780792E0
3.259065292E0,-9.225315857E-1,-4.517904968E0,-3.661386108E-1,4.625644529E0
3.268999292E0,-7.453001404E-1,-3.494483185E0,-5.487588501E-1,3.614971826E0
3.278932292E0,-5.447172546E-1,-2.621947632E0,-6.544390869E-1,2.756740247E0
3.288865292E0,-3.860472107E-1,-1.834584961E0,-6.635700989E-1,1.988733191E0
3.298799292E0,-2.269281006E-1,-1.001267853E0,-6.414161682E-1,1.210557052E0
3.308732292E0,-1.236428833E-1,-2.459385681E-1,-5.379812622E-1,6.043154643E-1
3.318665292E0,-1.481918335E-2,3.927832031E-1,-2.586621094E-1,4.705362257E-1
3.328599292E0,2.047741699E-1,8.890013123E-1,-4.326004028E-2,9.133056580E-1
3.338532292E0,2.927911377E-1,1.195563812E0,5.748046875E-2,1.232235158E0
3.348465292E0,2.770738220E-1,1.325194244E0,2.794688416E-1,1.382393765E0
3.358399292E0,3.505709839E-1,1.351240082E0,4.144880676E-1,1.456210882E0
3.368332292E0,4.773573303E-1,1.335672455E0,4.552033997E-1,1.489664748E0
3.378265292E0,6.459068298E-1,1.284778290E0,5.276527405E-1,1.531753342E0
3.388198292E0,7.887098694E-1,1.196611633E0,4.505630493E-1,1.502314787E0
3.398132292E0,8.638536072E-1,1.161135406E0,4.108955383E-1,1.504431331E0
3.408065292E0,9.360035706E-1,1.072968750E0,3.857478333E-1,1.475183383E0
3.417998292E0,9.895921326E-1,8.643026733E-1,4.095483398E-1,1.376241818E0
3.427932292E0,1.044527893E0,6.503974915E-1,4.543052673E-1,1.311658756E0
3.437865292E0,1.037193146E0,3.141966248E-1,4.682263184E-1,1.180561318E0
3.447798292E0,7.731422424E-1,-2.155517578E-1,5.051994324E-1,9.483870274E-1
3.457732292E0,5.899232483E-1,-7.050338745E-1,5.487588501E-1,1.070615934E0
3.467665292E0,7.750881958E-1,-1.257834320E0,5.340893555E-1,1.571037978E0
3.477598292E0,1.436562653E0,-2.705623627E0,5.260061646E-1,3.108181775E0
3.487532292E0,3.823199615E0,-7.013814697E0,2.791694641E-1,7.993021175E0
3.497465292E0,8.021070099E0,-1.675031754E1,-3.576063538E-1,1.857521428E1
3.507398292E0,7.488477631E0,-3.574491806E1,-3.846850433E0,3.672294545E1
3.517332292E0,2.683918762E0,-4.521557373E1,-5.913303223E0,4.567952148E1
3.527265292E0,4.108206940E0,-4.185431351E1,-4.782704315E0,4.232653050E1
3.537198292E0,4.520898743E0,-4.159669922E1,-5.288652191E0,4.217456287E1
3.547132292E0,3.429967346E0,-3.738221329E1,-5.848937073E0,3.799216513E1
3.557065292E0,2.629132690E0,-2.881118683E1,-2.803969116E0,2.906645950E1
3.566998292E0,1.951042786E0,-2.396576294E1,-9.566606140E-1,2.406407199E1
3.576932292E0,1.545685730E0,-2.165561691E1,-1.387165375E0,2.175497911E1
3.586865292E0,1.270108795E0,-1.982612137E1,-1.172062683E0,1.990130638E1
3.596798292E0,3.855981445E-1,-1.798809357E1,-3.953279114E-1,1.799656857E1
3.606732292E0,1.175056458E-1,-1.573707458E1,2.384541321E-1,1.573931969E1
3.616665292E0,7.638615417E-1,-1.315374664E1,6.189628601E-1,1.319043783E1
3.626598292E0,3.423381042E-1,-1.102906494E1,7.882608032E-1,1.106249628E1
3.636531292E0,-4.599934387E-1,-9.210197296E0,7.595205688E-1,9.252902231E0
3.646465292E0,-6.149212646E-1,-7.417674866E0,6.111790466E-1,7.468170352E0
3.656398292E0,-5.384303284E-1,-5.906118164E0,4.323010254E-1,5.946345362E0
3.666331292E0,-6.430627441E-1,-4.517006836E0,3.357518005E-1,4.574889039E0
3.676265292E0,-9.098080444E-1,-3.357667694E0,3.267704773E-1,3.494060956E0
3.686198292E0,-1.099613342E0,-2.349514160E0,2.293231201E-1,2.604218767E0
3.696131292E0,-9.604028320E-1,-1.461560669E0,1.372645569E-1,1.754244780E0
3.706065292E0,-7.943980408E-1,-6.622229004E-1,7.574249268E-2,1.036988111E0
3.715998292E0,-6.568341064E-1,-8.756790161E-2,8.786727905E-2,6.684458389E-1
3.725931292E0,-4.894821167E-1,3.369493103E-1,1.525328064E-1,6.135094435E-1
3.735865292E0,-3.367996216E-1,6.200106812E-1,2.387535095E-1,7.448828553E-1
3.745798292E0,-1.020877075E-1,8.041278076E-1,3.439846802E-1,8.805503343E-1
3.755731292E0,9.939331055E-2,9.059161377E-1,4.673281860E-1,1.024186854E0
3.765665292E0,2.076182556E-1,9.644444275E-1,5.680686951E-1,1.138402581E0
3.775598292E0,2.820135498E-1,9.966275024E-1,6.956034851E-1,1.247662707E0
3.785531292E0,2.936892700E-1,9.702822876E-1,8.590635681E-1,1.328793181E0
3.795465292E0,2.891986084E-1,9.693841553E-1,9.967771912E-1,1.420178244E0
3.805398292E0,2.263293457E-1,9.928852844E-1,1.112037506E0,1.507870543E0
3.815331292E0,1.645079041E-1,9.590556335E-1,1.224603424E0,1.564130463E0
3.825265292E0,1.124162292E-1,8.815168762E-1,1.305135956E0,1.578951955E0
3.835198292E0,3.532653809E-2,7.426057434E-1,1.349443817E0,1.540684870E0
3.845131292E0,-4.266128540E-2,5.248086548E-1,1.294657745E0,1.397634712E0
3.855065292E0,-8.367599487E-2,1.751358032E-1,1.125509491E0,1.142123389E0
3.864998292E0,-6.526428223E-2,-1.724414062E-1,8.596623230E-1,8.792125879E-1
3.874931292E0,5.987548828E-3,-3.695814514E-1,6.773414612E-1,7.716331739E-1
3.884864292E0,4.805007935E-2,-5.143304443E-1,6.523434448E-1,8.321037111E-1
3.894798292E0,3.062631226E-1,-1.192270660E0,7.677534485E-1,1.450776270E0
3.904731292E0,1.369202728E0,-3.935915222E0,8.605604553E-1,4.255197885E0
3.914664292E0,2.996169434E0,-1.013302826E1,-2.442919922E-1,1.056953034E1
3.924598292E0,3.562142487E0,-2.637245819E1,-3.737278290E0,2.687308429E1
3.934531292E0,1.411265259E0,-4.874478470E1,-9.303902435E0,4.964482154E1
3.944464292E0,2.538571014E0,-4.398797653E1,-5.799240417E0,4.444117023E1
3.954398292E0,3.660937042E0,-4.344745056E1,-6.614594879E0,4.410029802E1
3.964331292E0,1.870809631E0,-4.044649109E1,-6.422394562E0,4.099592324E1
3.974264292E0,3.074606323E0,-3.204581039E1,-3.541635132E0,3.238719419E1
3.984198292E0,5.625451813E0,-2.565799393E1,-3.031495972E0,2.644179132E1
3.994131292E0,6.387666779E0,-2.341146561E1,-2.665956116E0,2.441324089E1
4.004064292E0,4.499193878E0,-2.248683838E1,-1.982327728E0,2.301804225E1
4.013998292E0,2.822380829E0,-2.141222305E1,-1.694176941E0,2.166378003E1
4.023931167E0,2.445165253E0,-1.956775864E1,-1.482666779E0,1.977559890E1
4.033864167E0,2.236948242E0,-1.697095871E1,-1.230291595E0,1.716190532E1
4.043798167E0,2.145338745E0,-1.418555099E1,-9.220825195E-1,1.437645894E1
4.053731167E0,1.803150330E0,-1.186357956E1,-7.011419678E-1,1.202029414E1
4.063664167E0,1.421593781E0,-9.823471985E0,-7.566764832E-1,9.954601449E0
4.073598167E0,1.294058990E0,-7.900420990E0,-9.210346985E-1,8.058507641E0
4.083531167E0,1.084345093E0,-6.124663696E0,-6.307882690E-1,6.251816017E0
4.093464167E0,-9.834548950E-2,-4.777165833E0,-4.150868225E-1,4.796173714E0
4.103398167E0,-6.752458191E-1,-3.531456299E0,-5.472619629E-1,3.636844259E0
4.113331167E0,-7.732919312E-1,-2.406994629E0,-5.593867493E-1,2.589308226E0
4.123264167E0,-7.577243042E-1,-1.444346466E0,-2.709365845E-1,1.653387271E0
4.133197167E0,-6.951544189E-1,-5.173242188E-1,5.987548828E-3,8.665447849E-1
4.143131167E0,-4.951702881E-1,2.426454163E-1,2.227368164E-1,5.947117803E-1
4.153064167E0,-2.887495422E-1,7.084767151E-1,4.195774841E-1,8.725599230E-1
4.162997167E0,-8.098159790E-2,9.369017029E-1,5.501060486E-1,1.089476702E0
4.172931167E0,1.796264648E-2,1.004111938E0,5.668711853E-1,1.153215670E0
4.182864167E0,2.664459229E-2,1.078656921E0,5.511538696E-1,1.211602772E0
4.192797167E0,-1.242416382E-2,1.157542877E0,5.251080322E-1,1.271140558E0
4.202731167E0,-8.008346558E-2,1.254840546E0,5.270539856E-1,1.363386981E0
4.212664167E0,-1.267863464E-1,1.342857513E0,5.394781494E-1,1.452713927E0
4.222597167E0,-1.631607056E-1,1.410516815E0,5.737568665E-1,1.531462061E0
4.232531167E0,-2.137554932E-1,1.429676971E0,5.402265930E-1,1.543214964E0
4.242464167E0,-2.561174011E-1,1.469344482E0,4.501139832E-1,1.557938359E0
4.252397167E0,-2.522254944E-1,1.509311371E0,3.995191956E-1,1.581535362E0
4.262331167E0,-2.809657288E-1,1.522334290E0,4.508624268E-1,1.612364834E0
4.272264167E0,-2.586621094E-1,1.550176392E0,5.053491211E-1,1.650857555E0
4.282197167E0,-1.564247131E-1,1.532812500E0,5.857319641E-1,1.648352142E0
4.292131167E0,3.517684937E-2,1.401385803E0,6.340814209E-1,1.538563885E0
4.302064167E0,3.585044861E-1,9.551637268E-1,6.265969849E-1,1.197283172E0
4.311997167E0,3.752696228E-1,2.514770508E-1,6.102809143E-1,7.592830771E-1
4.321931167E0,2.145039368E-1,-2.222877502E-1,6.968009949E-1,7.622043094E-1
4.331864167E0,1.646575928E-1,-4.559518433E-1,7.637118530E-1,9.045772497E-1
4.341797167E0,1.196012878E-1,-5.536985779E-1,8.146060181E-1,9.922043882E-1
4.351731167E0,4.785548401E-1,-1.575922852E0,1.040186920E0,1.947956981E0
4.361664167E0,3.279081116E0,-7.731871490E0,1.372346191E0,8.509849809E0
4.371597167E0,6.959477692E0,-3.266896454E1,-2.517464905E0,3.349676407E1
4.381530167E0,-1.548829193E0,-6.767936005E1,-1.300809952E1,6.893551553E1
4.391464167E0,-2.485132141E0,-5.084237274E1,-8.728049927E0,5.164592533E1
4.401397167E0,2.298170929E0,-4.773693054E1,-7.595355377E0,4.839199883E1
4.411330167E0,1.002016296E0,-3.696727615E1,-3.464844818E0,3.714281482E1
4.421264167E0,1.137783966E0,-2.610526382E1,1.272054749E0,2.616099148E1
4.431197167E0,5.287304993E0,-2.370186172E1,4.269122314E-1,2.428818843E1
4.441130167E0,7.264094238E0,-2.291135559E1,-2.267933807E0,2.414209610E1
4.451064167E0,6.340365143E0,-2.188973007E1,-2.170486450E0,2.289260851E1
4.460997167E0,4.426594849E0,-2.006188110E1,-4.358935547E-1,2.054905882E1
4.470930167E0,4.088897095E0,-1.799093765E1,7.089257812E-1,1.846335541E1
4.480864167E0,3.925586700E0,-1.588466766E1,1.318458252E0,1.641557888E1
4.490797167E0,3.240910492E0,-1.358859238E1,1.616338806E0,1.406292625E1
4.500730167E0,2.490820312E0,-1.133951935E1,1.486109619E0,1.170458913E1
4.510664167E0,1.710343323E0,-9.154213715E0,8.530760193E-1,9.351611717E0
4.520597167E0,1.077908478E0,-7.262896729E0,3.052153015E-1,7.348789829E0
4.530530167E0,5.114863586E-1,-5.770949249E0,-2.186952209E-1,5.797697917E0
4.540464167E0,1.703457642E-1,-4.438270569E0,-6.620732117E-1,4.490612905E0
4.550397167E0,-6.002517700E-2,-3.352578278E0,-7.586224365E-1,3.437861564E0
4.560330167E0,-2.125579834E-1,-2.371668091E0,-7.235952759E-1,2.488690530E0
4.570263167E0,-3.109034729E-1,-1.440304871E0,-5.490582275E-1,1.572451598E0
4.580197167E0,-5.243595886E-1,-6.706054688E-1,-3.224295044E-1,9.102886675E-1
4.590130167E0,-5.712121582E-1,-3.517684937E-2,-1.137634277E-2,5.724073389E-1
4.600063167E0,-4.572990417E-1,5.117857361E-1,2.721340942E-1,7.383115999E-1
4.609997167E0,-3.171903992E-1,8.132588196E-1,4.221221924E-1,9.696323026E-1
4.619930167E0,-3.137475586E-1,9.767189026E-1,5.084925842E-1,1.144981246E0
4.629863167E0,-3.775149536E-1,1.186283112E0,5.516029358E-1,1.361635399E0
4.639797167E0,-4.375401306E-1,1.342258759E0,6.065386963E-1,1.536551051E0
4.649730167E0,-4.266128540E-1,1.474882965E0,6.912625122E-1,1.683782097E0
4.659663167E0,-4.183799744E-1,1.625020752E0,6.441105652E-1,1.797390516E0
4.669597167E0,-4.022135925E-1,1.720222778E0,5.640270996E-1,1.854472634E0
4.679530167E0,-4.376898193E-1,1.792672119E0,5.227130127E-1,1.917934983E0
4.689463167E0,-5.423222351E-1,1.884730682E0,5.077441406E-1,2.025864572E0
4.699397167E0,-5.980064392E-1,1.938618622E0,5.466632080E-1,2.101117447E0
4.709330167E0,-6.212081909E-1,1.938468933E0,5.779481506E-1,2.116030597E0
4.719263167E0,-5.879772949E-1,1.921404419E0,4.716691589E-1,2.063972877E0
4.729197167E0,-6.077362061E-1,1.829196167E0,4.134402466E-1,1.971353533E0
4.739130167E0,-5.376818848E-1,1.518143005E0,4.321513367E-1,1.667517548E0
4.749063167E0,-3.270698547E-1,8.135581970E-1,4.167333984E-1,9.708338453E-1
4.758997167E0,-1.080752563E-1,1.727407837E-1,3.638932800E-1,4.170586993E-1
4.768930167E0,-1.526824951E-2,-1.791773987E-1,2.573149109E-1,3.139245499E-1
4.778863167E0,2.649490356E-2,-3.861968994E-1,1.474433899E-1,4.142337242E-1
4.788797167E0,2.567161560E-1,-8.767268372E-1,-7.185058594E-3,9.135670511E-1
4.798730167E0,2.500250702E0,-5.277425537E0,-6.330335999E-1,5.873942919E0
4.808663167E0,6.876699829E0,-2.082529358E1,-3.094963989E0,2.214860391E1
4.818596167E0,4.949158173E0,-6.797993500E1,-1.034648438E1,6.894066628E1
4.828530167E0,5.429808655E0,-5.648099716E1,-6.127507782E0,5.707129063E1
4.838463167E0,7.011719055E0,-5.151746887E1,-5.978717194E0,5.233506341E1
4.848396167E0,5.051096191E0,-4.651442276E1,-2.150278473E0,4.683725862E1
4.858330167E0,3.856430511E0,-3.172382996E1,3.887266388E0,3.219292288E1
4.868263167E0,5.001100159E0,-2.444970657E1,2.451003113E0,2.507601584E1
4.878196167E0,6.328090668E0,-2.173764633E1,-6.065386963E-1,2.264813212E1
4.888130167E0,5.028193817E0,-1.906749893E1,-1.373543701E0,1.976711590E1
4.898063167E0,3.990701294E0,-1.704221054E1,-1.622026978E0,1.757821403E1
4.907996167E0,3.196303253E0,-1.525088562E1,-1.804497528E0,1.568636599E1
4.917930167E0,2.643951874E0,-1.335971832E1,-1.919458466E0,1.375343143E1
4.927863167E0,2.422711945E0,-1.125090363E1,-1.809137878E0,1.165012212E1
4.937796167E0,1.652413788E0,-9.112450562E0,-1.284628601E0,9.349732467E0
4.947730167E0,1.280587006E0,-7.001540222E0,-7.447013855E-1,7.156538878E0
4.957663167E0,8.234376526E-1,-5.229375458E0,-3.679348755E-1,5.306580191E0
4.967596167E0,4.884342957E-1,-3.749103699E0,-1.666035461E-1,3.784455489E0
4.977530167E0,2.216889954E-1,-2.579436035E0,-6.990463257E-2,2.589888594E0
4.987463167E0,-1.642085266E-1,-1.582060089E0,-6.511459351E-2,1.591891477E0
4.997396167E0,-3.574566650E-1,-6.560856628E-1,3.233276367E-2,7.478429461E-1
5.007329167E0,-4.796026611E-1,1.053808594E-1,1.713935852E-1,5.200957596E-1
5.017263167E0,-5.322930908E-1,6.503974915E-1,2.459385681E-1,8.756932172E-1
5.027196417E0,-4.108955383E-1,9.190887451E-1,2.020797729E-1,1.026837621E0
5.037129417E0,-3.487747192E-1,9.791139221E-1,2.615061951E-1,1.071771136E0
5.047063417E0,-3.692820740E-1,1.051263885E0,3.469784546E-1,1.167012877E0
5.056996417E0,-3.381468201E-1,1.125659180E0,4.522096252E-1,1.259343244E0
5.066929417E0,-2.773731995E-1,1.264420624E0,4.980143738E-1,1.386980073E0
5.076863417E0,-2.712359619E-1,1.386865997E0,4.990621948E-1,1.498675854E0
5.086796417E0,-2.751278687E-1,1.510209503E0,4.887336731E-1,1.610989972E0
5.096729417E0,-2.727328491E-1,1.626517639E0,4.833448792E-1,1.718593934E0
5.106663417E0,-3.092568970E-1,1.706002350E0,5.081932068E-1,1.806749618E0
5.116596417E0,-3.150947571E-1,1.703307953E0,5.102888489E-1,1.805806578E0
5.126529417E0,-2.565664673E-1,1.710043945E0,4.742138672E-1,1.793029682E0
5.136463417E0,-2.031275940E-1,1.648521881E0,4.038601685E-1,1.709382417E0
5.146396417E0,-8.592132568E-2,1.548679504E0,3.881428528E-1,1.598888850E0
5.156329417E0,6.780899048E-2,1.438508606E0,3.770658875E-1,1.488651656E0
5.166263417E0,2.999761963E-1,1.126707001E0,3.990701294E-1,1.232360074E0
5.176196417E0,5.122348022E-1,5.658233643E-1,4.704716492E-1,8.965958648E-1
5.186129417E0,3.920347595E-1,-7.783813477E-3,4.709207153E-1,6.127953660E-1
5.196063417E0,2.676434326E-1,-3.149450684E-1,4.574487305E-1,6.165085110E-1
5.205996417E0,2.130070496E-1,-4.643344116E-1,5.252577209E-1,7.327169456E-1
5.215929417E0,1.993853760E-1,-6.008505249E-1,6.903643799E-1,9.366850369E-1
5.225863417E0,8.523275757E-1,-2.253563690E0,1.113534393E0,2.654236321E0
5.235796417E0,7.821684723E0,-1.942600342E1,2.360591125E-1,2.094287670E1
5.245729417E0,7.143594818E0,-7.838674393E1,-2.166399948E1,8.163848017E1
5.255662417E0,-4.087400208E0,-6.387831436E1,-1.927511719E1,6.684815651E1
5.265596417E0,3.627706146E0,-5.893319778E1,-1.363724121E1,6.059914522E1
5.275529417E0,3.632196808E0,-5.077755753E1,-5.125491486E0,5.116467399E1
5.285462417E0,1.957479401E0,-3.163446579E1,1.629960480E0,3.173685433E1
5.295396417E0,3.771257629E0,-2.197280731E1,-8.412506104E-2,2.229425312E1
5.305329417E0,3.493285675E0,-1.942435684E1,-2.647394714E0,1.991274422E1
5.315262417E0,2.279010773E0,-1.717288879E1,-2.922821960E0,1.756829212E1
5.325196417E0,1.541344757E0,-1.519190826E1,-2.206561432E0,1.542850394E1
5.335129417E0,9.024732971E-1,-1.347497864E1,-1.688937836E0,1.361036437E1
5.345062417E0,4.872367859E-1,-1.182226547E1,-1.185534668E0,1.189154544E1
5.354996417E0,3.516188049E-1,-9.936786346E0,-9.397457886E-1,9.987315997E0
5.364929417E0,4.273612976E-1,-8.189619598E0,-9.044192505E-1,8.250483684E0
5.374862417E0,-9.427395630E-1,-6.591093750E0,-1.038989410E0,6.738751643E0
5.384796417E0,-3.257076874E0,-5.005590820E0,-2.648442535E0,6.532896531E0
5.394729417E0,-3.117267609E0,-3.520379333E0,-3.402574310E0,5.804131281E0
5.404662417E0,-2.108964386E0,-2.191891937E0,-2.674638062E0,4.050408597E0
5.414595417E0,-8.768765259E-1,-1.018032990E0,-8.452922058E-1,1.587394886E0
5.424529417E0,7.634124756E-2,-1.552272034E-1,6.530918884E-1,6.756126742E-1
5.434462417E0,4.532574463E-1,4.285588074E-1,1.457519073E0,1.585391691E0
5.444395417E0,6.146218872E-1,7.857160950E-1,1.597777405E0,1.883614207E0
5.454329417E0,5.108876038E-1,8.729846191E-1,1.080602875E0,1.480138798E0
5.464262417E0,3.092568970E-1,9.219328308E-1,8.655001831E-1,1.301802804E0
5.474195417E0,2.695893860E-1,9.747729492E-1,6.806346130E-1,1.219066945E0
5.484129417E0,2.856060791E-1,1.073717194E0,5.108876038E-1,1.222884127E0
5.494062417E0,2.552192688E-1,1.195863190E0,5.035528564E-1,1.322418664E0
5.503995417E0,2.320175171E-1,1.275347900E0,4.975653076E-1,1.388494015E0
5.513929417E0,1.564247131E-1,1.177002411E0,4.689747620E-1,1.276612977E0
5.523862417E0,4.969665527E-2,9.253756714E-1,4.189787292E-1,1.017021665E0
5.533795417E0,-5.403762817E-2,7.622149658E-1,3.532653809E-1,8.418361769E-1
5.543729417E0,-1.216969299E-1,6.402186584E-1,2.627037048E-1,7.026402422E-1
5.553662417E0,-1.496887207E-1,6.655160522E-1,2.180964661E-1,7.161594776E-1
5.563595417E0,-1.483415222E-1,6.682104492E-1,1.797761536E-1,7.076933496E-1
5.573529417E0,-1.401086426E-1,6.295907593E-1,1.454974365E-1,6.611992589E-1
5.583462417E0,-1.296304321E-1,5.709127808E-1,1.411564636E-1,6.022213874E-1
5.593395417E0,-3.323089600E-2,4.337979126E-1,1.884580994E-1,4.741322354E-1
5.603329417E0,1.378633118E-1,1.716929626E-1,3.107537842E-1,3.808578219E-1
5.613262417E0,2.112107849E-1,-1.228944397E-1,4.162843323E-1,4.827066234E-1
5.623195417E0,2.583627319E-1,-3.583547974E-1,4.082011414E-1,6.014961628E-1
5.633128417E0,2.658471680E-1,-5.279521179E-1,2.510279846E-1,6.422018410E-1
5.643062417E0,2.456391907E-1,-7.863148499E-1,-5.328918457E-2,8.255115943E-1
5.652995417E0,6.087840271E-1,-2.746189270E0,-8.324189758E-1,2.933444196E0
5.662928417E0,3.543281708E0,-1.866513565E1,-6.107299805E0,1.995598269E1
5.672862417E0,2.930905151E0,-6.091013672E1,-2.033401520E1,6.428146805E1
5.682795417E0,-8.756790161E-1,-6.693435928E1,-2.345233063E1,7.092945142E1
5.692728417E0,1.865720215E0,-4.863910446E1,-1.347258362E1,5.050498890E1
5.702662417E0,3.329975281E0,-4.808570526E1,-1.072145462E1,4.937887580E1
5.712595417E0,2.183209991E0,-3.402753937E1,-8.178243256E0,3.506456194E1
5.722528417E0,1.194066925E0,-2.417368057E1,-5.616470490E0,2.484627475E1
5.732462417E0,1.315614166E0,-2.170830734E1,-4.017944641E0,2.211617796E1
5.742395417E0,2.599494324E0,-2.117751114E1,-3.239263916E0,2.158094482E1
5.752328417E0,2.276166687E0,-1.903381897E1,-1.074765015E0,1.919953956E1
5.762262417E0,1.614542542E0,-1.647938095E1,5.397775269E-1,1.656707892E1
5.772195417E0,1.601070557E0,-1.353500381E1,1.415905609E0,1.370272031E1
5.782128417E0,1.543889465E0,-1.062191162E1,1.481020203E0,1.083522136E1
5.792061417E0,1.228345642E0,-8.101003876E0,1.076561279E0,8.264023294E0
5.801995417E0,6.291416931E-1,-6.245013428E0,3.977229309E-1,6.289212631E0
5.811928417E0,-5.405259705E-1,-4.722529449E0,-3.263214111E-1,4.764550177E0
5.821861417E0,-1.388512573E0,-3.486699371E0,-1.077908478E0,3.904731279E0
5.831795417E0,-1.312021637E0,-2.433938599E0,-1.578916626E0,3.184091015E0
5.841728417E0,-1.293011169E0,-1.457668762E0,-1.521136780E0,2.471949273E0
5.851661417E0,-1.167721710E0,-5.954617310E-1,-1.310375061E0,1.853437743E0
5.861595417E0,-5.863307190E-1,2.197430420E-1,-1.227297821E0,1.377799208E0
5.871528417E0,-1.492396545E-1,5.324427795E-1,-9.577084351E-1,1.105881203E0
5.881461417E0,-6.451583862E-2,5.839356995E-1,-6.668632507E-1,8.887349378E-1
5.891395417E0,-5.179229736E-2,5.899232483E-1,-4.038601685E-1,7.167948916E-1
5.901328417E0,-4.146377563E-2,6.120771790E-1,-2.767744446E-1,6.730243761E-1
5.911261417E0,-1.041833496E-1,7.364685059E-1,-1.631607056E-1,7.614863402E-1
5.921195417E0,-1.151106262E-1,8.991801453E-1,3.143463135E-3,9.065237290E-1
5.931128417E0,-1.582209778E-1,9.954299927E-1,1.794767761E-1,1.023780573E0
5.941061417E0,-2.100132751E-1,1.025068359E0,2.983296204E-1,1.088058491E0
5.950995417E0,-2.580633545E-1,1.054557037E0,3.736230469E-1,1.148164370E0
5.960928417E0,-3.107537842E-1,1.102756805E0,3.580554199E-1,1.200351686E0
5.970861417E0,-3.396437073E-1,1.100212097E0,3.493734741E-1,1.203281485E0
5.980794417E0,-3.755690002E-1,1.149309998E0,3.219804382E-1,1.251254150E0
5.990728417E0,-4.616400146E-1,1.451381836E0,4.432283020E-1,1.586213121E0
6.000661417E0,-5.569917297E-1,1.751507721E0,5.165757751E-1,1.909154162E0
6.010594417E0,-5.287005615E-1,1.928140411E0,5.417234802E-1,2.071403886E0
6.020528417E0,-4.159849548E-1,1.896556091E0,4.990621948E-1,2.004752245E0
6.030461458E0,-2.480342102E-1,1.807940369E0,3.791615295E-1,1.863848924E0
6.040394458E0,-7.304809570E-2,1.659299469E0,2.523751831E-1,1.679971424E0
6.050328458E0,3.540138245E-1,1.093027039E0,2.424957275E-1,1.174239359E0
6.060261458E0,5.736071777E-1,1.520837402E-1,4.351451111E-1,7.358708624E-1
6.070194458E0,4.602928162E-1,-3.219804382E-1,6.563850403E-1,8.639341412E-1
6.080128458E0,5.385800171E-1,-5.670208740E-1,1.012644196E0,1.279464487E0
6.090061458E0,6.978488159E-1,-8.866062927E-1,1.357676697E0,1.765318583E0
6.099994458E0,7.375163269E-1,-1.367107086E0,1.105600891E0,1.906637209E0
6.109928458E0,4.540058899E-1,-1.451741089E1,-4.698728943E-1,1.453210655E1
6.119861458E0,-1.490884689E1,-1.036757552E2,-2.088995911E1,1.068050856E2
6.129794458E0,-9.085656281E0,-7.433526901E1,-1.969005432E1,7.743371106E1
6.139727458E0,-8.685089264E0,-6.244699081E1,-1.354443420E1,6.448650351E1
6.149661458E0,-1.056068893E1,-5.018778397E1,-3.486699371E0,5.140524178E1
6.159594458E0,-6.004463654E0,-3.014626053E1,6.272556152E0,3.137189137E1
6.169527458E0,-5.249733124E0,-2.248713776E1,6.706952820E0,2.404608655E1
6.179461458E0,-2.956651611E0,-1.876018799E1,-2.826123047E-1,1.899384932E1
6.189394458E0,-2.440524902E0,-1.533096909E1,-2.099533997E0,1.566533810E1
6.199327458E0,-2.478845215E0,-1.191192902E1,-1.715432739E0,1.228745034E1
6.209261458E0,-2.649490356E0,-9.134754181E0,-1.459764404E0,9.622600751E0
6.219194458E0,-2.320624237E0,-6.966363373E0,-1.354084167E0,7.466529276E0
6.229127458E0,-1.895208893E0,-5.035378876E0,-1.060694275E0,5.483787880E0
6.239061458E0,-1.361119537E0,-3.353027344E0,-1.004261627E0,3.755526618E0
6.248994458E0,-1.406475220E0,-2.021097107E0,-1.138532410E0,2.712795994E0
6.258927458E0,-1.658101959E0,-1.184037781E0,-1.429976349E0,2.489192626E0
6.268861458E0,-1.413959656E0,-5.318440247E-1,-1.581760712E0,2.187260141E0
6.278794458E0,-8.349636841E-1,-2.095642090E-3,-1.655407562E0,1.854061203E0
6.288727458E0,-2.221380615E-1,3.803590393E-1,-1.097218323E0,1.182330903E0
6.298661458E0,-5.942642212E-2,6.483018494E-1,-3.329077148E-1,7.312006114E-1
6.308594458E0,-1.411564636E-1,8.604107666E-1,1.616638184E-1,8.867733784E-1
6.318527458E0,-2.324665833E-1,1.081051941E0,3.221301270E-1,1.151729929E0
6.328460458E0,-3.165916443E-1,1.217118988E0,4.102967834E-1,1.322857646E0
6.338394458E0,-3.465293884E-1,1.216969299E0,3.688330078E-1,1.318004052E0
6.348327458E0,-3.074606323E-1,1.200353851E0,3.314108276E-1,1.282659170E0
6.358260458E0,-2.679428101E-1,1.142723694E0,2.610571289E-1,1.202398276E0
6.368194458E0,-2.501298523E-1,1.096769257E0,2.079176331E-1,1.143983167E0
6.378127458E0,-2.194436646E-1,1.113983459E0,1.728904724E-1,1.148479771E0
6.388060458E0,-1.501377869E-1,1.158590698E0,1.853146362E-1,1.182884304E0
6.397994458E0,-8.637039185E-2,1.236728210E0,1.803749084E-1,1.252793526E0
6.407927458E0,-8.187973022E-2,1.474284210E0,2.372566223E-1,1.495496214E0
6.417860458E0,-3.338058472E-2,1.593137054E0,2.631527710E-1,1.615069447E0
6.427794458E0,5.044509888E-2,1.552870789E0,2.192939758E-1,1.569089622E0
6.437727458E0,1.309776306E-1,1.553469543E0,2.032772827E-1,1.572178239E0
6.447660458E0,3.055146790E-1,1.454225922E0,2.234852600E-1,1.502683570E0
6.457594458E0,5.712121582E-1,1.058149567E0,3.752696228E-1,1.259678977E0
6.467527458E0,6.081852722E-1,5.465135193E-1,5.123844910E-1,9.649374170E-1
6.477460458E0,3.986210632E-1,8.098159790E-2,4.508624268E-1,6.072344680E-1
6.487393458E0,2.032772827E-1,-1.920506287E-1,3.362008667E-1,4.373055230E-1
6.497327458E0,1.145118713E-1,-3.231779480E-1,1.947450256E-1,3.943127943E-1
6.507260458E0,7.364685059E-2,-4.599934387E-1,1.308279419E-1,4.838737156E-1
6.517193458E0,-7.753875732E-2,-8.625064087E-1,2.219883728E-1,8.939845645E-1
6.527127458E0,-1.635199585E0,-5.536087646E0,3.787124634E-1,5.784943149E0
6.537060458E0,-2.319875793E1,-6.049998962E1,-1.795067139E1,6.723583656E1
6.546993458E0,-1.929786987E1,-7.920554123E1,-3.475802032E1,8.862305298E1
6.556927458E0,-1.483175720E1,-5.835315399E1,-1.984034180E1,6.339330221E1
6.566860458E0,-1.602642288E1,-5.460704407E1,-1.690000626E1,5.936653690E1
6.576793458E0,-7.423662415E0,-3.587739258E1,-1.204799606E1,3.856750278E1
6.586727458E0,-5.436095581E0,-2.266077667E1,-5.207670593E0,2.387847917E1
6.596660458E0,-4.140240326E0,-1.857771744E1,-3.864962769E0,1.942192350E1
6.606593458E0,-4.296365662E0,-1.623553802E1,-4.371060333E0,1.735389355E1
6.616526458E0,-5.080135803E0,-1.420111862E1,-3.700305176E0,1.552970728E1
6.626460458E0,-5.016069031E0,-1.332424210E1,-3.056344299E0,1.456151147E1
6.636393458E0,-4.080514526E0,-1.177077255E1,-1.857786713E0,1.259575551E1
6.646326458E0,-2.709665222E0,-9.335187378E0,-1.095721436E-1,9.721111822E0
6.656260458E0,-2.815046082E0,-7.736661530E0,9.883946228E-1,8.292004582E0
6.666193458E0,-1.858535156E0,-5.931714935E0,9.616003418E-1,6.289997633E0
6.676126458E0,-8.849597168E-1,-3.997586975E0,7.641609192E-1,4.165068695E0
6.686060458E0,-7.285350037E-1,-2.631827087E0,6.276448059E-1,2.802001976E0
6.695993458E0,-6.819818115E-1,-1.806443481E0,5.294490051E-1,2.002162204E0
6.705926458E0,-6.333329773E-1,-1.238374786E0,4.076023865E-1,1.449421428E0
6.715860458E0,-6.542893982E-1,-7.228468323E-1,2.902464294E-1,1.017273390E0
6.725793458E0,-5.351371765E-1,-2.968327332E-1,8.367599487E-2,6.176432152E-1
6.735726458E0,-4.749623108E-1,9.011260986E-2,1.167572021E-2,4.835760556E-1
6.745660458E0,-6.038442993E-1,4.337979126E-1,9.565109253E-2,7.496383783E-1
6.755593458E0,-5.037025452E-1,7.162605286E-1,8.906478882E-2,8.801579037E-1
6.765526458E0,-3.176394653E-1,8.372090149E-1,-4.580474854E-2,8.966113091E-1
6.775459458E0,-2.493814087E-1,8.419990540E-1,-2.559677124E-1,9.146982911E-1
6.785393458E0,-1.224453735E-1,7.358697510E-1,-3.252735901E-1,8.138182035E-1
6.795326458E0,-4.999603271E-2,6.547384644E-1,-3.216810608E-1,7.312050088E-1
6.805259458E0,5.089416504E-3,6.173162842E-1,-3.484753418E-1,7.089008116E-1
6.815193458E0,6.945556641E-2,5.755531311E-1,-2.764750671E-1,6.422802700E-1
6.825126458E0,1.047821045E-1,6.174659729E-1,-2.282752991E-1,6.665981768E-1
6.835059458E0,1.276844788E-1,5.936654663E-1,-1.960922241E-1,6.381176791E-1
6.844993458E0,1.510359192E-1,5.846841431E-1,-2.086660767E-1,6.389123004E-1
6.854926458E0,1.781295776E-1,5.774990845E-1,-1.637594604E-1,6.261409585E-1
6.864859458E0,2.179467773E-1,5.891748047E-1,-1.179547119E-1,6.391721695E-1
6.874793458E0,2.224374390E-1,5.695655823E-1,-6.691085815E-2,6.151100956E-1
6.884726458E0,2.682421875E-1,5.152285767E-1,-1.152603149E-2,5.809881296E-1
6.894659458E0,3.107537842E-1,4.947212219E-1,1.227447510E-2,5.843523462E-1
6.904593458E0,3.565585327E-1,4.526586914E-1,3.712280273E-2,5.774183757E-1
6.914526458E0,3.827540588E-1,3.628454590E-1,7.424560547E-2,5.326067091E-1
6.924459458E0,4.429289246E-1,1.661544800E-1,1.041833496E-1,4.844042875E-1
6.934392458E0,4.239184570E-1,-1.110690308E-1,1.191522217E-1,4.541370275E-1
6.944326458E0,2.706372070E-1,-3.667373657E-1,4.909790039E-2,4.584227275E-1
6.954259458E0,2.163002014E-1,-6.111790466E-1,2.960842896E-1,7.127352318E-1
6.964192458E0,3.439846802E-1,-2.864143982E0,4.101470947E-1,2.913737608E0
6.974126458E0,-5.688171387E-3,-1.718965393E1,-1.348695374E0,1.724248282E1
6.984059458E0,-1.584365295E1,-8.414841248E1,-2.472004440E1,8.912383102E1
6.993992458E0,-1.560085785E1,-7.042869278E1,-2.416799240E1,7.607679928E1
7.003926458E0,-1.924173660E1,-5.888499802E1,-1.813179474E1,6.454803947E1
7.013859458E0,-1.247221390E1,-4.777465210E1,-1.483445160E1,5.155612919E1
7.023792458E0,-5.676944733E0,-2.917942108E1,-6.481820984E0,3.042499498E1
7.033725792E0,-5.216502228E0,-2.050001999E1,-1.920206909E0,2.124028977E1
7.043658792E0,-7.411537628E0,-1.716480560E1,-5.004093933E-1,1.870325776E1
7.053591792E0,-6.925049286E0,-1.495195724E1,-1.784289551E0,1.657410698E1
7.063524792E0,-6.981781311E0,-1.190279800E1,-1.601220245E0,1.389193208E1
7.073458792E0,-6.266718292E0,-9.126820679E0,-1.044827271E0,1.112035422E1
7.083391792E0,-5.478906555E0,-6.759643250E0,-8.557704163E-1,8.743199466E0
7.093324792E0,-4.182751923E0,-4.837640076E0,-9.960287476E-1,6.472267641E0
7.103258792E0,-3.067121887E0,-3.330124969E0,-8.005352783E-1,4.597589120E0
7.113191792E0,-2.165846100E0,-2.104324036E0,-4.834945679E-1,3.058240666E0
7.123124792E0,-1.452729034E0,-1.148411865E0,-4.267625427E-1,1.900367787E0
7.133058792E0,-1.128652954E0,-4.878355408E-1,-4.004173279E-1,1.293126074E0
7.142991792E0,-9.062155151E-1,2.784210205E-2,-3.327580261E-1,9.657792949E-1
7.152924792E0,-5.505551147E-1,4.544549561E-1,-1.576222229E-1,7.310848149E-1
7.162858792E0,-3.017724609E-1,8.102650452E-1,-2.155517578E-2,8.649050163E-1
7.172791792E0,-1.719923401E-1,1.105002136E0,7.319778442E-2,1.120700228E0
7.182724792E0,-2.071691895E-1,1.203647003E0,4.505630493E-2,1.222176441E0
7.192658792E0,-2.990780640E-1,1.423839111E0,1.859133911E-1,1.466741045E0
7.202591792E0,-5.126838684E-1,1.899250488E0,5.345384216E-1,2.038560397E0
7.212524792E0,-8.819659424E-1,2.567011871E0,8.027806091E-1,2.830524788E0
7.222457792E0,-7.964936829E-1,2.541564789E0,6.089337158E-1,2.732170206E0
7.232391792E0,-5.548960876E-1,2.230361938E0,4.243675232E-1,2.337201711E0
7.242324792E0,-3.833528137E-1,1.966011658E0,2.008822632E-1,2.013085915E0
7.252257792E0,-2.731819153E-1,1.792073364E0,6.960525513E-2,1.814111406E0
7.262191792E0,-1.853146362E-1,1.646276550E0,-5.807922363E-2,1.657691525E0
7.272124792E0,-1.179547119E-1,1.553020477E0,-2.174977112E-1,1.572606490E0
7.282057792E0,-7.664062500E-2,1.514251099E0,-2.348616028E-1,1.534271862E0
7.291991792E0,-4.595443726E-2,1.510957947E0,-1.862127686E-1,1.523082704E0
7.301924792E0,6.137237549E-2,1.393003235E0,-7.933502197E-2,1.396609690E0
7.311857792E0,2.207908630E-1,1.117725677E0,8.382568359E-2,1.142403624E0
7.321791792E0,3.552113342E-1,8.059240723E-1,2.412982178E-1,9.131886618E-1
7.331724792E0,3.918850708E-1,5.013075256E-1,3.143463135E-1,7.097159634E-1
7.341657792E0,3.103047180E-1,1.371148682E-1,3.704795837E-1,5.023391554E-1
7.351591792E0,2.134561157E-1,-9.265731812E-2,4.363426208E-1,4.945136749E-1
7.361524792E0,2.375559998E-1,-2.788700867E-1,5.035528564E-1,6.227092881E-1
7.371457792E0,3.571572876E-1,-4.408332825E-1,6.245013428E-1,8.437400300E-1
7.381390792E0,3.236270142E-1,-9.753717041E-1,8.831634521E-1,1.355013686E0
7.391324792E0,-6.489904175E0,-9.911488953E0,2.029329987E0,1.201976080E1
7.401257792E0,-4.936329849E1,-7.139897507E1,-1.572494980E1,8.821464122E1
7.411190792E0,-2.650463333E1,-6.458499481E1,-1.612686401E1,7.165049118E1
7.421124792E0,-2.336940308E1,-5.161491623E1,-1.467653000E1,5.852887416E1
7.431057792E0,-1.997985168E1,-3.948519012E1,-1.229258743E1,4.592801344E1
7.440990792E0,-1.146900009E1,-2.546474579E1,-7.630532227E0,2.895196476E1
7.450924792E0,-8.392747192E0,-1.845272736E1,-4.710105286E0,2.081169008E1
7.460857792E0,-7.299570465E0,-1.634451141E1,-3.025957489E0,1.815442649E1
7.470790792E0,-6.981781311E0,-1.476155319E1,-2.709066467E0,1.655257575E1
7.480724792E0,-7.234306183E0,-1.356060059E1,-2.581980743E0,1.558498312E1
7.490657792E0,-6.686295776E0,-1.270602768E1,-2.287093964E0,1.453893013E1
7.500590792E0,-6.641538849E0,-1.086575455E1,-1.566193085E0,1.283072956E1
7.510523792E0,-6.276597748E0,-8.767717438E0,-8.813671875E-1,1.081875023E1
7.520457792E0,-5.614973602E0,-7.103328552E0,-5.140310669E-1,9.069147315E0
7.530390792E0,-4.251758423E0,-5.282514954E0,-5.444178772E-1,6.802852692E0
7.540323792E0,-3.433260498E0,-3.509152679E0,-2.445913696E-1,4.915409964E0
7.550257792E0,-2.503992920E0,-2.184108124E0,1.544787598E-1,3.326285094E0
7.560190792E0,-1.817221069E0,-1.202898560E0,3.418890381E-1,2.205934150E0
7.570123792E0,-1.369951172E0,-6.239025879E-1,2.981799316E-1,1.534578745E0
7.580057792E0,-1.174158325E0,-2.784210205E-1,-3.637435913E-2,1.207265145E0
7.589990792E0,-1.214274902E0,-6.616241455E-2,-4.179309082E-1,1.285887727E0
7.599923792E0,-1.026116180E0,5.718109131E-2,-6.812333679E-1,1.232989454E0
7.609857792E0,-7.420069885E-1,1.390608215E-1,-7.827223206E-1,1.087458741E0
7.619790792E0,-4.721182251E-1,2.480342102E-1,-8.301736450E-1,9.867141779E-1
7.629723792E0,-2.658471680E-1,3.543132019E-1,-7.923023987E-1,9.077200299E-1
7.639656792E0,-1.354682922E-1,4.671784973E-1,-6.625222778E-1,8.219143357E-1
7.649590792E0,-3.787124634E-2,5.532495117E-1,-4.995112610E-1,7.463449292E-1
7.659523792E0,2.290237427E-2,6.306385803E-1,-3.445834351E-1,7.190043682E-1
7.669456792E0,1.544787598E-1,6.170169067E-1,-1.466949463E-1,6.527579626E-1
7.679390792E0,2.781216431E-1,5.665718079E-1,8.277786255E-2,6.365590596E-1
7.689323792E0,4.445755005E-1,4.526586914E-1,2.427951050E-1,6.793355059E-1
7.699256792E0,6.322851562E-1,3.848497009E-1,5.532495117E-1,9.241097518E-1
7.709190792E0,7.104226685E-1,3.384461975E-1,7.846682739E-1,1.111283266E0
7.719123792E0,7.758366394E-1,3.156935120E-1,8.295748901E-1,1.178889046E0
7.729056792E0,8.758287048E-1,2.848576355E-1,9.395960999E-1,1.315697771E0
7.738990792E0,1.042132874E0,1.580712891E-1,1.027912445E0,1.472287830E0
7.748923792E0,1.127305756E0,-1.540296936E-1,9.930349731E-1,1.510186039E0
7.758856792E0,6.664141846E-1,-6.884184265E-1,8.048762512E-1,1.251340711E0
7.768790792E0,5.101391602E-1,-1.162183228E0,7.836204529E-1,1.491634282E0
7.778723792E0,3.381468201E-1,-3.204985199E0,5.252577209E-1,3.265297700E0
7.788656792E0,-5.001100159E-1,-8.184380493E0,-7.110214233E-2,8.199954244E0
7.798589792E0,-3.279380493E0,-1.899834274E1,-1.801354065E0,1.936327038E1
7.808523792E0,-1.194051956E1,-3.455489273E1,-5.786367188E0,3.701484384E1
7.818456792E0,-1.511886017E1,-3.874917068E1,-4.780608673E0,4.186803531E1
7.828389792E0,-1.575683350E1,-3.888239365E1,-6.851103058E0,4.250948071E1
7.838323792E0,-1.735610779E1,-4.218557465E1,-1.229842529E1,4.724519500E1
7.848256792E0,-1.500928802E1,-3.915572525E1,-1.353141129E1,4.406300759E1
7.858189792E0,-1.042267593E1,-2.898482574E1,-1.013527359E1,3.242647171E1
7.868123792E0,-8.538094940E0,-2.058743820E1,-6.657106476E0,2.326066946E1
7.878056792E0,-8.123457184E0,-1.627804962E1,-4.097429352E0,1.864817373E1
7.887989792E0,-8.102201385E0,-1.342094101E1,-2.406096497E0,1.586053673E1
7.897922792E0,-8.368946686E0,-1.222462875E1,-1.478625183E0,1.488849050E1
7.907856792E0,-7.844886475E0,-1.131362320E1,-4.490661621E-1,1.377468599E1
7.917789792E0,-7.517217865E0,-1.013198044E1,4.233197021E-1,1.262318469E1
7.927722792E0,-7.435188446E0,-8.850495300E0,2.182162170E0,1.176329571E1
7.937656792E0,-6.804400177E0,-7.556436310E0,3.438349915E0,1.073414373E1
7.947589792E0,-6.003116455E0,-6.183940430E0,4.221670990E0,9.596928277E0
7.957522792E0,-4.877906342E0,-4.834496613E0,4.209246826E0,8.055065898E0
7.967456792E0,-3.689228210E0,-3.582500153E0,3.120560760E0,6.015198383E0
7.977389792E0,-2.598147125E0,-2.360142059E0,1.718725891E0,3.908280659E0
7.987322792E0,-1.833686829E0,-1.276994476E0,8.882528687E-1,2.404602969E0
7.997256792E0,-1.122515717E0,-4.607418823E-1,5.767506409E-1,1.343490200E0
8.007189792E0,-5.939648438E-1,1.434017944E-1,6.628216553E-1,9.014936810E-1
8.017122792E0,-3.152444458E-1,5.233117676E-1,6.411167908E-1,8.855873791E-1
8.027056792E0,-1.047821045E-1,7.973918152E-1,5.496569824E-1,9.741333557E-1
8.036989792E0,-6.436614990E-3,9.806108093E-1,5.245092773E-1,1.112092160E0
8.046922792E0,2.514770508E-2,1.087937622E0,5.712121582E-1,1.229033769E0
8.056855792E0,4.535568237E-2,1.133442993E0,5.667214966E-1,1.268039199E0
8.066789792E0,5.673202515E-2,1.127305756E0,4.956193542E-1,1.232751124E0
8.076722792E0,1.089733887E-1,1.109941864E0,4.245172119E-1,1.193340272E0
8.086655792E0,1.140628052E-1,1.046623535E0,3.433859253E-1,1.107404642E0
8.096589792E0,1.294807434E-1,9.883946228E-1,2.294728088E-1,1.022911024E0
8.106522792E0,1.459465027E-1,9.892927551E-1,9.520202637E-2,1.004521758E0
8.116455792E0,1.890568542E-1,9.693841553E-1,-4.565505981E-2,9.887024422E-1
8.126389792E0,2.576142883E-1,8.985813904E-1,-9.954299927E-2,9.400651283E-1
8.136322792E0,3.106040955E-1,8.092172241E-1,-1.098715210E-1,8.737157267E-1
8.146255792E0,3.835025024E-1,5.575904846E-1,-3.128494263E-2,6.774659147E-1
8.156189792E0,3.170407104E-1,-1.496887207E-2,1.038839722E-1,3.339622118E-1
8.166122792E0,1.071771240E-1,-3.936813354E-1,3.510200500E-1,5.382257940E-1
8.176055792E0,6.840774536E-2,-4.996609497E-1,7.090754700E-1,8.701314305E-1
8.185988792E0,3.772155762E-2,-8.298742676E-1,1.155596924E0,1.423207106E0
8.195922792E0,-1.313518524E0,-4.440366211E0,1.385818176E0,4.833495114E0
8.205855792E0,-8.392447815E0,-2.024016037E1,5.294490051E-1,2.191751784E1
8.215788792E0,-3.344674713E1,-5.619688797E1,-9.821376343E0,6.613043584E1
8.225722792E0,-2.365770355E1,-5.007851120E1,-6.609355774E0,5.577838116E1
8.235655792E0,-2.433654190E1,-4.377002975E1,-4.440216522E0,5.027721451E1
8.245588792E0,-2.166100571E1,-3.706726822E1,-4.433031464E0,4.316055270E1
8.255522792E0,-1.488549545E1,-2.518437881E1,-2.940185852E0,2.940196599E1
8.265455792E0,-1.059287201E1,-1.744966324E1,-2.074535980E0,2.051836699E1
8.275388792E0,-8.601113892E0,-1.330972229E1,-1.913021851E0,1.596206504E1
8.285321792E0,-7.702382813E0,-1.075498489E1,-2.387535095E0,1.344234819E1
8.295255792E0,-6.838978271E0,-9.044042816E0,-2.383493500E0,1.158651697E1
8.305188792E0,-6.284830627E0,-7.837252350E0,-1.920805664E0,1.022795751E1
8.315121792E0,-5.787115631E0,-6.918013916E0,-1.502126312E0,9.143632064E0
8.325055792E0,-5.410199432E0,-6.110742645E0,-1.183139648E0,8.246893537E0
8.334988792E0,-5.083728333E0,-5.377567291E0,-9.336085510E-1,7.458830247E0
8.344921792E0,-4.664599915E0,-4.660708008E0,-5.855822754E-1,6.619939433E0
8.354855792E0,-4.054019623E0,-3.958368530E0,-1.899549866E-1,5.669200951E0
8.364788792E0,-3.421285400E0,-3.278332672E0,6.376739502E-2,4.738852728E0
8.374721792E0,-2.846780090E0,-2.652334442E0,2.097138977E-1,3.896538822E0
8.384655792E0,-2.282303925E0,-2.100282440E0,1.953437805E-1,3.107773596E0
8.394588792E0,-1.820663910E0,-1.629810791E0,1.733395386E-1,2.449723838E0
8.404521792E0,-1.218915253E0,-1.192570038E0,9.804611206E-2,1.708095644E0
8.414455792E0,-9.273216248E-1,-6.885681152E-1,1.776805115E-1,1.168598224E0
8.424388792E0,-8.234376526E-1,-6.107299805E-2,5.153782654E-1,9.733417875E-1
8.434321792E0,-7.198530579E-1,4.218228149E-1,7.851173401E-1,1.145657955E0
8.444254792E0,-5.912704468E-1,8.084687805E-1,7.352709961E-1,1.242515975E0
8.454188792E0,-5.848338318E-1,1.193019104E0,6.189628601E-1,1.465755851E0
8.464121792E0,-6.258485413E-1,1.576521606E0,4.451742554E-1,1.753649592E0
8.474054792E0,-5.215155029E-1,1.629511414E0,2.221380615E-1,1.725291623E0
8.483988792E0,-4.257147217E-1,1.483265533E0,2.245330811E-2,1.543312612E0
8.493921792E0,-3.426374817E-1,1.389710083E0,-1.892065430E-1,1.443777571E0
8.503854792E0,-3.252735901E-1,1.410217438E0,-3.085084534E-1,1.479761331E0
8.513788792E0,-4.147874451E-1,1.516346741E0,-3.770658875E-1,1.616643048E0
8.523721792E0,-5.224136353E-1,1.565744019E0,-4.867877197E-1,1.720881350E0
8.533654792E0,-5.625302124E-1,1.288670197E0,-6.801855469E-1,1.561974229E0
8.543588792E0,-4.468208313E-1,5.110372925E-1,-8.020321655E-1,1.050744291E0
8.553521792E0,-7.673043823E-1,-1.981878662E-1,-7.053332520E-1,1.060909724E0
8.563454792E0,-2.119292908E0,-1.138831787E0,-9.713301086E-1,2.594575581E0
8.573387792E0,-7.140301666E0,-4.241878967E0,-2.404150543E0,8.646235302E0
8.583321792E0,-1.518487289E1,-1.123773102E1,-4.967869263E0,1.953322012E1
8.593254792E0,-2.311148941E1,-2.765753586E1,-9.718240814E0,3.732994022E1
8.603187792E0,-1.937286392E1,-3.776781143E1,-5.979465637E0,4.286571411E1
8.613121792E0,-1.678654221E1,-3.908776657E1,-5.703739014E0,4.292055607E1
8.623054792E0,-1.925056824E1,-3.724749344E1,-1.022613464E1,4.315708487E1
8.632987792E0,-1.785262527E1,-2.998429733E1,-8.687184906E0,3.596166705E1
8.642921792E0,-1.245604752E1,-2.304996735E1,-4.989125061E0,2.667106078E1
8.652854792E0,-1.019350250E1,-1.989048752E1,-3.175496521E0,2.257482592E1
8.662787792E0,-9.942923584E0,-1.900373154E1,-2.715952148E0,2.161897171E1
8.672720792E0,-8.719218292E0,-1.833357513E1,-1.945803680E0,2.039438395E1
8.682654792E0,-7.182364197E0,-1.738784180E1,-1.936972046E-1,1.881384906E1
8.692587792E0,-5.661377106E0,-1.608360397E1,1.074765015E0,1.708474838E1
8.702520792E0,-4.021537170E0,-1.495794479E1,1.573078766E0,1.556879734E1
8.712454792E0,-2.368524628E0,-1.433958069E1,1.410067749E0,1.460211540E1
8.722387792E0,7.417076111E-1,-1.274928772E1,1.913470917E0,1.291339764E1
8.732320792E0,3.638783112E0,-1.041713745E1,1.790426788E0,1.117869059E1
8.742254792E0,7.095993805E0,-9.554331665E0,2.241438904E0,1.211042650E1
8.752187792E0,8.003257141E0,-1.035067566E1,3.435056763E0,1.352731409E1
8.762120792E0,6.175408173E0,-9.736652527E0,2.807262268E0,1.186670932E1
8.772053792E0,5.839955750E0,-7.685917053E0,2.384840698E0,9.943131763E0
8.781987792E0,5.877377930E0,-5.107379150E0,2.556234283E0,8.195317372E0
8.791920792E0,4.355343018E0,-3.014281769E0,2.288141785E0,5.769792042E0
8.801853792E0,2.329006805E0,-1.717678070E0,7.957452393E-1,3.001316567E0
8.811787792E0,1.158890076E0,-5.673202515E-1,8.518785095E-1,1.546148593E0
8.821720792E0,3.905378723E-1,4.013154602E-1,7.213499451E-1,9.131920234E-1
8.831653792E0,-3.547622681E-2,1.032552795E0,3.730242920E-1,1.098440240E0
8.841587792E0,-1.496887207E-1,1.439706116E0,1.463955688E-1,1.454851221E0
8.851520792E0,-2.037263489E-1,1.610051880E0,2.185455322E-2,1.623037000E0
8.861453792E0,-3.079096985E-1,1.617087250E0,-7.185058594E-2,1.647708124E0
8.871387792E0,-4.951702881E-1,1.413959656E0,-9.954299927E-2,1.501460732E0
8.881320792E0,-6.866221619E-1,1.151106262E0,-8.307723999E-2,1.342906344E0
8.891253792E0,-8.690927124E-1,9.315129089E-1,-8.711883545E-2,1.276960506E0
8.901187792E0,-9.892927551E-1,7.051835632E-1,7.484436035E-3,1.214923878E0
8.911120792E0,-9.996212769E-1,5.282514954E-1,1.222956848E-1,1.137210875E0
8.921053792E0,-9.735754395E-1,3.309617615E-1,2.775228882E-1,1.065083930E0
8.930986792E0,-8.978329468E-1,1.299298096E-1,5.210664368E-1,1.046181623E0
8.940920792E0,-7.057823181E-1,-1.422042847E-2,7.005432129E-1,9.945308916E-1
8.950853792E0,-3.418890381E-1,-1.110690308E-1,8.487350464E-1,9.217242662E-1
8.960786792E0,-3.248245239E-2,-1.932481384E-1,9.059161377E-1,9.268678445E-1
8.970720792E0,-5.388793945E-3,-5.019062805E-1,8.951385498E-1,1.026261164E0
8.980653792E0,-8.337661743E-2,-7.436535645E-1,9.047186279E-1,1.174090320E0
8.990586792E0,-1.327738953E-1,-9.949809265E-1,1.021475830E0,1.432141342E0
9.000520792E0,4.144880676E-1,-2.534230042E0,1.945653992E0,3.221752895E0
9.010453792E0,1.556912384E0,-1.017479141E1,3.958518219E0,1.102815592E1
9.020386792E0,1.783990173E0,-3.489124329E1,-5.502557373E-1,3.494115425E1
9.030321333E0,1.061742096E0,-5.378929459E1,-4.035308533E0,5.395089641E1
9.040254333E0,-1.085392914E0,-5.103172897E1,-2.534230042E0,5.110614211E1
9.050187333E0,-4.311484222E0,-4.886767914E1,-5.392236786E0,4.935296524E1
9.060120333E0,-4.582420807E0,-4.025758392E1,-7.506739655E0,4.120707201E1
9.070054333E0,-5.739664307E0,-3.236419830E1,-7.340884552E0,3.367897956E1
9.079987333E0,-5.217550049E0,-2.348466339E1,-4.025728455E0,2.439177592E1
9.089920333E0,-4.342918854E0,-1.685270462E1,-1.690734100E0,1.748522745E1
9.099854333E0,-3.501219177E0,-1.267968246E1,-9.092092896E-1,1.318558094E1
9.109787333E0,-2.902763672E0,-9.654024353E0,-8.390052795E-1,1.011583674E1
9.119720333E0,-2.708168335E0,-7.727231140E0,-8.167016602E-1,8.228686312E0
9.129653333E0,-2.516866150E0,-6.881938934E0,-5.653742981E-1,7.349513372E0
9.139587333E0,-2.669997711E0,-6.352938995E0,-2.631527710E-1,6.896228755E0
9.149520333E0,-2.673141174E0,-5.691165161E0,-2.677931213E-1,6.293390007E0
9.159453333E0,-2.419568481E0,-4.598437500E0,-3.347039795E-1,5.206915193E0
9.169387333E0,-2.189347229E0,-3.523073730E0,-4.197271729E-1,4.169107902E0
9.179320333E0,-1.880389709E0,-2.788401489E0,-6.170169067E-1,3.419321305E0
9.189253333E0,-1.744322662E0,-2.235002289E0,-9.301657104E-1,2.983807137E0
9.199187333E0,-1.754202118E0,-1.733844452E0,-1.185534668E0,2.736591695E0
9.209120333E0,-1.666634216E0,-1.315314789E0,-1.238524475E0,2.457979959E0
9.219053333E0,-1.316063232E0,-7.285350037E-1,-1.132844238E0,1.883114907E0
9.228987333E0,-9.264234924E-1,-8.068222046E-2,-1.092278595E0,1.434518260E0
9.238920333E0,-6.529421997E-1,5.212161255E-1,-1.162482605E0,1.431560537E0
9.248853333E0,-5.216651917E-1,8.851094055E-1,-1.219813385E0,1.594834765E0
9.258787333E0,-4.842430115E-1,9.786648560E-1,-1.022523651E0,1.495938104E0
9.268720333E0,-4.559518433E-1,9.919871521E-1,-8.599617004E-1,1.389771463E0
9.278653333E0,-6.086343384E-1,1.053359528E0,-8.114625549E-1,1.462352054E0
9.288586333E0,-5.203179932E-1,1.010249176E0,-7.295828247E-1,1.350416717E0
9.298520333E0,-4.574487305E-1,8.656498718E-1,-6.274951172E-1,1.162909783E0
9.308453333E0,-4.924758911E-1,8.147557068E-1,-5.260061646E-1,1.087677273E0
9.318386333E0,-6.273454285E-1,7.349716187E-1,-5.165757751E-1,1.095717162E0
9.328320333E0,-7.711962891E-1,4.528083801E-1,-4.593946838E-1,1.005396748E0
9.338253333E0,-8.655001831E-1,-5.568420410E-2,-3.972738647E-1,9.539485422E-1
9.348186333E0,-1.131197662E0,-7.140151978E-1,-3.864962769E-1,1.392409863E0
9.358120333E0,-2.059118042E0,-1.976340179E0,-3.523672485E-1,2.875769513E0
9.368053333E0,-3.715423737E0,-4.303251343E0,-4.411326599E-1,5.702362991E0
9.377986333E0,-6.004912720E0,-8.248447266E0,-5.358856201E-1,1.021680148E1
9.387919333E0,-1.354024292E1,-2.267664368E1,-4.062551880E-1,2.641464348E1
9.397853333E0,-1.160446838E1,-3.117237671E1,-4.403842163E-1,3.326521749E1
9.407786333E0,-8.811127167E0,-3.111774033E1,-9.150471497E-1,3.235408840E1
9.417719333E0,-1.058957886E1,-3.351350830E1,-1.938169556E0,3.520015512E1
9.427653333E0,-8.632847900E0,-3.127670975E1,-1.975741425E0,3.250634076E1
9.437586333E0,-6.694678345E0,-2.781994812E1,-1.423539734E0,2.864951478E1
9.447519333E0,-5.938600616E0,-2.476285538E1,-6.351292419E-1,2.547291449E1
9.457453333E0,-5.089266815E0,-2.352433090E1,2.865042114E-1,2.407024856E1
9.467386333E0,-4.569547577E0,-2.246797760E1,2.068099365E0,2.302102990E1
9.477319333E0,-3.525169373E0,-2.156490555E1,2.944975891E0,2.204869278E1
9.487252333E0,-8.084687805E-1,-2.139964920E1,4.248465271E0,2.183227118E1
9.497186333E0,1.615590363E0,-2.032563263E1,5.262456665E0,2.105789458E1
9.507119333E0,2.742147675E0,-1.791175232E1,6.631659393E0,1.929583249E1
9.517052333E0,3.553310852E0,-1.482547028E1,6.548582153E0,1.659230289E1
9.526986333E0,2.388582916E0,-1.203003342E1,4.369862823E0,1.302008961E1
9.536919333E0,2.224075012E0,-9.164691925E0,1.592089233E0,9.564143238E0
9.546852333E0,1.357676697E1,-6.998546448E0,5.094056854E0,1.610148033E1
9.556786333E0,2.128079636E1,-6.817273407E0,9.120084686E0,2.413552268E1
9.566719333E0,-2.619552612E0,-6.352938995E0,-3.237916718E0,7.596446172E0
9.576652333E0,2.673141174E0,-4.798870697E0,-2.184557190E0,5.911610087E0
9.586585333E0,4.403542786E0,-3.686234436E0,-2.185904388E0,6.144728747E0
9.596519333E0,5.441484375E0,-2.396666107E0,-2.806214447E0,6.574846018E0
9.606452333E0,6.552024994E0,-1.373394012E0,-3.125201111E0,7.387971617E0
9.616385333E0,7.709268494E0,-3.887416077E-1,-3.390000458E0,8.430660938E0
9.626319333E0,9.078022156E0,5.179229736E-1,-2.656525726E0,9.472901319E0
9.636252333E0,6.795568542E0,1.083446960E0,-1.517244873E0,7.046675893E0
9.646185333E0,2.773881683E0,1.141376495E0,-8.228388977E-1,3.110341420E0
9.656119333E0,1.327439575E0,1.041534119E0,-2.032772827E-1,1.699473683E0
9.666052333E0,7.352709961E-1,9.583071899E-1,1.459465027E-1,1.216666137E0
9.675985333E0,3.113525391E-1,7.885601807E-1,3.047662354E-1,9.009162116E-1
9.685919333E0,8.098159790E-2,5.688171387E-1,4.029620361E-1,7.017758609E-1
9.695852333E0,-1.380130005E-1,4.327500916E-1,5.288502502E-1,6.971390229E-1
9.705785333E0,-2.814147949E-1,3.092568970E-1,5.947132874E-1,7.269924410E-1
9.715718333E0,-5.388793945E-2,1.028361511E-1,6.698570251E-1,6.798438189E-1
9.725652333E0,3.278182983E-1,-3.067121887E-1,7.934999084E-1,9.116903576E-1
9.735585333E0,6.405180359E-1,-7.497908020E-1,8.174501038E-1,1.280888080E0
9.745518333E0,9.168434143E-1,-1.253792725E0,7.966433716E-1,1.745634184E0
9.755452333E0,1.056652679E0,-2.484683075E0,8.080197144E-1,2.818343614E0
9.765385333E0,1.001267853E0,-5.027595062E0,9.496252441E-1,5.213543663E0
9.775318333E0,6.400689697E-1,-8.728798370E0,7.827223206E-1,8.787164702E0
9.785252333E0,1.401086426E-1,-1.401730087E1,5.080435181E-1,1.402720437E1
9.795185333E0,-1.798809357E0,-2.356968658E1,-1.438209229E0,2.368194009E1
9.805118333E0,-1.469494171E0,-3.128853516E1,-3.936813354E0,3.156945272E1
9.815051333E0,-2.398761749E0,-3.505305679E1,-4.195625153E0,3.538465937E1
9.824985333E0,-4.606520691E0,-3.577036514E1,-5.151088257E0,3.643175491E1
9.834918333E0,-5.244494019E0,-3.398397995E1,-3.682043152E0,3.458284333E1
9.844851333E0,-5.259313202E0,-3.038666061E1,-1.687141571E0,3.088455869E1
9.854785333E0,-5.583089905E0,-2.499292694E1,-1.002914429E-1,2.560912627E1
9.864718333E0,-5.067861328E0,-2.094055389E1,9.809101868E-1,2.156738743E1
9.874651333E0,-5.071004791E0,-1.821472229E1,1.534159698E0,1.896957679E1
9.884585333E0,-5.849236450E0,-1.630813705E1,2.486778717E0,1.750294174E1
9.894518333E0,-6.029012604E0,-1.514924698E1,2.944676514E0,1.656863895E1
9.904451333E0,-5.841003571E0,-1.420486084E1,2.304308167E0,1.553078331E1
9.914384333E0,-6.071075134E0,-1.291289749E1,1.549427948E0,1.435275590E1
9.924318333E0,-6.502927094E0,-1.112411728E1,1.793270874E0,1.300960670E1
9.934251333E0,-4.971761169E0,-9.321116638E0,1.474134521E0,1.066652226E1
9.944184333E0,-3.595972137E0,-8.000413055E0,-3.159928894E-1,8.777099531E0
9.954118333E0,-3.103047180E0,-7.103178864E0,-1.114282837E0,7.831071319E0
9.964051333E0,-2.881807251E0,-5.791007538E0,-9.810598755E-1,6.542404742E0
9.973984333E0,-2.381547546E0,-4.430337067E0,-8.490344238E-1,5.101030748E0
9.983918333E0,-1.515448608E0,-3.190016327E0,-7.304809570E-1,3.606437450E0
9.993851333E0,-9.497749329E-1,-2.171085205E0,-4.055067444E-1,2.404187828E0
1.000378433E1,-6.462062073E-1,-1.530267792E0,-2.851570129E-1,1.685412857E0
1.001371833E1,-5.598358154E-1,-9.589059448E-1,-2.763253784E-1,1.144234445E0
1.002365133E1,-4.959187317E-1,-4.206253052E-1,-2.652484131E-1,7.022946365E-1
1.003358354E1,-5.463638306E-1,-1.216969299E-1,-2.932402039E-1,6.319124902E-1
1.004351654E1,-6.111790466E-1,9.789642334E-2,-3.080593872E-1,6.913928860E-1
1.005345054E1,-7.059320068E-1,2.309696960E-1,-2.863545227E-1,7.960439130E-1
1.006338354E1,-7.301815796E-1,2.261796570E-1,-2.210902405E-1,7.957407058E-1
1.007331654E1,-7.197033691E-1,1.851649475E-1,-1.490899658E-1,7.579490849E-1
1.008325054E1,-7.035369873E-1,1.758842468E-1,-1.297801208E-1,7.367105541E-1
1.009318354E1,-7.162605286E-1,1.895059204E-1,-1.442999268E-1,7.548272037E-1
1.010311654E1,-7.366181946E-1,1.413061523E-1,-1.457968140E-1,7.640880213E-1
1.011305054E1,-6.966513062E-1,-5.418731689E-2,-1.071771240E-1,7.069273255E-1
1.012298354E1,-6.331832886E-1,-6.441105652E-1,-1.425036621E-1,9.143887526E-1
1.013291654E1,-6.954537964E-1,-1.434766388E0,-1.604663086E-1,1.602485572E0
1.014284954E1,-9.909393311E-1,-2.603386230E0,-1.654060364E-1,2.790508875E0
1.015278354E1,-1.428329773E0,-4.697381744E0,1.422042847E-1,4.911796337E0
1.016271654E1,-2.540966034E0,-8.485554199E0,7.014413452E-1,8.885558982E0
1.017264954E1,-4.143832855E0,-1.402867722E1,2.553689575E-1,1.463011786E1
1.018258354E1,-3.871698761E0,-2.059118042E1,-2.499801636E-1,2.095350215E1
1.019251654E1,-2.824626160E0,-2.401231613E1,-4.791535950E-1,2.418262656E1
1.020244954E1,-3.138822784E0,-2.587549164E1,-1.114582214E0,2.608899326E1
1.021238354E1,-3.641926575E0,-2.729558853E1,-1.556762695E0,2.758144834E1
1.022231654E1,-2.849025421E0,-2.544753159E1,-1.782792664E0,2.566850520E1
1.023224954E1,-2.074985046E0,-2.272529251E1,-1.705104218E0,2.288344080E1
1.024218254E1,-2.027833099E0,-2.170995392E1,-1.735341339E0,2.187339973E1
1.025211654E1,-2.667902069E0,-2.028102539E1,-1.502874756E0,2.051088308E1
1.026204954E1,-1.863624573E0,-1.982731888E1,-1.659898224E0,1.998376673E1
1.027198254E1,-7.837701416E-1,-1.964065704E1,-1.148112488E0,1.968979093E1
1.028191654E1,-4.665797424E-1,-2.141566589E1,-1.377285919E0,2.146497982E1
1.029184954E1,2.390528870E-1,-2.257949570E1,-1.797761536E0,2.265221223E1
1.030178254E1,2.282303925E0,-1.982986359E1,-2.596949615E0,2.012899770E1
1.031171654E1,3.178190918E0,-1.494132935E1,-3.327879639E0,1.563390556E1
1.032164954E1,3.272345123E0,-1.077893509E1,-3.055446167E0,1.167173661E1
1.033158254E1,3.307372284E0,-7.942333832E0,-2.495460663E0,8.958052358E0
1.034151554E1,3.242706757E0,-6.645131378E0,-2.200424194E0,7.714582606E0
1.035144954E1,3.330723724E0,-6.180048523E0,-2.005080414E0,7.301168930E0
1.036138254E1,3.329975281E0,-6.054609375E0,-1.609902191E0,7.094985209E0
1.037131554E1,3.650458832E0,-5.714666290E0,-1.184037781E0,6.883691303E0
1.038124954E1,4.209396515E0,-5.249583435E0,-6.132746887E-1,6.756718960E0
1.039118254E1,5.343438263E0,-4.896916809E0,1.058299255E-1,7.248677581E0
1.040111554E1,6.290219421E0,-4.103566589E0,7.729925537E-1,7.550075272E0
1.041104954E1,8.269403687E0,-3.253334656E0,1.195863190E0,8.966454845E0
1.042098254E1,1.127380600E1,-2.446512451E0,2.024240570E0,1.171245810E1
1.043091554E1,1.037238052E1,-2.170486450E0,4.862488403E0,1.165937745E1
1.044084854E1,5.899980927E0,-1.721270599E0,4.988526306E0,7.915676984E0
1.045078254E1,2.553090820E0,-2.161505127E-1,3.566633148E0,4.391567578E0
1.046071554E1,5.709127808E-1,1.043929138E0,3.016826477E0,3.242988042E0
1.047064854E1,-4.162843323E-1,1.535207520E0,2.336640930E0,2.826666873E0
1.048058254E1,-1.413061523E-1,1.786983948E0,1.488354950E0,2.329909765E0
1.049051554E1,4.433779907E-1,1.640139313E0,6.038442993E-1,1.803127546E0
1.050044854E1,7.556286621E-1,1.438209229E0,1.624122620E-1,1.632727229E0
1.051038254E1,8.000862122E-1,1.391955414E0,2.058219910E-1,1.618653920E0
1.052031554E1,6.158193970E-1,1.100810852E0,3.399430847E-1,1.306361115E0
1.053024854E1,5.505551147E-1,7.321275330E-1,4.028123474E-1,1.000689485E0
1.054018154E1,6.737489319E-1,2.348616028E-1,3.546125793E-1,7.967732909E-1
1.055011554E1,8.821156311E-1,-4.580474854E-1,2.821632385E-1,1.033223876E0
1.056004854E1,1.065484314E0,-1.239721985E0,2.757266235E-1,1.657767352E0
1.056998154E1,1.414857788E0,-2.329306183E0,2.278262329E-1,2.734848194E0
1.057991554E1,1.986219635E0,-4.077371063E0,1.408570862E-1,4.537605530E0
1.058984854E1,2.972368927E0,-6.934779053E0,5.149291992E-2,7.545116902E0
1.059978154E1,4.322710876E0,-1.134745285E1,3.457809448E-2,1.214296962E1
1.060971554E1,4.979095917E0,-1.720611969E1,-2.806663513E-1,1.791426037E1
1.061964854E1,4.727768555E0,-2.363824402E1,-1.632654877E0,2.416162117E1
1.062958154E1,3.622616730E0,-2.913211945E1,-3.152145081E0,2.952523927E1
1.063951454E1,1.747615814E0,-3.325020584E1,-3.934568024E0,3.352776722E1
1.064944854E1,-1.210532684E0,-3.852314072E1,-4.467908936E0,3.880025735E1
1.065938154E1,-3.921096039E0,-3.923685654E1,-3.958817596E0,3.963052033E1
1.066931454E1,-4.344266052E0,-3.503808792E1,-2.438129883E0,3.539046100E1
1.067924854E1,-4.450844421E0,-2.878663788E1,-1.078507233E0,2.914864858E1
1.068918154E1,-2.839894409E0,-2.336805588E1,-1.925745392E0,2.361862678E1
1.069911454E1,-2.206561432E0,-1.995126114E1,-3.420686646E0,2.036228945E1
1.070904854E1,-3.400029602E0,-1.808179871E1,-3.987258453E0,1.882577690E1
1.071898154E1,-4.034260712E0,-1.686408096E1,-3.833528137E0,1.775861549E1
1.072891454E1,-4.055366821E0,-1.524295212E1,-2.838696899E0,1.602659631E1
1.073884754E1,-4.231101379E0,-1.310689407E1,-1.953886871E0,1.391080749E1
1.074878154E1,-4.069587250E0,-1.075034454E1,-1.370400238E0,1.157624486E1
1.075871454E1,-3.842210083E0,-8.303832092E0,-1.023122406E0,9.206681552E0
1.076864754E1,-3.633244629E0,-6.307882690E0,-8.646020508E-1,7.330578918E0
1.077858154E1,-3.299139404E0,-4.928201752E0,-7.677534485E-1,5.980045039E0
1.078851454E1,-2.960244141E0,-3.907624054E0,-7.761360168E-1,4.963361586E0
1.079844754E1,-2.718347168E0,-3.193010101E0,-6.965016174E-1,4.250863364E0
1.080838154E1,-2.433190155E0,-2.622396698E0,-5.351371765E-1,3.617146744E0
1.081831454E1,-2.205363922E0,-2.136806488E0,-4.153862000E-1,3.098728399E0
1.082824754E1,-1.865720215E0,-1.725312195E0,-3.296145630E-1,2.562471434E0
1.083818054E1,-1.695973206E0,-1.410067749E0,-1.384620667E-1,2.209929391E0
1.084811454E1,-1.736688538E0,-9.295669556E-1,1.059796143E-1,1.972666591E0
1.085804754E1,-1.688339081E0,-2.588117981E-1,2.086660767E-1,1.720759696E0
1.086798054E1,-1.620679779E0,4.318519592E-1,3.324586487E-1,1.709861928E0
1.087791454E1,-1.513652344E0,8.122109985E-1,4.788542175E-1,1.783292316E0
1.088784754E1,-1.513352966E0,1.048270111E0,2.653981018E-1,1.859984833E0
1.089778054E1,-1.651665344E0,1.229842529E0,-1.049317932E-1,2.061921855E0
1.090771454E1,-1.761387177E0,1.230291595E0,-3.956272888E-1,2.184633413E0
1.091764754E1,-1.768123169E0,1.172811127E0,-6.692582703E-1,2.224781363E0
1.092758054E1,-1.777703247E0,1.285826111E0,-8.934919739E-1,2.368946080E0
1.093751354E1,-1.656904449E0,1.419049072E0,-1.059047699E0,2.424997867E0
1.094744754E1,-1.600172424E0,1.586550751E0,-1.026116180E0,2.476006762E0
1.095738054E1,-1.440005493E0,1.532213745E0,-9.366023254E-1,2.301851146E0
1.096731354E1,-1.320553894E0,7.776329041E-1,-7.750881958E-1,1.717363454E0
1.097724754E1,-1.567091217E0,-3.294648743E-1,-5.870791626E-1,1.705574369E0
1.098718054E1,-2.223925323E0,-1.294358368E0,-5.234614563E-1,2.625874964E0
1.099711354E1,-2.965034180E0,-2.686762848E0,-5.834866333E-1,4.043584912E0
1.100704754E1,-3.943699036E0,-4.888234863E0,-8.891510010E-1,6.343358075E0
1.101698054E1,-5.262157288E0,-8.381670227E0,-1.353485413E0,9.988724537E0
1.102691354E1,-6.365812225E0,-1.667188065E1,-2.002086639E0,1.795782616E1
1.103684704E1,-6.675218811E0,-3.209460892E1,-4.221521301E0,3.305213624E1
1.104678104E1,-3.698508911E0,-3.928610413E1,-8.455616455E0,4.035559930E1
1.105671404E1,-2.364932098E0,-4.321468460E1,-9.799821167E0,4.437497452E1
1.106664704E1,-2.510429535E0,-4.190445923E1,-6.986271973E0,4.255694956E1
1.107658104E1,-4.853357391E0,-3.434293350E1,-4.002227325E0,3.491432347E1
1.108651404E1,-4.493655396E0,-2.811468521E1,-1.996548157E0,2.854145525E1
1.109644704E1,-2.167941742E0,-2.504636581E1,-1.711690521E0,2.519822010E1
1.110638104E1,-7.783813477E-2,-2.510459473E1,-2.355202332E0,2.521495019E1
1.111631404E1,1.981878662E-1,-2.480491791E1,-2.713856506E0,2.495372213E1
1.112624704E1,9.231303406E-1,-2.351998993E1,-2.782563629E0,2.370199899E1
1.113618004E1,9.113797760E0,-2.104563538E1,-9.957293701E-1,2.295586102E1
1.114611404E1,8.569080505E0,-1.857053238E1,9.662556610E0,2.261987652E1
1.115604704E1,2.121687927E0,-1.722004074E1,1.955264008E1,2.614071722E1
1.116598004E1,-2.740351410E0,-1.395607819E1,2.013927017E1,2.465505723E1
1.117591404E1,-2.871029663E-1,-1.143352386E1,1.065529221E1,1.563147939E1
1.118584704E1,-6.092330933E-2,-1.002510269E1,7.405999146E0,1.246415737E1
1.119578004E1,3.427871704E-1,-7.400310974E0,4.209546204E0,8.520703304E0
1.120571404E1,4.281546478E0,1.263522491E0,7.085964661E0,8.374904447E0
1.121564704E1,4.337829437E0,1.381626892E0,9.749076691E0,1.075965396E1
1.122558004E1,3.356170807E0,-1.197509766E0,7.444020081E0,8.252959898E0
1.123551304E1,2.790646820E0,-1.038240967E0,3.726949768E0,4.770304870E0
1.124544704E1,1.526824951E0,-4.179309082E-1,1.096320190E0,1.925559305E0
1.125538004E1,6.918612671E-1,1.859133911E-1,2.679428101E-1,7.648719836E-1
1.126531304E1,3.121009827E-1,7.375163269E-1,-1.520837402E-1,8.151483423E-1
1.127524704E1,1.269360352E-1,1.100212097E0,-3.984713745E-1,1.177012681E0
1.128518004E1,4.954696655E-2,1.380728760E0,-4.423301697E-1,1.450697346E0
1.129511304E1,4.954696655E-2,1.496288452E0,-1.863624573E-1,1.508663315E0
1.130504704E1,2.080673218E-2,1.525477753E0,1.206491089E-1,1.530382796E0
1.131498004E1,-8.083190918E-2,1.604513397E0,1.490899658E-1,1.613451226E0
1.132491304E1,-1.210981750E-1,1.536255341E0,1.525328064E-1,1.548551419E0
1.133484604E1,-1.496887207E-1,1.464255066E0,1.017883301E-1,1.475401801E0
1.134478004E1,-1.947450256E-1,1.397643585E0,-1.107696533E-2,1.411189539E0
1.135471304E1,-2.025288391E-1,1.281934204E0,-1.231938171E-1,1.303667884E0
1.136464604E1,-1.404080200E-1,1.159488831E0,-2.692900085E-1,1.198601631E0
1.137458004E1,-7.694000244E-2,1.046473846E0,-3.290158081E-1,1.099672077E0
1.138451304E1,1.092727661E-2,9.997709656E-1,-3.369493103E-1,1.055081147E0
1.139444604E1,1.122665405E-1,9.002279663E-1,-3.239263916E-1,9.632977082E-1
1.140438004E1,2.252815247E-1,7.399113464E-1,-3.011737061E-1,8.300157632E-1
1.141431304E1,3.677851868E-1,4.189787292E-1,-2.516267395E-1,6.116576945E-1
1.142424604E1,3.582051086E-1,3.442840576E-3,-1.513352966E-1,3.888767478E-1
1.143417904E1,2.456391907E-1,-3.333567810E-1,-7.708969116E-2,4.211984994E-1
1.144411304E1,2.091151428E-1,-5.755531311E-1,-1.329235840E-1,6.266252699E-1
1.145404604E1,4.233197021E-1,-2.763104095E0,-4.812492371E-1,2.836466929E0
1.146397904E1,1.552721100E0,-5.197491760E0,-1.270108795E0,5.571179387E0
1.147391304E1,-6.794371033E-1,-3.047348007E1,-5.845793610E0,3.103655789E1
1.148384604E1,-6.777156830E0,-7.163563293E1,-1.813927917E1,7.420665206E1
1.149377904E1,-7.103927307E0,-5.069882126E1,-1.427252014E1,5.314641184E1
1.150371304E1,-1.155207733E1,-5.041186798E1,-1.132559830E1,5.294408466E1
1.151364604E1,-7.508984985E0,-3.783996140E1,-4.264481964E0,3.881279867E1
1.152357904E1,-2.299667816E0,-2.546788925E1,4.210743713E-1,2.557497133E1
1.153351204E1,-2.360441437E0,-2.235017258E1,3.233276367E-1,2.247679779E1
1.154344604E1,-3.465742950E0,-2.137524994E1,-8.322692871E-1,2.167037970E1
1.155337904E1,-4.362378387E0,-2.129801056E1,-2.395618286E0,2.187177601E1
1.156331204E1,-4.517755280E0,-1.933589081E1,-3.096161499E0,2.009659180E1
1.157324604E1,-4.207300873E0,-1.619751709E1,-2.558180237E0,1.692941897E1
1.158317904E1,-3.918251953E0,-1.359981903E1,-1.694626007E0,1.425410584E1
1.159311204E1,-3.780538330E0,-1.142888351E1,-1.348246307E0,1.211320010E1
1.160304604E1,-3.129093018E0,-9.026379547E0,-1.053958282E0,9.611325554E0
1.161297904E1,-2.290836182E0,-7.093299408E0,-6.463558960E-1,7.482018634E0
1.162291204E1,-1.832339630E0,-5.426216125E0,-1.237925720E-1,5.728578756E0
1.163284504E1,-1.950294342E0,-3.733985138E0,-3.311114502E-1,4.225627506E0
1.164277904E1,-1.613644409E0,-2.383942566E0,-6.388714600E-1,2.948760278E0
1.165271204E1,-1.537452850E0,-1.534159698E0,-5.948629761E-1,2.251947870E0
1.166264504E1,-1.442699890E0,-9.056167603E-1,-6.505471802E-1,1.823385950E0
1.167257904E1,-1.288670197E0,-3.143463135E-1,-5.483097839E-1,1.435314634E0
1.168251204E1,-1.185384979E0,2.857557678E-1,-4.565505981E-1,1.302010890E0
1.169244504E1,-9.493258667E-1,7.878117371E-1,-3.408412170E-1,1.279859238E0
1.170237904E1,-7.039860535E-1,1.132694550E0,-2.703378296E-1,1.360762965E0
1.171231204E1,-5.182223511E-1,1.230890350E0,-2.667453003E-1,1.361909878E0
1.172224504E1,-4.688250732E-1,1.327888641E0,-2.023791504E-1,1.422688481E0
1.173217804E1,-4.906796265E-1,1.412163391E0,-1.754351807E-1,1.505240659E0
1.174211204E1,-4.995112610E-1,1.479074249E0,-1.401086426E-1,1.567419078E0
1.175204504E1,-5.173242188E-1,1.551523590E0,-1.350192261E-1,1.641060629E0
1.176197804E1,-5.459147644E-1,1.586101685E0,-8.023315430E-2,1.679338811E0
1.177191204E1,-5.421725464E-1,1.580712891E0,-8.981323242E-3,1.671132842E0
1.178184504E1,-5.322930908E-1,1.520238647E0,4.730163574E-2,1.611427604E0
1.179177804E1,-5.065466309E-1,1.431173859E0,1.293310547E-1,1.523671429E0
1.180171104E1,-4.908293152E-1,1.332978058E0,1.935475159E-1,1.433598466E0
1.181164504E1,-4.748126221E-1,1.217418365E0,2.414479065E-1,1.328853489E0
1.182157804E1,-5.010081482E-1,1.013093262E0,2.644999695E-1,1.160744311E0
1.183151104E1,-5.212161255E-1,6.503974915E-1,2.588117981E-1,8.727351793E-1
1.184144504E1,-3.710783386E-1,1.562750244E-1,2.677931213E-1,4.835640314E-1
1.185137804E1,-1.965412903E-1,-1.688488770E-1,2.287243652E-1,3.456201054E-1
1.186131104E1,-1.354682922E-1,-3.245251465E-1,1.788780212E-1,3.945447698E-1
1.187124504E1,-1.589694214E-1,-5.563929749E-1,1.499880981E-1,5.977799336E-1
1.188117804E1,-5.472619629E-1,-2.318977661E0,3.490740967E-1,2.408112492E0
1.189111104E1,-4.937931519E0,-1.554696991E1,5.945635986E-1,1.632314145E1
1.190104404E1,-1.252894592E1,-5.808072052E1,-9.435329132E0,6.016120027E1
1.191097804E1,-5.080734558E0,-5.036127319E1,-1.065050217E1,5.172528296E1
1.192091104E1,-5.989494781E0,-4.755401093E1,-1.006192612E1,4.897448683E1
1.193084404E1,-6.668482819E0,-4.337724655E1,-2.094294891E0,4.393677563E1
1.194077804E1,-5.739664307E0,-3.341516281E1,1.787283325E0,3.395160134E1
1.195071104E1,-3.176244965E0,-2.732702316E1,-7.247927856E-1,2.752053872E1
1.196064404E1,-2.477048950E0,-2.495490601E1,-3.391347656E0,2.530581641E1
1.197057804E1,-3.132086792E0,-2.346834732E1,-4.034260712E0,2.401767168E1
1.198051104E1,-3.257076874E0,-2.154424850E1,-3.244353333E0,2.202927647E1
1.199044404E1,-2.818039856E0,-1.848071915E1,-1.844015350E0,1.878506645E1
1.200037704E1,-2.103126526E0,-1.558948151E1,-1.054557037E0,1.576601298E1
1.201031104E1,-1.650767212E0,-1.309491898E1,-7.003935242E-1,1.321712853E1
1.202024404E1,-1.260079651E0,-1.054916290E1,-7.209008789E-1,1.064858379E1
1.203017729E1,-1.398092651E0,-8.196056213E0,-9.205856323E-1,8.365254235E0
1.204011129E1,-1.093775482E0,-6.339017944E0,-1.246457977E0,6.552339337E0
1.205004429E1,-6.417155457E-1,-4.842130737E0,-1.650467834E0,5.155780541E0
1.205997729E1,-4.577481079E-1,-3.582649841E0,-1.727407837E0,4.003604757E0
1.206991129E1,-1.616638184E-1,-2.399510193E0,-1.623673553E0,2.901740885E0
1.207984429E1,1.718426514E-1,-1.426982574E0,-1.439556427E0,2.034239876E0
1.208977729E1,3.827540588E-1,-6.493496704E-1,-1.359622650E0,1.554583357E0
1.209971029E1,4.068539429E-1,-5.987548828E-3,-1.240769806E0,1.305785470E0
1.210964429E1,3.948788452E-1,5.192701721E-1,-1.047970734E0,1.234428399E0
1.211957729E1,4.131408691E-1,8.819659424E-1,-9.160949707E-1,1.337078643E0
1.212951029E1,3.053649902E-1,1.175655212E0,-8.460406494E-1,1.480269481E0
1.213944429E1,1.956431580E-1,1.205892334E0,-6.718029785E-1,1.394192171E0
1.214937729E1,1.722917175E-1,1.192270660E0,-4.933740234E-1,1.301772519E0
1.215931029E1,1.854643250E-1,1.225501556E0,-4.537065125E-1,1.319886616E0
1.216924329E1,2.152523804E-1,1.258283386E0,-3.076103210E-1,1.313101206E0
1.217917729E1,1.935475159E-1,1.300944672E0,-2.311193848E-1,1.335415235E0
1.218911029E1,1.854643250E-1,1.326541443E0,-2.739303589E-1,1.367167531E0
1.219904329E1,1.416055298E-1,1.373244324E0,-2.640509033E-1,1.405551485E0
1.220897729E1,1.083746338E-1,1.450783081E0,-2.398013306E-1,1.474456268E0
1.221891029E1,8.113128662E-2,1.472787323E0,-2.957849121E-1,1.504384758E0
1.222884329E1,7.873626709E-2,1.442999268E0,-3.731739807E-1,1.492549867E0
1.223877729E1,1.380130005E-1,1.378782806E0,-4.879852295E-1,1.469087880E0
1.224871029E1,2.195933533E-1,1.298549652E0,-6.044430542E-1,1.449069993E0
1.225864329E1,3.472778320E-1,1.207089844E0,-6.505471802E-1,1.414524449E0
1.226857629E1,4.834945679E-1,1.051263885E0,-6.457571411E-1,1.325113218E0
1.227851029E1,6.671626282E-1,6.140231323E-1,-5.996530151E-1,1.087066750E0
1.228844329E1,4.287084961E-1,-7.649093628E-2,-5.623805237E-1,7.112761007E-1
1.229837629E1,9.984237671E-2,-5.105882263E-1,-6.128256226E-1,8.038806383E-1
1.230831029E1,1.152603149E-2,-6.965016174E-1,-7.042854309E-1,9.905883710E-1
1.231824329E1,1.050814819E-1,-1.462159424E0,-7.125183105E-1,1.629918600E0
1.232817629E1,-5.224136353E-2,-1.571641754E1,1.179996185E0,1.576073921E1
1.233811029E1,4.361929321E-1,-4.393798050E1,-2.836301880E0,4.403159097E1
1.234804329E1,2.062560883E0,-6.466462921E1,-4.546944580E0,6.485709779E1
1.235797629E1,-4.769831085E0,-6.156158203E1,-3.030747528E0,6.182042625E1
1.236790929E1,-7.177574158E0,-5.176265900E1,-1.233884125E0,5.227248710E1
1.237784329E1,-5.757177887E0,-4.027554657E1,8.732839966E-1,4.069431623E1
1.238777629E1,-3.517235870E0,-2.770453812E1,7.741900635E-1,2.793764039E1
1.239770929E1,-2.762505341E0,-2.327345261E1,5.393284607E-1,2.344303537E1
1.240764329E1,-3.913162537E0,-2.155308014E1,-5.953120422E-1,2.191352324E1
1.241757629E1,-4.455933838E0,-2.040332108E1,-2.275268555E-2,2.088423748E1
1.242750929E1,-4.019740906E0,-1.827310089E1,1.077010345E0,1.874098408E1
1.243744229E1,-3.566932526E0,-1.557002197E1,1.915416870E0,1.608780326E1
1.244737629E1,-2.731669464E0,-1.254690857E1,2.506537628E0,1.308318247E1
1.245730929E1,-2.415526886E0,-9.632918243E0,3.038681030E0,1.038563751E1
1.246724229E1,-1.770967255E0,-6.982978821E0,3.197949829E0,7.881954157E0
1.247717629E1,-1.352886658E0,-4.799918518E0,2.778372345E0,5.708666480E0
1.248710929E1,-1.055006104E0,-2.987637177E0,2.182311859E0,3.847271608E0
1.249704229E1,-8.452922058E-1,-1.488804016E0,1.522184601E0,2.290873692E0
1.250697629E1,-5.170248413E-1,-2.974314880E-1,1.067430267E0,1.222778619E0
1.251690929E1,-2.342628479E-1,5.291496277E-1,9.045689392E-1,1.073835824E0
1.252684229E1,-1.725910950E-1,1.014290771E0,9.684860229E-1,1.412989254E0
1.253677529E1,-1.495390320E-1,1.247056732E0,1.033151550E0,1.626319323E0
1.254670929E1,-1.064286804E-1,1.219064941E0,7.873626709E-1,1.455124177E0
1.255664229E1,-7.679031372E-2,1.076411591E0,3.532653809E-1,1.135497730E0
1.256657529E1,-7.634124756E-2,1.009650421E0,4.011657715E-2,1.013326847E0
1.257650929E1,-1.193019104E-1,1.028511200E0,-1.938468933E-1,1.053396816E0
1.258644229E1,-1.821711731E-1,1.116228790E0,-2.008822632E-1,1.148697842E0
1.259637529E1,-2.519261169E-1,1.290765839E0,-2.415975952E-1,1.337128497E0
1.260630929E1,-2.046244812E-1,1.352587280E0,-1.995350647E-1,1.382453533E0
1.261624229E1,-1.565744019E-1,1.366208954E0,-8.846603394E-2,1.377994444E0
1.262617529E1,-1.329235840E-1,1.355281677E0,-1.437011719E-2,1.361860347E0
1.263610829E1,-1.203497314E-1,1.274449768E0,1.481918335E-2,1.280205404E0
1.264604229E1,-1.607656860E-1,1.185684357E0,2.918930054E-2,1.196889725E0
1.265597529E1,-2.113604736E-1,1.083297272E0,6.661148071E-2,1.105732028E0
1.266590829E1,-2.767744446E-1,9.617500305E-1,1.077758789E-1,1.006569846E0
1.267584229E1,-3.683839417E-1,7.951464844E-1,1.396595764E-1,8.873947585E-1
1.268577529E1,-3.860472107E-1,5.026547241E-1,1.719923401E-1,6.567157571E-1
1.269570829E1,-3.210823059E-1,2.264790344E-1,2.020797729E-1,4.418402820E-1
1.270564229E1,-2.734812927E-1,2.005828857E-2,1.996847534E-1,3.392172654E-1
1.271557529E1,-1.986369324E-1,-2.016307068E-1,2.133064270E-1,3.544167104E-1
1.272550829E1,-1.254391479E-1,-3.689826965E-1,2.517764282E-1,4.639769175E-1
1.273544129E1,-6.661148071E-2,-4.450245667E-1,3.213816833E-1,5.529648639E-1
1.274537529E1,-5.239105225E-2,-6.089337158E-1,2.803669739E-1,6.724215439E-1
1.275530829E1,8.319699097E-1,-5.208269348E0,5.297483826E-1,5.300837376E0
1.276524129E1,-3.838916931E0,-4.030817871E1,1.143172760E0,4.050670806E1
1.277517529E1,-5.078788605E0,-7.589487579E1,-5.703140259E-1,7.606675702E1
1.278510829E1,-2.309547272E0,-5.552074402E1,-4.965923309E0,5.579020899E1
1.279504129E1,-5.261708221E0,-5.135909821E1,-3.376827850E0,5.173824029E1
1.280497429E1,-5.361849976E0,-4.010729645E1,-8.530760193E-1,4.047310715E1
1.281490829E1,-5.642666016E0,-2.932970856E1,1.267264709E0,2.989443834E1
1.282484129E1,-3.106939087E0,-2.259326706E1,1.278042297E0,2.284167636E1
1.283477429E1,-8.128097534E-2,-2.011367340E1,5.255570984E-1,2.012070264E1
1.284470829E1,4.788542175E-1,-1.892978531E1,8.105644226E-1,1.895318147E1
1.285464129E1,6.445596313E-1,-1.658476181E1,7.077282715E-1,1.661236469E1
1.286457429E1,6.762936401E-1,-1.391685974E1,4.725672913E-1,1.394129399E1
1.287450729E1,5.140310669E-1,-1.169443130E1,4.146377563E-1,1.171306433E1
1.288444129E1,4.272116089E-1,-9.710157623E0,4.408332825E-1,9.729542888E0
1.289437429E1,5.837860107E-3,-7.839946747E0,4.870870972E-1,7.855065430E0
1.290430729E1,-3.324586487E-1,-6.240073700E0,3.779640198E-1,6.260343867E0
1.291424129E1,-5.355862427E-1,-4.880900116E0,2.667453003E-1,4.917437506E0
1.292417429E1,-4.558021545E-1,-3.563789062E0,4.879852295E-2,3.593150342E0
1.293410729E1,-4.331991577E-1,-2.322719879E0,-1.534309387E-1,2.367747917E0
1.294404129E1,-4.305047607E-1,-1.233584747E0,-2.677931213E-1,1.333708676E0
1.295397429E1,-2.357597351E-1,-3.022215271E-1,-3.707789612E-1,5.332893607E-1
1.296390729E1,-1.841171265E-2,4.212240601E-1,-4.581971741E-1,6.226663234E-1
1.297384029E1,1.044827271E-1,8.855584717E-1,-4.367916870E-1,9.929337465E-1
1.298377429E1,1.886077881E-1,1.134640503E0,-3.335064697E-1,1.197584458E0
1.299370729E1,2.577639771E-1,1.295256500E0,-3.573069763E-1,1.368137400E0
1.300364029E1,2.004331970E-1,1.471140747E0,-4.254153442E-1,1.544476215E0
1.301357429E1,2.100132751E-1,1.671274567E0,-4.706213379E-1,1.748927871E0
1.302350729E1,2.411485291E-1,1.807491302E0,-4.769082642E-1,1.884839228E0
1.303344004E1,2.567161560E-1,1.925745392E0,-4.276606750E-1,1.989294385E0
1.304337304E1,2.142045593E-1,1.956880646E0,-3.585044861E-1,2.000947506E0
1.305330704E1,1.954934692E-1,1.966460724E0,-3.008743286E-1,1.998927422E0
1.306324004E1,1.722917175E-1,1.948498077E0,-2.195933533E-1,1.968387775E0
1.307317304E1,1.643582153E-1,1.858535156E0,-1.112187195E-1,1.869100359E0
1.308310704E1,1.381626892E-1,1.739682312E0,-6.646179199E-2,1.746425104E0
1.309304004E1,7.155120850E-2,1.612746277E0,-7.289840698E-2,1.615977818E0
1.310297304E1,-3.832031250E-2,1.495689697E0,-1.360670471E-1,1.502354937E0
1.311290704E1,-1.697470093E-1,1.312470703E0,-2.179467773E-1,1.341228613E0
1.312284004E1,-4.019142151E-1,9.485774231E-1,-3.382965088E-1,1.084333294E0
1.313277304E1,-6.098318481E-1,3.842509460E-1,-4.099974060E-1,8.292415483E-1
1.314270604E1,-4.667294312E-1,-1.987866211E-1,-4.752616882E-1,6.951447007E-1
1.315264004E1,-2.520758057E-1,-6.718029785E-1,-6.741979980E-1,9.845833608E-1
1.316257304E1,-3.936813354E-2,-9.247769165E-1,-7.310797119E-1,1.179508262E0
1.317250604E1,3.338058472E-1,-1.436862030E0,-7.036866760E-1,1.634372594E0
1.318244004E1,4.324207764E0,-1.423375076E1,-1.726210327E0,1.497592186E1
1.319237304E1,5.297334137E0,-5.578314835E1,-1.854643250E-1,5.603441608E1
1.320230604E1,1.027672943E1,-7.530061157E1,-2.338736572E0,7.603461685E1
1.321224004E1,5.603597260E0,-5.473323166E1,-3.412453766E0,5.512505593E1
1.322217304E1,8.873547363E-1,-4.762017334E1,-2.380050659E0,4.768787004E1
1.323210604E1,-1.674418030E0,-3.308060852E1,-1.766326904E-2,3.312296255E1
1.324203904E1,1.826202393E-1,-2.186039108E1,-2.088157654E-1,2.186215114E1
1.325197304E1,1.839225311E0,-2.139321259E1,-6.647676086E-1,2.148241631E1
1.326190604E1,3.289259949E0,-2.168271057E1,-6.277944946E-1,2.193976515E1
1.327183904E1,3.064427490E0,-1.977088623E1,-7.150630188E-1,2.001973959E1
1.328177304E1,1.572030945E0,-1.696227676E1,-6.481521606E-1,1.704729350E1
1.329170604E1,9.048683167E-1,-1.404798706E1,-6.866221619E-1,1.409383472E1
1.330163904E1,6.096821594E-1,-1.141361526E1,-5.438191223E-1,1.144281718E1
1.331157204E1,4.748126221E-1,-9.210197296E0,-1.930984497E-1,9.224449483E0
1.332150604E1,4.186793518E-1,-7.274123383E0,1.742376709E-1,7.288245478E0
1.333143904E1,2.803669739E-1,-5.540578308E0,2.248324585E-1,5.552221471E0
1.334137204E1,1.960922241E-1,-4.002526703E0,1.413061523E-1,4.009817901E0
1.335130604E1,1.248403931E-1,-2.703677673E0,4.011657715E-2,2.706855634E0
1.336123904E1,-6.735992432E-2,-1.572030945E0,-1.646575928E-2,1.573559586E0
1.337117204E1,-1.797761536E-1,-6.412664795E-1,4.939727783E-3,6.660079309E-1
1.338110504E1,-1.606159973E-1,8.592132568E-2,-4.026626587E-2,1.865511859E-1
1.339103904E1,-1.303788757E-1,6.273454285E-1,-1.383123779E-1,6.555083918E-1
1.340097204E1,5.194198608E-2,9.888436890E-1,-1.257385254E-1,9.981582980E-1
1.341090504E1,1.841171265E-1,1.172661438E0,-5.598358154E-2,1.188346804E0
1.342083904E1,2.209405518E-1,1.360071716E0,-6.017486572E-2,1.379213840E0
1.343077204E1,1.794767761E-1,1.537752228E0,-2.240840149E-1,1.564323327E0
1.344070504E1,1.383123779E-1,1.755249939E0,-2.857557678E-1,1.783728965E0
1.345063904E1,1.493893433E-1,1.925745392E0,-2.022294617E-1,1.942088887E0
1.346057204E1,1.263372803E-1,2.085163879E0,5.164260864E-2,2.089625917E0
1.347050504E1,3.442840576E-2,2.140698395E0,3.996688843E-1,2.177960089E0
1.348043804E1,-3.128494263E-2,2.149530029E0,5.840853882E-1,2.227692491E0
1.349037204E1,-7.798782349E-2,2.080822906E0,5.807922363E-1,2.161764485E0
1.350030504E1,-1.591191101E-1,1.928589478E0,6.987469482E-1,2.057431302E0
1.351023804E1,-3.529660034E-1,1.722617798E0,8.675958252E-1,1.960795653E0
1.352017204E1,-6.150709534E-1,1.345701599E0,8.304730225E-1,1.696735251E0
1.353010504E1,-8.273295593E-1,9.672885132E-1,8.602610779E-1,1.536284606E0
1.354003804E1,-9.758207703E-1,6.457571411E-1,8.876541138E-1,1.468726757E0
1.354997204E1,-9.973759460E-1,3.040177917E-1,8.029302979E-1,1.316010129E0
1.355990504E1,-8.087681580E-1,-9.295669556E-2,6.352789307E-1,1.032630718E0
1.356983804E1,-4.348457336E-1,-4.004173279E-1,5.183720398E-1,7.862152505E-1
1.357977104E1,-1.597178650E-1,-5.442681885E-1,4.872367859E-1,7.477548682E-1
1.358970504E1,8.921447754E-2,-7.529342651E-1,6.384223938E-1,9.911873605E-1
1.359963804E1,5.457650757E-1,-2.219584351E0,2.092199249E0,3.098662922E0
1.360957104E1,4.848267975E0,-1.202674026E1,4.800966339E0,1.382741702E1
1.361950504E1,1.511945892E1,-5.903019608E1,2.752775574E0,6.099786767E1
1.362943804E1,2.639790527E1,-7.860738510E1,-1.564247131E-1,8.292161880E1
1.363937104E1,1.516661087E1,-5.811380173E1,8.096662903E-1,6.006576060E1
1.364930404E1,8.288863220E0,-4.741390228E1,3.578159180E0,4.826579126E1
1.365923804E1,6.911577301E0,-2.900383621E1,3.447929993E0,3.001467370E1
1.366917104E1,6.559210052E0,-2.225646744E1,1.990859985E0,2.328813223E1
1.367910404E1,6.679260406E0,-2.122615997E1,1.792672119E0,2.232433784E1
1.368903804E1,5.503455505E0,-1.996024246E1,1.751657410E0,2.077901839E1
1.369897104E1,4.704117737E0,-1.765907776E1,9.912387085E-1,1.830175689E1
1.370890404E1,4.066443787E0,-1.500809052E1,-1.930984497E-2,1.554924818E1
1.371883704E1,3.707340546E0,-1.222687408E1,-2.820135498E-1,1.277968526E1
1.372877104E1,3.412902832E0,-9.790540466E0,-2.953358459E-1,1.037255087E1
1.373870404E1,2.991229706E0,-7.696694641E0,-5.436694336E-1,8.275393646E0
1.374863704E1,2.427052917E0,-6.030659180E0,-8.433462524E-1,6.555201668E0
1.375857104E1,1.987866211E0,-4.579576721E0,-9.316625977E-1,5.078595299E0
1.376850404E1,1.655557251E0,-3.230432281E0,-9.894424438E-1,3.762387392E0
1.377843704E1,1.308578796E0,-2.016157379E0,-1.020727386E0,2.611350884E0
1.378837104E1,9.466314697E-1,-1.021176453E0,-1.010997620E0,1.720763980E0
1.379830404E1,5.432203674E-1,-2.297721863E-1,-1.032552795E0,1.189137881E0
1.380823704E1,2.258802795E-1,3.698808289E-1,-9.650431824E-1,1.057895114E0
1.381817004E1,-5.658233643E-2,7.920030212E-1,-8.840615845E-1,1.188290887E0
1.382810404E1,-1.628613281E-1,1.079555054E0,-8.708889771E-1,1.396570992E0
1.383803704E1,-1.591191101E-1,1.205592957E0,-8.587641907E-1,1.488707225E0
1.384797004E1,-1.917512512E-1,1.262624359E0,-7.396119690E-1,1.475809838E0
1.385790404E1,-1.621128845E-1,1.373992767E0,-6.803352356E-1,1.541749897E0
1.386783704E1,-1.746867371E-1,1.549427948E0,-6.652166748E-1,1.695215516E0
1.387777004E1,-2.585124207E-1,1.760189667E0,-6.704557800E-1,1.901212057E0
1.388770304E1,-3.478765869E-1,1.831291809E0,-4.760101318E-1,1.923859001E0
1.389763704E1,-3.664379883E-1,1.861977997E0,-3.873944092E-1,1.936830733E0
1.390757004E1,-5.066963196E-1,1.843266907E0,-4.361929321E-1,1.960774929E0
1.391750304E1,-6.137237549E-1,1.725162506E0,-4.254153442E-1,1.879845934E0
1.392743704E1,-7.232958984E-1,1.539997559E0,-3.993695068E-1,1.747639963E0
1.393737004E1,-8.607101440E-1,1.302591248E0,-3.541635132E-1,1.600936509E0
1.394730304E1,-1.031504974E0,9.827064514E-1,-2.739303589E-1,1.450776455E0
1.395723704E1,-1.177601166E0,7.126679993E-1,-3.406915283E-1,1.417995381E0
1.396717004E1,-1.171763306E0,4.230203247E-1,-3.167413330E-1,1.285418419E0
1.397710304E1,-7.673043823E-1,-1.002914429E-2,-2.550695801E-1,8.086514017E-1
1.398703604E1,-2.336640930E-1,-3.496728516E-1,-2.854563904E-1,5.082866930E-1
1.399697004E1,2.574645996E-2,-5.429209900E-1,-3.285667419E-1,6.351237560E-1
1.400690304E1,1.682501221E-1,-7.553292847E-1,-4.421804810E-1,8.912653980E-1
1.401683604E1,3.502716064E-1,-1.190474396E0,-5.758525085E-1,1.368037133E0
1.402677004E1,2.693498840E0,-8.859177246E0,1.893712006E0,9.451248734E0
1.403670283E1,1.891197235E1,-3.613680313E1,4.426145782E0,4.102586995E1
1.404663583E1,3.170676544E1,-6.262961105E1,9.369316406E0,7.082069786E1
1.405656883E1,2.534245010E1,-5.594855438E1,6.846462708E0,6.180092691E1
1.406650283E1,1.792208084E1,-4.776357513E1,4.673132172E0,5.122888107E1
1.407643583E1,1.100765945E1,-3.335558670E1,4.851411438E0,3.545842529E1
1.408636883E1,6.932982788E0,-2.222802658E1,4.580474854E0,2.373040594E1
1.409630283E1,7.081923065E0,-1.997835480E1,4.424648895E0,2.165330951E1
1.410623583E1,7.469916229E0,-1.941702209E1,4.169878693E0,2.121811216E1
1.411616883E1,6.171067200E0,-1.842488525E1,3.929777985E0,1.982426851E1
1.412610183E1,4.581372986E0,-1.685405182E1,3.216660919E0,1.775936228E1
1.413603583E1,3.179089050E0,-1.491468475E1,3.197500763E0,1.558134909E1
1.414596883E1,3.207080841E0,-1.224393860E1,3.069666595E0,1.302391082E1
1.415590183E1,2.528242493E0,-1.007509872E1,3.833378448E0,1.107223621E1
1.416583583E1,2.543510742E0,-7.735014954E0,4.283043365E0,9.200237154E0
1.417576883E1,2.292033691E0,-5.373376007E0,3.476370850E0,6.797921921E0
1.418570183E1,1.186283112E0,-3.582500153E0,2.763702850E0,4.677566505E0
1.419563583E1,-7.723937988E-2,-2.441273346E0,1.802850952E0,3.035795287E0
1.420556883E1,-6.378236389E-1,-1.645528107E0,8.764274597E-1,1.970458535E0
1.421550183E1,-8.605604553E-1,-9.626481628E-1,3.555107117E-1,1.339269819E0
1.422543483E1,-8.598120117E-1,-4.231700134E-1,4.819976807E-2,9.595169479E-1
1.423536883E1,-7.861651611E-1,5.224136353E-2,-2.146536255E-1,8.166155764E-1
1.424530183E1,-6.601272583E-1,4.002676392E-1,-4.120930481E-1,8.751016286E-1
1.425523483E1,-5.025050354E-1,6.101312256E-1,-3.905378723E-1,8.816412268E-1
1.426516883E1,-4.649331665E-1,7.277865601E-1,-4.520599365E-1,9.747791096E-1
1.427510183E1,-4.713697815E-1,8.538244629E-1,-5.616320801E-1,1.125449367E0
1.428503483E1,-4.495152283E-1,9.927355957E-1,-6.400689697E-1,1.263833925E0
1.429496783E1,-4.071533203E-1,1.134939880E0,-6.194119263E-1,1.355556525E0
1.430490183E1,-3.864962769E-1,1.278191986E0,-5.372328186E-1,1.439365564E0
1.431483483E1,-4.026626587E-1,1.389710083E0,-4.559518433E-1,1.517011343E0
1.432476783E1,-4.433779907E-1,1.453028412E0,-3.658392334E-1,1.562598462E0
1.433470183E1,-5.023553467E-1,1.481768646E0,-3.050656128E-1,1.594071593E0
1.434463483E1,-5.203179932E-1,1.531165924E0,-2.225871277E-1,1.632404647E0
1.435456783E1,-5.608836365E-1,1.585502930E0,-1.411564636E-1,1.687701141E0
1.436450083E1,-5.767506409E-1,1.574425964E0,-7.948471069E-2,1.678623316E0
1.437443483E1,-5.977070618E-1,1.466201019E0,-2.649490356E-2,1.583572272E0
1.438436783E1,-6.638694763E-1,1.243164825E0,-2.215393066E-2,1.409493619E0
1.439430083E1,-6.373745728E-1,8.077203369E-1,-3.727249146E-2,1.029586192E0
1.440423483E1,-3.026705933E-1,3.424877930E-1,2.260299683E-2,4.576224118E-1
1.441416783E1,-6.331832886E-2,2.829116821E-2,2.399510193E-1,2.497720814E-1
1.442410083E1,-1.751358032E-2,-1.321751404E-1,4.586462402E-1,4.776330882E-1
1.443403483E1,-1.766326904E-2,-2.517764282E-1,5.656736755E-1,6.194272097E-1
1.444396783E1,1.534309387E-1,-6.747967529E-1,7.032376099E-1,9.866280184E-1
1.445390083E1,6.209387512E0,-1.121273300E1,3.500919800E0,1.328677215E1
1.446383383E1,2.866045029E1,-5.612638458E1,9.782157898E0,6.377525437E1
1.447376783E1,3.610701508E1,-6.287255585E1,7.320975952E0,7.287160973E1
1.448370083E1,2.150637726E1,-4.686005402E1,4.115541687E0,5.172355951E1
1.449363383E1,1.631801651E1,-3.638019699E1,5.770500183E0,4.028765404E1
1.450356783E1,9.624835052E0,-2.404210419E1,4.568050690E0,2.629690686E1
1.451350083E1,8.756041718E0,-2.063054855E1,3.655997314E0,2.270801877E1
1.452343383E1,9.775721283E0,-2.130025589E1,3.269800415E0,2.366341527E1
1.453336683E1,9.039851532E0,-2.145308807E1,3.364553375E0,2.352177976E1
1.454330083E1,7.882608032E0,-1.981324814E1,3.266207886E0,2.157239961E1
1.455323383E1,6.903643799E0,-1.721105942E1,2.701432343E0,1.873975989E1
1.456316683E1,5.830076294E0,-1.437550598E1,2.272125092E0,1.567824972E1
1.457310083E1,4.963528290E0,-1.177705948E1,2.002984772E0,1.293629356E1
1.458303383E1,3.974834290E0,-9.514514465E0,1.916464691E0,1.048799934E1
1.459296683E1,3.167263641E0,-7.646399231E0,1.817819824E0,8.473691586E0
1.460289983E1,2.690505066E0,-5.929020538E0,1.452279968E0,6.670923411E0
1.461283383E1,2.112407227E0,-4.363725586E0,1.024469604E0,4.955189527E0
1.462276683E1,1.372346191E0,-3.003953247E0,6.623725891E-1,3.368353697E0
1.463269983E1,8.900491333E-1,-1.854044495E0,2.568658447E-1,2.072594632E0
1.464263383E1,5.755531311E-1,-8.897497559E-1,-6.436614990E-2,1.061630367E0
1.465256683E1,1.700463867E-1,-1.727407837E-1,-1.583706665E-1,2.895451951E-1
1.466249983E1,-1.609153748E-1,4.128414917E-1,-2.091151428E-1,4.899602005E-1
1.467243283E1,-3.683839417E-1,7.225474548E-1,-3.126997375E-1,8.692310848E-1
1.468236683E1,-4.646337891E-1,7.571255493E-1,-3.177891541E-1,9.434583201E-1
1.469229983E1,-5.037025452E-1,8.147557068E-1,-3.814068604E-1,1.031025853E0
1.470223283E1,-6.433621216E-1,9.737251282E-1,-4.561015320E-1,1.253029949E0
1.471216683E1,-7.454498291E-1,1.157542877E0,-5.251080322E-1,1.473546540E0
1.472209983E1,-7.876620483E-1,1.366957397E0,-6.429130554E-1,1.703620036E0
1.473203283E1,-8.918453979E-1,1.529219971E0,-5.987548828E-1,1.868798904E0
1.474196583E1,-1.051712952E0,1.751208344E0,-4.851411438E-1,2.099569652E0
1.475189983E1,-1.040186920E0,1.961820374E0,-4.492158508E-1,2.265507203E0
1.476183283E1,-1.005459137E0,2.029779053E0,-2.606080627E-1,2.280102551E0
1.477176583E1,-9.662406921E-1,2.005529480E0,-1.086740112E-1,2.228806768E0
1.478169983E1,-9.298663330E-1,1.970652008E0,-2.305206299E-2,2.179140228E0
1.479163283E1,-8.936416626E-1,1.929337921E0,3.876937866E-2,2.126603701E0
1.480156583E1,-8.662486267E-1,1.799108734E0,6.481521606E-2,1.997843821E0
1.481149983E1,-7.917036438E-1,1.414259033E0,1.210981750E-1,1.625296293E0
1.482143283E1,-3.336561584E-1,7.685018921E-1,1.510359192E-1,8.513127740E-1
1.483136583E1,-6.421646118E-2,3.014730835E-1,1.450483704E-1,3.406593661E-1
1.484129883E1,5.673202515E-2,-5.658233643E-2,1.922003174E-1,2.082331517E-1
1.485123283E1,1.212478638E-1,-2.737806702E-1,3.014730835E-1,4.249034242E-1
1.486116583E1,1.179547119E-1,-3.002755737E-1,5.313949585E-1,6.216585366E-1
1.487109883E1,3.031196594E-1,-6.155200195E-1,7.580236816E-1,1.022421794E0
1.488103283E1,7.040309601E0,-1.137050491E1,2.057621155E0,1.353100684E1
1.489096583E1,3.535857147E1,-6.536577118E1,1.143217667E1,7.519047334E1
1.490089883E1,3.844664978E1,-6.392367004E1,7.075935516E0,7.492962922E1
1.491083183E1,2.190679459E1,-4.662025269E1,3.448379059E0,5.162602956E1
1.492076583E1,1.532587967E1,-3.343836456E1,3.982019348E0,3.699815253E1
1.493069883E1,8.308322754E0,-2.139860138E1,3.628604279E0,2.323994701E1
1.494063183E1,8.918753357E0,-1.971729767E1,2.780767365E0,2.181853927E1
1.495056583E1,1.058598633E1,-2.075299393E1,2.797981567E0,2.346441059E1
1.496049883E1,8.956474915E0,-2.043475571E1,3.706143036E0,2.261709928E1
1.497043183E1,7.795339508E0,-1.861034958E1,3.968397675E0,2.056357483E1
1.498036483E1,6.657705231E0,-1.609019028E1,3.445235596E0,1.775074394E1
1.499029883E1,5.632487183E0,-1.354862549E1,2.972967682E0,1.497092854E1
1.500023183E1,4.783003693E0,-1.124326950E1,2.573598175E0,1.248645830E1
1.501016483E1,3.855682068E0,-9.232351227E0,2.231559448E0,1.025097317E1
1.502009883E1,3.069666595E0,-7.342680817E0,1.702709198E0,8.138613715E0
1.503003183E1,2.245031433E0,-5.611830139E0,1.062041473E0,6.136834342E0
1.503996442E1,1.447938995E0,-4.087849274E0,3.842509460E-1,4.353698176E0
1.504989742E1,1.006956024E0,-2.695444794E0,-1.167572021E-1,2.879759593E0
1.505983142E1,4.808001709E-1,-1.660796356E0,-3.947291565E-1,1.773478065E0
1.506976442E1,1.185534668E-1,-8.584648132E-1,-5.569917297E-1,1.030173067E0
1.507969742E1,-2.463876343E-1,-2.233355713E-1,-5.189707947E-1,6.163735308E-1
1.508963142E1,-4.935237122E-1,3.085084534E-1,-5.628295898E-1,8.096420613E-1
1.509956442E1,-5.924679565E-1,5.360353088E-1,-6.078858948E-1,1.003930970E0
1.510949742E1,-5.219645691E-1,5.867797852E-1,-4.873864746E-1,9.242851850E-1
1.511943042E1,-5.572911072E-1,6.734495544E-1,-4.203259277E-1,9.699389496E-1
1.512936442E1,-6.192622375E-1,8.141569519E-1,-3.932322693E-1,1.095887256E0
1.513929742E1,-5.807922363E-1,9.180409241E-1,-3.378474426E-1,1.137655332E0
1.514923042E1,-5.830375671E-1,1.010997620E0,-2.401007080E-1,1.191510529E0
1.515916442E1,-5.638774109E-1,1.081650696E0,-7.005432129E-2,1.221815686E0
1.516909742E1,-5.697152710E-1,1.138233032E0,1.294807434E-1,1.279419864E0
1.517903042E1,-6.201603699E-1,1.139580231E0,3.423381042E-1,1.341803773E0
1.518896342E1,-7.104226685E-1,1.207239532E0,4.495152283E-1,1.471119165E0
1.519889742E1,-8.345146179E-1,1.217867432E0,5.312452698E-1,1.569024304E0
1.520883042E1,-9.589059448E-1,1.142274628E0,5.212161255E-1,1.579860179E0
1.521876342E1,-1.101858673E0,9.464817810E-1,4.956193542E-1,1.534782995E0
1.522869742E1,-1.149908752E0,6.942562866E-1,4.504133606E-1,1.416740670E0
1.523863042E1,-9.824070740E-1,4.287084961E-1,3.722758484E-1,1.134682308E0
1.524856342E1,-5.474116516E-1,4.520599365E-2,2.993774414E-1,6.255637063E-1
1.525849742E1,-1.663041687E-1,-2.543211365E-1,3.031196594E-1,4.292060635E-1
1.526843042E1,7.035369873E-3,-3.849993896E-1,3.758683777E-1,5.380994925E-1
1.527836342E1,6.077362061E-2,-4.234693909E-1,5.221142578E-1,6.749985601E-1
1.528829642E1,9.849517822E-2,-4.300556946E-1,6.304888916E-1,7.695228671E-1
1.529823042E1,1.216969299E0,-2.113754425E0,6.345304871E-1,2.520238279E0
1.530816342E1,1.250005600E1,-1.977792160E1,1.030606842E0,2.341964418E1
1.531809642E1,3.835010056E1,-6.849246918E1,3.589535522E0,7.858010761E1
1.532803042E1,3.320754456E1,-5.361116501E1,6.869215393E-1,6.306639272E1
1.533796342E1,2.085388412E1,-4.269631256E1,1.913171539E0,4.755543938E1
1.534789642E1,1.431278641E1,-3.166006256E1,3.596720581E0,3.493067155E1
1.535782942E1,1.144924118E1,-2.126762375E1,3.382066956E0,2.438924600E1
1.536776342E1,1.266037262E1,-1.944606171E1,2.837200012E0,2.337699841E1
1.537769642E1,1.273776169E1,-1.925775330E1,2.816093903E0,2.326030997E1
1.538762942E1,1.078641953E1,-1.804332870E1,2.605182495E0,2.118243453E1
1.539756342E1,9.899214478E0,-1.609542938E1,2.231260071E0,1.902723878E1
1.540749642E1,8.670719147E0,-1.380055161E1,1.797013092E0,1.639712936E1
1.541742942E1,7.019053802E0,-1.173335037E1,1.841770020E0,1.379604088E1
1.542736242E1,5.966742096E0,-9.718689880E0,1.649120636E0,1.152278365E1
1.543729642E1,4.741539917E0,-7.885003052E0,9.532177734E-1,9.250086380E0
1.544722942E1,3.600462799E0,-6.261778564E0,2.167492676E-1,7.226353396E0
1.545716242E1,2.669698334E0,-4.836741943E0,-1.685494995E-1,5.527184704E0
1.546709642E1,2.001787262E0,-3.538341980E0,-4.300556946E-1,4.088026921E0
1.547702942E1,1.461860046E0,-2.520608368E0,-5.581892395E-1,2.966829379E0
1.548696242E1,1.055604858E0,-1.733694763E0,-5.129832458E-1,2.093597612E0
1.549689542E1,6.503974915E-1,-1.070124664E0,-4.541555786E-1,1.332081448E0
1.550682942E1,2.803669739E-1,-4.915777588E-1,-4.426295471E-1,7.184533729E-1
1.551676242E1,-9.430389404E-3,-2.170486450E-2,-3.249742126E-1,3.258347315E-1
1.552669542E1,-2.309696960E-1,2.888992310E-1,-2.294728088E-1,4.352786879E-1
1.553662942E1,-3.737727356E-1,5.340893555E-1,-1.196012878E-1,6.627684102E-1
1.554656242E1,-3.700305176E-1,6.921606445E-1,-9.819580078E-2,7.909812621E-1
1.555649542E1,-4.331991577E-1,7.328759766E-1,-7.649093628E-2,8.547628739E-1
1.556642842E1,-5.360353088E-1,7.984396362E-1,-7.918533325E-2,9.649404241E-1
1.557636242E1,-5.596861267E-1,9.120533752E-1,-5.882766724E-2,1.071704537E0
1.558629542E1,-6.497987366E-1,1.037492523E0,-1.586700439E-2,1.224287914E0
1.559622842E1,-6.750961304E-1,1.153501282E0,2.260299683E-2,1.336723938E0
1.560616242E1,-7.231462097E-1,1.192270660E0,1.916015625E-2,1.394566915E0
1.561609542E1,-8.376580811E-1,1.209035797E0,2.035766602E-2,1.471004097E0
1.562602842E1,-8.333171082E-1,1.256487122E0,-4.640350342E-2,1.508419893E0
1.563596142E1,-9.189390564E-1,1.200653229E0,-1.945953369E-2,1.512083278E0
1.564589542E1,-1.060245209E0,1.128054199E0,-1.990859985E-2,1.548232066E0
1.565582842E1,-1.125808868E0,1.009201355E0,-4.011657715E-2,1.512462338E0
1.566576142E1,-1.228794708E0,7.878117371E-1,-4.565505981E-2,1.460365760E0
1.567569542E1,-1.201551361E0,2.821632385E-1,-5.523513794E-2,1.235472657E0
1.568562842E1,-7.532336426E-1,-2.312690735E-1,-8.771759033E-2,7.928055754E-1
1.569556142E1,-1.824705505E-1,-4.267625427E-1,-1.094224548E-1,4.768595635E-1
1.570549542E1,-2.948867798E-2,-4.381388855E-1,3.068618774E-2,4.402009850E-1
1.571542842E1,1.609153748E-1,-5.813909912E-1,1.890568542E-1,6.321801457E-1
1.572536142E1,2.499202881E0,-3.729045410E0,-3.622467041E-1,4.503667104E0
1.573529442E1,1.567510345E1,-2.308873672E1,2.106120300E-1,2.790775859E1
1.574522842E1,4.069751907E1,-6.337131866E1,4.302502899E0,7.543688500E1
1.575516142E1,3.225687149E1,-4.706303192E1,-6.279441833E-1,5.705987247E1
1.576509442E1,2.079894836E1,-3.452345810E1,1.969304810E0,4.035273936E1
1.577502742E1,1.667218002E1,-2.562521210E1,4.724475403E0,3.093434579E1
1.578496142E1,1.441726913E1,-2.019076309E1,4.565056915E0,2.522626227E1
1.579489442E1,1.555280777E1,-2.002056702E1,4.568799133E0,2.576017971E1
1.580482742E1,1.545865356E1,-2.002086639E1,4.404141541E0,2.567492013E1
1.581476142E1,1.432101929E1,-1.779035477E1,5.993087311E0,2.361155250E1
1.582469442E1,1.278206955E1,-1.535970932E1,7.562423859E0,2.136567872E1
1.583462742E1,1.058598633E1,-1.338606354E1,7.725285187E0,1.873312133E1
1.584456042E1,8.718020782E0,-1.168275558E1,6.478078766E0,1.595168232E1
1.585449442E1,7.697443085E0,-1.020817200E1,4.685855713E0,1.361670479E1
1.586442742E1,6.232738953E0,-8.655450897E0,3.086431732E0,1.110359968E1
1.587436042E1,5.062771912E0,-6.797215118E0,1.807640991E0,8.666104012E0
1.588429442E1,3.853885803E0,-5.199737091E0,7.798782349E-1,6.519042235E0
1.589422742E1,2.466570740E0,-4.093537445E0,2.670446777E-1,4.786682869E0
1.590416042E1,1.788181458E0,-3.165317688E0,1.332229614E-1,3.637935864E0
1.591409342E1,1.617087250E0,-2.401156769E0,-1.451980591E-2,2.894950056E0
1.592402742E1,1.373394012E0,-1.742077332E0,-2.011816406E-1,2.227446654E0
1.593396042E1,9.840536499E-1,-1.254990234E0,-2.797682190E-1,1.619145556E0
1.594389342E1,6.373745728E-1,-7.819738770E-1,-2.659968567E-1,1.043304279E0
1.595382742E1,3.631448364E-1,-3.011737061E-1,-1.628613281E-1,4.991027806E-1
1.596376042E1,-9.280700684E-3,8.696914673E-2,-3.742218018E-2,9.513245218E-2
1.597369342E1,-3.998185730E-1,4.058061218E-1,1.046324158E-1,5.792075986E-1
1.598362642E1,-6.215075684E-1,6.864724731E-1,2.270777893E-1,9.534570973E-1
1.599356042E1,-5.930667114E-1,8.686436462E-1,2.158511353E-1,1.073713938E0
1.600349342E1,-5.770500183E-1,9.494755554E-1,9.969268799E-2,1.115539863E0
1.601342642E1,-5.821394348E-1,1.016835480E0,1.422042847E-2,1.171769147E0
1.602336042E1,-6.530918884E-1,1.108744354E0,-4.565505981E-2,1.287605313E0
1.603329342E1,-7.527845764E-1,1.197509766E0,-1.037342834E-1,1.418264806E0
1.604322642E1,-7.915539551E-1,1.303190002E0,-1.419049072E-1,1.531338907E0
1.605316042E1,-7.511380005E-1,1.392703857E0,-1.413061523E-1,1.588647147E0
1.606309342E1,-6.503974915E-1,1.438658295E0,-1.380130005E-1,1.584866611E0
1.607302642E1,-6.656657410E-1,1.445244598E0,-1.175056458E-1,1.595509450E0
1.608295942E1,-7.135661316E-1,1.407223663E0,-9.624984741E-2,1.580733721E0
1.609289342E1,-8.132588196E-1,1.224753113E0,-7.319778442E-2,1.471994569E0
1.610282642E1,-8.481362915E-1,5.962101746E-1,-3.218307495E-2,1.037225863E0
1.611275942E1,-3.305126953E-1,-5.388793945E-3,3.338058472E-2,3.322377828E-1
1.612269342E1,-6.436614990E-2,-2.618055725E-1,1.447489929E-1,3.060023366E-1
1.613262642E1,-7.813751221E-2,-3.540138245E-1,2.788700867E-1,4.573836289E-1
1.614255942E1,-7.484436035E-2,-4.813989258E-1,4.903802490E-1,6.912448138E-1
1.615249242E1,1.431473236E0,-2.137105865E0,7.872129822E-1,2.689989105E0
1.616242642E1,1.126766876E1,-1.307980042E1,1.516197052E0,1.733033155E1
1.617235942E1,3.998919205E1,-4.884851898E1,2.078128510E0,6.316353303E1
1.618229242E1,3.894301758E1,-4.533158249E1,1.478924561E0,5.978041658E1
1.619222642E1,2.068683151E1,-3.135305099E1,3.660038910E0,3.774062386E1
1.620215942E1,1.283925064E1,-2.090118576E1,3.850892029E0,2.483012873E1
1.621209242E1,8.748706970E0,-1.579380661E1,3.282823334E0,1.835105256E1
1.622202542E1,1.124177261E1,-1.645498169E1,2.828967133E0,2.012826195E1
1.623195942E1,1.413495621E1,-1.905776917E1,2.273921356E0,2.383623861E1
1.624189242E1,1.479403564E1,-1.988090744E1,3.047362976E0,2.496798735E1
1.625182542E1,1.532288589E1,-1.830214050E1,4.172872467E0,2.423163312E1
1.626175842E1,1.471425156E1,-1.627505585E1,5.311704254E0,2.257434038E1
