"Time (s)","Acceleration x (m/s^2)","Acceleration y (m/s^2)","Acceleration z (m/s^2)","Absolute acceleration (m/s^2)"
7.897083342E-4,-2.303260345E0,7.875273285E0,3.417992249E0,8.888622421E0
1.072370834E-2,-2.084415436E0,7.529192963E0,3.414848785E0,8.526120255E0
2.065670834E-2,-1.906136169E0,7.283254395E0,3.736230469E0,8.404675353E0
3.058970833E-2,-2.501298523E0,7.254663849E0,4.725523224E0,9.012059232E0
4.052270833E-2,-1.963017883E0,7.549101563E0,5.325176239E0,9.444568576E0
5.045670833E-2,-1.893861694E0,7.422913971E0,5.593119049E0,9.485217163E0
6.038970833E-2,-1.937570801E0,7.218738556E0,5.943989410E0,9.549627064E0
7.032270834E-2,-1.943558350E0,7.457791443E0,6.194119263E0,9.887526774E0
8.025670833E-2,-1.963167572E0,7.711962891E0,6.018235016E0,9.977351916E0
9.018970833E-2,-1.971849518E0,7.640411682E0,5.042414246E0,9.364295095E0
1.001227083E-1,-2.068698120E0,7.523804169E0,3.638633423E0,8.609691880E0
1.100567083E-1,-1.929936676E0,7.261100464E0,2.443219299E0,7.900478217E0
1.199897083E-1,-1.067879333E0,6.463858337E0,1.660347290E0,6.758593345E0
1.299227083E-1,-1.263821869E0,6.026168518E0,1.396595764E0,6.313670284E0
1.398567083E-1,-1.690285034E0,5.775888977E0,2.341730347E0,6.457682091E0
1.497897083E-1,-1.629511414E0,5.157375183E0,3.012335815E0,6.190960611E0
1.597227083E-1,1.851649475E-1,3.583847351E0,2.888543243E0,4.606726600E0
1.696567083E-1,5.704637146E-1,3.081342316E0,2.794089661E0,4.198456424E0
1.795897083E-1,2.320175171E-2,2.516866150E0,2.360291748E0,3.450526144E0
1.895227083E-1,6.399192810E-1,2.433639221E0,2.149230652E0,3.309273174E0
1.994557083E-1,1.750010834E0,2.371817780E0,1.508113861E0,3.310961328E0
2.093897083E-1,-2.679428101E-1,2.614463196E0,1.000669098E0,2.812214394E0
2.193227083E-1,-3.157533875E0,2.366129608E0,6.152206421E-1,3.993380264E0
2.292557083E-1,-2.217788086E0,1.486109619E0,-2.374063110E-1,2.680199163E0
2.391897083E-1,1.980381775E-1,-4.757107544E-1,-6.242019653E-2,5.190531018E-1
2.491227083E-1,1.566342773E0,-2.342778168E0,9.214837646E-1,2.964990987E0
2.590557083E-1,2.249671783E0,-4.676874390E0,2.578986969E0,5.795286962E0
2.689897083E-1,2.680775299E0,-9.062005463E0,4.746329956E0,1.057516654E1
2.789227083E-1,2.413730621E0,-1.133772308E1,7.234156494E0,1.366393356E1
2.888557083E-1,5.607339478E-1,-9.330397339E0,1.105121887E1,1.447412089E1
2.987897083E-1,-1.483415222E0,-5.960904236E0,1.578916626E1,1.694197955E1
3.087227083E-1,-2.965034180E0,-3.721111908E0,2.086136856E1,2.139707456E1
3.186557083E-1,-4.298610992E0,-1.412163391E0,2.418356003E1,2.460318755E1
3.285897083E-1,-3.271596680E0,1.399589539E0,2.099938156E1,2.129873756E1
3.385227083E-1,-3.071013794E0,6.472540283E-1,1.657353516E1,1.686808024E1
3.484557083E-1,-3.663631439E0,-1.378782806E0,1.392838577E1,1.446800496E1
3.583887083E-1,-2.165546722E0,-2.532284088E0,1.275467651E1,1.318270944E1
3.683227083E-1,-2.817740479E0,-8.093669128E-1,1.345791412E1,1.377353218E1
3.782557083E-1,-3.063978424E0,1.119821320E0,1.393182861E1,1.430866213E1
3.881887083E-1,-3.022364960E0,3.054098969E0,1.292472290E1,1.362023027E1
3.981227083E-1,-2.176473999E0,4.556524658E0,1.045111679E1,1.160710120E1
4.080557083E-1,-1.867217102E0,5.433700562E0,5.764512634E0,8.138870156E0
4.179887083E-1,-2.252366180E0,3.347638550E0,1.515298920E0,4.309984697E0
4.279227083E-1,-1.522034912E0,-1.061592407E0,5.489085388E-1,1.935166478E0
4.378557083E-1,6.307882690E-1,-4.129911804E0,1.525477753E0,4.447600221E0
4.477887083E-1,2.790646820E0,-4.274810486E0,5.225633240E0,7.305406020E0
4.577227083E-1,2.192341003E0,-4.970264282E0,9.519903259E0,1.096076841E1
4.676557083E-1,1.181044006E-1,-5.936355286E0,1.204709793E1,1.343081648E1
4.775887083E-1,-1.409618683E0,-5.131928101E0,1.276171188E1,1.382696644E1
4.875227083E-1,-2.365830231E0,-4.712799683E0,1.245949036E1,1.352946908E1
4.974557083E-1,-3.101849670E0,-4.456682281E0,1.244661713E1,1.357946119E1
5.073887083E-1,-4.015998688E0,-4.294419708E0,1.219918167E1,1.354216820E1
5.173217083E-1,-5.061873779E0,-5.080884247E0,1.160237274E1,1.364012478E1
5.272557083E-1,-5.083728333E0,-5.939947815E0,1.098745148E1,1.348522761E1
5.371887083E-1,-4.510270844E0,-6.713389435E0,1.003064117E1,1.288510392E1
5.471217083E-1,-5.330115967E0,-7.186854858E0,8.317902832E0,1.221673142E1
5.570557083E-1,-7.056925049E0,-6.867868195E0,6.206842804E0,1.164013326E1
5.669887083E-1,-9.534123688E0,-6.784641266E0,4.627776489E0,1.258360786E1
5.769217083E-1,-1.164114212E1,-7.290589142E0,4.245770874E0,1.437690684E1
5.868557083E-1,-1.209859085E1,-7.849227448E0,4.743485870E0,1.518179602E1
5.967887083E-1,-1.172347092E1,-8.685987396E0,5.532046051E0,1.560415589E1
6.067217083E-1,-1.083117645E1,-9.253457336E0,6.312523041E0,1.558168165E1
6.166557083E-1,-1.004815475E1,-9.219477997E0,7.105723572E0,1.537710948E1
6.265887083E-1,-9.447753296E0,-8.636889496E0,7.870782623E0,1.502681342E1
6.365217083E-1,-9.646689606E0,-7.823331299E0,7.790549469E0,1.466137081E1
6.464557083E-1,-1.044887146E1,-7.266938324E0,7.130721588E0,1.458884840E1
6.563887083E-1,-1.122500748E1,-7.325765991E0,6.554869080E0,1.492092319E1
6.663217083E-1,-1.253643036E1,-7.800728302E0,5.678890686E0,1.581971073E1
6.762547083E-1,-1.383228561E1,-8.325836334E0,5.063071289E0,1.691999902E1
6.861887083E-1,-1.401161270E1,-8.839568024E0,5.421575775E0,1.743148695E1
6.961217083E-1,-1.313907715E1,-8.581804047E0,5.647905121E0,1.667877517E1
7.060547083E-1,-1.159922928E1,-7.840246124E0,5.775140533E0,1.514476237E1
7.159887083E-1,-1.009859985E1,-7.783813477E0,6.337521057E0,1.423845653E1
7.259217083E-1,-9.151968384E0,-7.705825653E0,6.757697296E0,1.374062397E1
7.358547083E-1,-8.885821838E0,-6.807693329E0,6.724017334E0,1.305813644E1
7.457887083E-1,-9.369915161E0,-6.327491913E0,6.234535217E0,1.291130874E1
7.557217083E-1,-9.940827942E0,-6.783892822E0,6.980134735E0,1.391271156E1
7.656547083E-1,-1.021909927E1,-6.924899597E0,1.009650421E1,1.594752713E1
7.755887083E-1,-9.973310394E0,-7.495363312E0,1.025008484E1,1.614656715E1
7.855217083E-1,-9.789642334E0,-8.987909546E0,5.625451813E0,1.443140059E1
7.954547083E-1,-9.556726685E0,-9.236991577E0,1.689686279E0,1.339806247E1
8.053877083E-1,-9.783056030E0,-8.948691101E0,-7.122189331E-1,1.327759442E1
8.153217083E-1,-9.948761444E0,-9.078471222E0,-9.813592529E-1,1.350405717E1
8.252547083E-1,-9.823322296E0,-9.376202087E0,-1.142723694E0,1.362778940E1
8.351877083E-1,-8.633296967E0,-9.263187103E0,-8.144563293E-1,1.268872692E1
8.451217083E-1,-6.535708923E0,-8.408314819E0,3.953279114E-1,1.065699458E1
8.550547083E-1,-3.541635132E0,-7.005581818E0,1.284329224E0,7.954298056E0
8.649877083E-1,-1.465003510E0,-4.362677765E0,2.679428101E0,5.325272529E0
8.749217083E-1,-3.201392670E0,-4.810696106E0,2.933449860E0,6.480496904E0
8.848547083E-1,-8.279432831E0,-8.305029602E0,2.395767975E0,1.196922006E1
8.947877083E-1,-1.286858963E1,-1.005713608E1,-2.460882568E-1,1.633423229E1
9.047214167E-1,-1.430844543E1,-1.093131821E1,-6.936575317E-1,1.801961402E1
9.146544167E-1,-1.303609131E1,-1.010773087E1,-5.890251160E-1,1.650614584E1
9.245874167E-1,-1.042761566E1,-8.542735291E0,-2.184257813E0,1.365593193E1
9.345204167E-1,-9.220376129E0,-7.819738770E0,-2.055375824E0,1.226328749E1
9.444544167E-1,-9.322014771E0,-7.638166351E0,-1.987866211E0,1.221446506E1
9.543874167E-1,-9.883796539E0,-7.530390472E0,-2.439028015E0,1.266274348E1
9.643204167E-1,-9.614506531E0,-6.953041077E0,-7.268884277E-1,1.188746747E1
9.742544167E-1,-8.325536957E0,-5.430108032E0,5.016518097E0,1.113400614E1
9.841874167E-1,-7.806266785E0,-3.453318787E0,8.514893188E0,1.205680794E1
9.941204167E-1,-7.498207397E0,-2.516267395E0,4.509821777E0,9.104570734E0
1.004054417E0,-4.984185333E0,-2.869832153E0,8.084687805E-1,5.807896503E0
1.013987417E0,-2.890040131E0,-4.007167053E0,-4.262236633E0,6.525057921E0
1.023920417E0,4.733157349E-1,-2.918331299E0,-4.379442902E0,5.283957370E0
1.033854417E0,4.585713959E0,5.254074097E-2,4.627626801E0,6.515094999E0
1.043787417E0,7.853867798E0,1.866618347E0,1.547287399E1,1.745214408E1
1.053720417E0,3.006048889E0,-5.852828979E-2,5.493426361E0,6.262386819E0
1.063653417E0,1.403481445E0,6.536906433E-1,-1.499880981E0,2.155623943E0
1.073587417E0,2.252515869E0,-4.810995483E-1,1.264869690E-1,2.306790729E0
1.083520417E0,1.879042511E0,-3.063379669E0,3.715124359E0,5.168872678E0
1.093453417E0,2.198927307E0,-4.224215698E0,6.044131165E0,7.694855496E0
1.103387417E0,2.535277863E0,-4.540957031E0,6.373895416E0,8.226449257E0
1.113320417E0,-1.031355286E0,-5.583688660E0,3.408412170E0,6.622578523E0
1.123253417E0,-5.456902313E0,-6.428232422E0,-2.604134674E0,8.825048007E0
1.133187417E0,-9.305099945E0,-8.508306885E0,-5.081183624E0,1.359391769E1
1.143120417E0,-1.117546051E1,-1.031969009E1,-3.068618774E0,1.551783949E1
1.153053417E0,-1.067699707E1,-8.136629791E0,-7.038363647E-1,1.344241037E1
1.162987417E0,-8.519084473E0,-6.120622101E0,1.385967865E0,1.058100761E1
1.172920417E0,-7.604336700E0,-7.664361877E0,4.267326050E0,1.160941218E1
1.182853417E0,-5.476661224E0,-9.268575897E0,5.621559906E0,1.214505056E1
1.192787417E0,-3.731141052E0,-9.921218719E0,5.515430603E0,1.194872249E1
1.202720417E0,-3.577410736E0,-1.109762238E1,3.663930817E0,1.222208980E1
1.212653417E0,-4.743036804E0,-1.219079910E1,2.650538177E0,1.334680986E1
1.222586417E0,-6.826703796E0,-1.278670990E1,1.700613556E0,1.459437978E1
1.232520417E0,-7.545359344E0,-1.514460663E1,-4.336482239E-1,1.692570850E1
1.242453417E0,-7.393874359E0,-1.501527557E1,-2.818638611E0,1.697270168E1
1.252386417E0,-6.691684570E0,-1.425156372E1,-2.462978210E0,1.593587062E1
1.262320417E0,-5.566025391E0,-1.351734055E1,-3.538641357E-1,1.462273415E1
1.272253417E0,-3.900139618E0,-1.123294098E1,1.034049683E0,1.193563198E1
1.282186417E0,-6.776408386E-1,-8.475225677E0,2.771037598E0,8.942443556E0
1.292120417E0,-8.527766418E-1,-7.295528870E0,4.742138672E0,8.742988543E0
1.302053417E0,-2.167941742E0,-7.668702850E0,3.767216034E0,8.814810914E0
1.311986417E0,-2.047592010E0,-9.086404724E0,1.405577087E0,9.419715006E0
1.321920417E0,-1.582209778E0,-1.194545929E1,-1.072369995E0,1.209741141E1
1.331853417E0,-4.671784973E-1,-1.365086288E1,-9.499246216E-1,1.369184685E1
1.341786417E0,-1.180445251E0,-1.385728363E1,2.705923004E0,1.416826665E1
1.351719417E0,-3.334465942E0,-1.202973404E1,3.498973846E0,1.296441214E1
1.361653417E0,-3.488645325E0,-1.154129974E1,1.902393951E0,1.220620124E1
1.371586417E0,-2.856958923E0,-1.265064285E1,8.767268372E-1,1.299883183E1
1.381519417E0,-2.953657837E0,-1.285736298E1,8.190966797E-1,1.321766987E1
1.391453417E0,-3.129542084E0,-1.310390030E1,4.092489624E-1,1.347863945E1
1.401386417E0,-3.986210632E0,-1.232671646E1,1.356179810E-1,1.295593324E1
1.411319417E0,-2.929707642E0,-9.276958466E0,1.517843628E-1,9.729757640E0
1.421253417E0,-9.150471497E-1,-6.113437042E0,3.670367432E-1,6.192425997E0
1.431186417E0,-4.258644104E-1,-4.198768616E0,1.879341888E0,4.619842456E0
1.441119417E0,4.349954224E-1,-3.218756561E0,3.214116211E0,4.569481134E0
1.451052417E0,5.770500183E-1,-4.440665588E0,3.057541809E0,5.422274385E0
1.460986417E0,-1.888472900E0,-4.057163086E0,1.681154022E0,4.780500083E0
1.470919417E0,-1.407223663E0,-2.123484192E0,2.357597351E-1,2.558328791E0
1.480852417E0,-6.560856628E-1,-1.386566620E0,6.337820435E-1,1.659727407E0
1.490786417E0,-1.182989960E0,-4.992118835E-1,2.123334503E0,2.481376062E0
1.500719417E0,-9.818083191E-1,2.613565063E-1,2.220033417E0,2.441475613E0
1.510652417E0,-2.017205200E0,1.920356598E0,2.862347717E0,3.993735186E0
1.520586417E0,-2.118394775E0,3.544030151E0,9.416917419E-1,4.234917883E0
1.530519417E0,-2.035167847E0,-8.638536072E-1,3.505260773E0,4.144273676E0
1.540452417E0,-1.068328400E0,-6.323001251E0,2.131717072E0,6.757654036E0
1.550386417E0,-2.727328491E-1,-1.013242950E1,-2.185006256E0,1.036893260E1
1.560319417E0,1.330732727E-1,-1.757615021E1,1.213975525E-1,1.757707319E1
1.570252417E0,-4.781057739E-1,-1.849239487E1,2.127226410E0,1.862048187E1
1.580185417E0,-1.258433075E0,-1.524085648E1,3.007994843E0,1.558574326E1
1.590119417E0,-2.643502808E-1,-1.137170242E1,3.306623840E0,1.184564301E1
1.600052417E0,-6.017486572E-2,-9.642648010E0,3.511996765E0,1.026247548E1
1.609985417E0,-2.520758057E0,-9.826166382E0,5.436694336E0,1.150936194E1
1.619919417E0,-3.826492767E0,-9.012308807E0,4.705614624E0,1.086308271E1
1.629852417E0,-4.802463226E0,-6.937473450E0,4.494703217E0,9.560049577E0
1.639785417E0,-4.689298553E0,-6.433621216E0,9.598040771E-1,8.018866924E0
1.649719417E0,-5.462590485E0,-1.299387909E1,1.438508606E0,1.416863069E1
1.659652417E0,-5.415887604E0,-1.808928314E1,5.130431213E0,1.956720030E1
1.669585417E0,-3.981121216E0,-1.808973221E1,5.304519196E0,1.926721727E1
1.679518417E0,-1.340013428E0,-1.304013290E1,4.377946014E0,1.382053231E1
1.689452417E0,1.131047974E0,-7.349865875E0,1.818867645E0,7.655591252E0
1.699385417E0,-5.945336609E0,-2.485042328E1,5.615422668E0,2.616148957E1
1.709318417E0,-4.469854889E0,-2.054253159E1,4.192631378E0,2.143719582E1
1.719252417E0,-2.693498840E0,-8.590036926E0,1.389410706E0,9.109013805E0
1.729185417E0,-1.581461334E0,-1.665736084E0,7.929011536E-1,2.429894832E0
1.739118417E0,-3.498524780E0,-1.033256332E1,7.536827087E-1,1.093478752E1
1.749052417E0,-6.058501282E0,-1.745310608E1,1.733694763E0,1.855591677E1
1.758985417E0,-9.033265228E0,-1.779619263E1,3.773203583E0,2.031111563E1
1.768918417E0,-9.395811310E0,-1.296124695E1,2.603835297E0,1.621897503E1
1.778852417E0,-7.902366943E0,-1.237970627E1,2.546205139E-1,1.468908990E1
1.788785417E0,-5.012925568E0,-1.302935532E1,-3.323089600E-2,1.396046658E1
1.798718417E0,-3.311713257E0,-1.370639740E1,9.430389404E-1,1.413230685E1
1.808652417E0,-3.574866028E0,-1.457908264E1,1.377734985E0,1.507406619E1
1.818585417E0,-3.506458282E0,-1.258283386E1,1.370699615E0,1.313399311E1
1.828518417E0,-1.235979767E0,-6.754404144E0,2.951861572E-1,6.872900130E0
1.838451417E0,1.501228180E0,-5.249583435E-1,-6.107299805E-2,1.591539262E0
1.848385417E0,-1.164578247E-1,-3.798201599E0,-3.263214111E-1,3.813972139E0
1.858318417E0,-1.393601990E-1,-7.022796021E0,-2.067949677E0,7.322260653E0
1.868251417E0,3.713777161E-1,-6.316714325E0,-6.396199036E-1,6.359867522E0
1.878185417E0,-8.039781189E-1,-7.082821198E0,1.550176392E0,7.294914926E0
1.888118417E0,-3.011587372E0,-7.868537292E0,1.692081299E0,8.593408913E0
1.898051417E0,-3.611539764E0,-8.066575470E0,2.279459839E0,9.127365252E0
1.907985208E0,-3.695664825E0,-7.922574921E0,2.721640320E0,9.156006657E0
1.917918208E0,-3.609144745E0,-7.669002228E0,3.029100952E0,9.000831825E0
1.927851208E0,-3.470532990E0,-7.627837830E0,3.115920410E0,8.940775648E0
1.937784208E0,-3.346441040E0,-7.584577789E0,3.184926910E0,8.880779656E0
1.947718208E0,-2.949466553E0,-7.656278687E0,2.919977875E0,8.708859114E0
1.957651208E0,-2.374961243E0,-7.494614868E0,1.661095734E0,8.035479573E0
1.967584208E0,-1.848056946E0,-7.070097656E0,5.315446472E-1,7.326945820E0
1.977518208E0,-1.014440460E0,-6.902895355E0,1.174308014E0,7.075171591E0
1.987451208E0,1.437011719E-1,-6.724167023E0,2.955154724E0,7.346292372E0
1.997384208E0,4.719685364E-1,-6.728507996E0,4.025878143E0,7.855142836E0
2.007318208E0,5.089416504E-3,-7.293283539E0,4.079017639E0,8.356458316E0
2.017251208E0,-1.049916687E0,-7.975265350E0,4.240831146E0,9.093504895E0
2.027184208E0,-2.752027130E0,-8.341553650E0,4.774022369E0,9.997322652E0
2.037118208E0,-4.595443726E0,-8.561296692E0,4.896916809E0,1.088088684E1
2.047051208E0,-6.352639618E0,-8.560548248E0,3.613485718E0,1.125594489E1
2.056984208E0,-7.434889069E0,-8.508157196E0,3.033591614E0,1.169910221E1
2.066917208E0,-7.371870117E0,-8.368497620E0,3.730093231E0,1.175966908E1
2.076851208E0,-6.606811066E0,-7.912396088E0,5.418731689E0,1.164554067E1
2.086784208E0,-5.869893494E0,-7.626939697E0,6.310277710E0,1.150849528E1
2.096717208E0,-5.501509552E0,-7.402556305E0,6.714736633E0,1.140842387E1
2.106651208E0,-5.518424377E0,-6.948550415E0,7.128027191E0,1.138174557E1
2.116584208E0,-5.827531586E0,-5.648354187E0,7.164251862E0,1.082545769E1
2.126517208E0,-5.756279755E0,-5.257516937E0,6.763385468E0,1.032083446E1
2.136451208E0,-5.772446136E0,-5.266049194E0,6.598727875E0,1.022719991E1
2.146384208E0,-5.408702545E0,-5.193150787E0,6.341113586E0,9.820010175E0
2.156317208E0,-4.783003693E0,-5.202281799E0,6.397396545E0,9.532446842E0
2.166250208E0,-4.505480804E0,-5.714067535E0,6.213578796E0,9.568619887E0
2.176184208E0,-4.152514801E0,-6.405330048E0,6.147865448E0,9.801422435E0
2.186117208E0,-3.679199066E0,-6.852001190E0,6.180647278E0,9.934124363E0
2.196050208E0,-3.445684662E0,-7.006779327E0,5.695206757E0,9.664526855E0
2.205984208E0,-3.340004425E0,-6.721772003E0,5.689817963E0,9.418698258E0
2.215917208E0,-3.409459991E0,-6.394851837E0,6.283932495E0,9.591994321E0
2.225850208E0,-3.695515137E0,-6.616840210E0,5.952821045E0,9.637192791E0
2.235784208E0,-4.012705536E0,-7.722890167E0,5.762716370E0,1.043809074E1
2.245717208E0,-4.176315308E0,-8.924890594E0,5.860463104E0,1.146474201E1
2.255650208E0,-4.179159393E0,-9.794432373E0,5.743705902E0,1.209902625E1
2.265583208E0,-4.223467255E0,-1.060335022E1,6.018983459E0,1.290336675E1
2.275517208E0,-4.651576996E0,-1.125763962E1,6.238876190E0,1.368558345E1
2.285450208E0,-5.162614288E0,-1.165955383E1,6.292015686E0,1.421925607E1
2.295383208E0,-5.634582825E0,-1.178634018E1,6.261179810E0,1.448684614E1
2.305317208E0,-5.937253418E0,-1.168634811E1,5.903723145E0,1.437621847E1
2.315250208E0,-6.030210114E0,-1.151315826E1,5.641767883E0,1.416847882E1
2.325183208E0,-6.244264984E0,-1.148037643E1,5.425168304E0,1.414999432E1
2.335117208E0,-6.582860870E0,-1.181283508E1,4.850662994E0,1.436683895E1
2.345050208E0,-6.800508270E0,-1.243928238E1,4.590054932E0,1.490138460E1
2.354983208E0,-6.819069672E0,-1.314237030E1,4.867128754E0,1.558558791E1
2.364916208E0,-6.736441498E0,-1.391057281E1,5.381608887E0,1.636598284E1
2.374850208E0,-6.631809082E0,-1.458042984E1,5.697452087E0,1.700090546E1
2.384783208E0,-6.629713440E0,-1.490735001E1,5.619314575E0,1.725569126E1
2.394716208E0,-6.325246582E0,-1.434691544E1,5.554649048E0,1.663420731E1
2.404650208E0,-5.636828156E0,-1.307381287E1,5.263654175E0,1.517908000E1
2.414583208E0,-4.867577820E0,-1.171433990E1,4.683909760E0,1.352250287E1
2.424516208E0,-4.209845581E0,-1.040935364E1,4.024830322E0,1.192797980E1
2.434450208E0,-3.715423737E0,-9.102870483E0,3.434757385E0,1.041461391E1
2.444383208E0,-3.312461700E0,-7.654482422E0,3.057392120E0,8.883194822E0
2.454316208E0,-2.959495697E0,-6.147715759E0,2.954256592E0,7.435096223E0
2.464250208E0,-3.008443909E0,-4.592899017E0,2.755170593E0,6.142997732E0
2.474183208E0,-3.191363525E0,-3.171454926E0,2.435285797E0,5.116008640E0
2.484116208E0,-3.260370026E0,-1.922751617E0,2.128573608E0,4.342558243E0
2.494049208E0,-3.217559052E0,-1.023870850E0,1.868564301E0,3.859084129E0
2.503983208E0,-2.854713593E0,-6.770420837E-1,1.538650360E0,3.312887050E0
2.513916208E0,-2.356848907E0,-3.974235535E-1,1.284329224E0,2.713334445E0
2.523849208E0,-1.926344147E0,1.582209778E-1,9.439370728E-1,2.151012052E0
2.533783208E0,-1.607507172E0,6.474037170E-1,6.854246521E-1,1.863603454E0
2.543716208E0,-1.475032654E0,9.060658264E-1,7.797285461E-1,1.898592431E0
2.553649208E0,-1.340911560E0,1.156794434E0,6.324348450E-1,1.880476271E0
2.563583208E0,-1.156195679E0,1.404978333E0,9.116043091E-2,1.821829516E0
2.573516208E0,-7.900570679E-1,9.093589783E-1,-2.294728088E-1,1.226287769E0
2.583449208E0,-5.748046875E-1,-1.800755310E-1,1.040336609E-1,6.112696854E-1
2.593382208E0,-7.472460938E-1,-6.017486572E-1,1.066532135E0,1.434562291E0
2.603316208E0,-3.035687256E-1,-5.526507568E-1,2.226170654E0,2.313744284E0
2.613249208E0,1.038240967E0,-3.914360046E-1,2.676584015E0,2.897458963E0
2.623182208E0,2.370620270E0,-4.571493530E-1,2.915337524E0,3.785236964E0
2.633116208E0,3.989204407E0,-2.806663513E-1,3.748654633E0,5.481326204E0
2.643049208E0,6.329138489E0,-1.151106262E-1,5.805227966E0,8.589057935E0
2.652982208E0,7.432344360E0,-2.347119141E0,8.103398895E0,1.124338848E1
2.662916208E0,4.606071625E0,-6.169420624E0,8.527317352E0,1.148881142E1
2.672849208E0,-3.468287659E-1,-1.094419144E1,7.639214172E0,1.335115012E1
2.682782208E0,-6.695426788E0,-1.858460312E1,5.400170288E0,2.047872194E1
2.692715208E0,-1.235515732E1,-3.076776810E1,5.115312653E0,3.354805344E1
2.702649208E0,-1.843102249E1,-4.260530182E1,5.658832397E0,4.676469520E1
2.712582208E0,-2.325998062E1,-4.135869415E1,4.405937805E0,4.765480635E1
2.722515208E0,-1.701811066E1,-2.601440277E1,7.814948730E0,3.205368412E1
2.732449208E0,-8.924441528E0,-1.832249817E1,9.673633575E0,2.255967159E1
2.742382208E0,-5.391338654E0,-1.712364120E1,9.222471771E0,2.018265607E1
2.752315208E0,-5.389692078E0,-1.682201843E1,6.731501770E0,1.890349706E1
2.762249208E0,-5.754483490E0,-1.642190048E1,4.802762604E0,1.805157678E1
2.772182208E0,-4.912933502E0,-1.606115067E1,4.248165894E0,1.732467575E1
2.782115208E0,-4.361480255E0,-1.555505310E1,3.581751709E0,1.654723942E1
2.792048208E0,-4.595294037E0,-1.479074249E1,2.843187561E0,1.574695229E1
2.801982208E0,-4.942871246E0,-1.379142059E1,2.326761475E0,1.483405127E1
2.811915208E0,-4.913831635E0,-1.262699203E1,2.021995239E0,1.369945743E1
2.821848208E0,-4.947810974E0,-1.128952332E1,2.137105865E0,1.251005162E1
2.831782208E0,-4.884342957E0,-9.533824310E0,1.871258698E0,1.087438372E1
2.841715208E0,-4.387077026E0,-7.751031647E0,1.660347290E0,9.059894566E0
2.851648208E0,-3.548969879E0,-5.989943848E0,1.542242889E0,7.131137892E0
2.861582208E0,-2.471211090E0,-4.114942932E0,1.173260193E0,4.941273021E0
2.871515208E0,-1.509461060E0,-2.484084320E0,7.908055115E-1,3.012394555E0
2.881448208E0,-8.289761353E-1,-1.255139923E0,2.987786865E-1,1.533573071E0
2.891381208E0,-6.718029785E-1,-1.739382935E-1,-1.565744019E-1,7.113995468E-1
2.901315208E0,-3.972738647E-1,8.008346558E-1,-5.215155029E-1,1.034959463E0
2.911248208E0,-3.185375977E-1,9.134005737E-1,-9.280700684E-2,9.717921330E-1
2.921181208E0,-2.149530029E-1,5.520520020E-1,5.388793945E-1,8.008478059E-1
2.931115208E0,9.789642334E-2,3.180885315E-1,8.912466431E-1,9.513593445E-1
2.941048208E0,4.210743713E-1,2.448907471E-1,1.272054749E0,1.362130092E0
2.950981208E0,6.288423157E-1,1.426533508E-1,1.528022461E0,1.658506942E0
2.960915208E0,5.014572144E-1,1.098715210E-1,1.466051331E0,1.553331128E0
2.970848208E0,2.618055725E-1,6.062393188E-2,1.224603424E0,1.253742783E0
2.980781208E0,1.017883301E-1,2.097138977E-1,9.833052063E-1,1.010559207E0
2.990714208E0,-5.688171387E-2,3.248245239E-1,6.924600220E-1,7.669728696E-1
3.000648208E0,-2.469863892E-1,4.631369019E-1,5.152285767E-1,7.354988460E-1
3.010581208E0,-1.989363098E-1,4.912783813E-1,5.499563599E-1,7.637945412E-1
3.020514208E0,-5.837860107E-3,1.407073975E-1,5.110372925E-1,5.300865652E-1
3.030448208E0,5.044509888E-2,-1.372645569E-1,5.279521179E-1,5.478318222E-1
3.040381208E0,-4.625381470E-2,-2.070195007E-1,6.953041077E-1,7.269417385E-1
3.050314208E0,-5.688171387E-2,-5.463638306E-1,8.126600647E-1,9.809002730E-1
3.060248208E0,-2.007325745E-1,-1.305435333E0,1.293160858E0,1.848437173E0
3.070181208E0,-1.118174744E-1,-2.989283752E0,2.693947906E0,4.025627383E0
3.080114208E0,-2.112107849E-1,-5.794001312E0,4.655618591E0,7.435714200E0
3.090047208E0,-1.961371307E0,-9.969568176E0,5.616769867E0,1.160979633E1
3.099981208E0,-5.718109131E0,-1.604842712E1,3.878734131E0,1.747264615E1
3.109914208E0,-9.563163300E0,-2.333602249E1,1.625320129E0,2.527183617E1
3.119847208E0,-1.195503937E1,-3.192336502E1,1.817221069E0,3.413687878E1
3.129781208E0,-1.247251328E1,-3.789579529E1,5.370681610E0,4.025542335E1
3.139714208E0,-1.039154068E1,-3.300621323E1,1.021161484E1,3.607868217E1
3.149647208E0,-8.779842224E0,-2.514066971E1,1.293340485E1,2.960425415E1
3.159581208E0,-8.735234985E0,-2.418700287E1,1.234228409E1,2.852450551E1
3.169514208E0,-9.570048981E0,-2.393597488E1,8.063731384E0,2.701000731E1
3.179447208E0,-1.089389603E1,-2.285133041E1,4.539310455E0,2.571897377E1
3.189380208E0,-1.027942383E1,-2.107976440E1,4.476291504E0,2.387593364E1
3.199314208E0,-7.596403198E0,-1.901525757E1,4.214934998E0,2.090576569E1
3.209247208E0,-4.812342682E0,-1.692769867E1,3.375031586E0,1.791916467E1
3.219180208E0,-2.852617950E0,-1.473401047E1,2.064207458E0,1.514890907E1
3.229114208E0,-1.910626831E0,-1.260738281E1,9.630972290E-1,1.278765626E1
3.239047208E0,-1.721420288E0,-1.072025711E1,1.899549866E-1,1.085924874E1
3.248980208E0,-2.241438904E0,-8.774603119E0,-2.044747925E-1,9.058670885E0
3.258914208E0,-2.963686981E0,-6.906188507E0,-3.983216858E-1,7.525791678E0
3.268847208E0,-3.280578003E0,-5.117258606E0,-4.751119995E-1,6.097069713E0
3.278780208E0,-3.259471893E0,-3.401825867E0,-2.668949890E-1,4.718877958E0
3.288713208E0,-3.562142487E0,-2.333048401E0,5.875282288E-1,4.298507108E0
3.298647208E0,-3.605252838E0,-1.382075958E0,9.321116638E-1,3.972003793E0
3.308580208E0,-3.314557343E0,-3.538641357E-1,1.008752289E0,3.482684508E0
3.318513208E0,-2.431693268E0,3.263214111E-1,1.589843903E0,2.923563142E0
3.328447208E0,-1.307530975E0,8.443940735E-1,2.426753540E0,2.883014281E0
3.338380208E0,-5.105882263E-1,1.291813660E0,2.789898376E0,3.116571164E0
3.348313208E0,3.742218018E-2,1.573976898E0,2.760858765E0,3.178229824E0
3.358247208E0,5.295986938E-1,1.855840759E0,2.241887970E0,2.958155062E0
3.368180208E0,7.291337585E-1,1.998643799E0,1.604812775E0,2.664889700E0
3.378113208E0,5.927673340E-1,2.027234344E0,1.217118988E0,2.437710161E0
3.388046208E0,4.466711426E-1,1.847907257E0,1.037492523E0,2.165794791E0
3.397980208E0,4.162843323E-1,1.453926544E0,9.074130249E-1,1.763687455E0
3.407913208E0,2.064207458E-1,9.081614685E-1,5.062472534E-1,1.060025027E0
3.417846208E0,-2.856060791E-1,4.990621948E-1,-4.640350342E-3,5.750264686E-1
3.427780208E0,-5.869294739E-1,-6.750961304E-2,-3.951782227E-1,7.107809668E-1
3.437713208E0,-6.583309937E-1,-7.490423584E-1,-6.783892822E-1,1.206099569E0
3.447646208E0,-3.353027344E-1,-1.014290771E0,-7.014413452E-1,1.277980302E0
3.457580208E0,3.823049927E-1,-1.025816803E0,-8.566685486E-1,1.390085689E0
3.467513208E0,1.096619568E0,-1.135688324E0,-3.327580261E-1,1.613409542E0
3.477446208E0,1.452429657E0,-1.457818451E0,8.039781189E-1,2.209336407E0
3.487379208E0,1.118923187E0,-2.236199799E0,2.395917664E0,3.463091118E0
3.497313208E0,-4.355941772E-1,-4.364773407E0,4.012106781E0,5.944576520E0
3.507246208E0,-2.893333282E0,-8.495433655E0,5.942492523E0,1.076368839E1
3.517179208E0,-6.559359741E0,-1.439032516E1,6.285279694E0,1.701797283E1
3.527113208E0,-1.094404175E1,-2.179916840E1,2.359842682E0,2.450601253E1
3.537046208E0,-1.366628082E1,-3.068843307E1,-8.535250854E-1,3.360469701E1
3.546979208E0,-1.331960175E1,-3.725363068E1,3.723806305E0,3.973803622E1
3.556913208E0,-1.009291168E1,-3.458587830E1,1.035067566E1,3.748581505E1
3.566846208E0,-7.801027679E0,-2.709066467E1,8.710536346E0,2.950650079E1
3.576779208E0,-8.246800690E0,-2.534349792E1,8.012388153E0,2.782985757E1
3.586712208E0,-9.049730988E0,-2.494173340E1,8.665180664E0,2.791188012E1
3.596646208E0,-8.970246277E0,-2.465118759E1,6.320606232E0,2.698326205E1
3.606579208E0,-7.719746704E0,-2.317690338E1,4.479135590E0,2.483598186E1
3.616512208E0,-5.915847931E0,-2.122855499E1,4.032464447E0,2.240333844E1
3.626446208E0,-4.463567963E0,-1.900792282E1,3.293301544E0,1.980076776E1
3.636379208E0,-3.378474426E0,-1.664673294E1,2.207609253E0,1.712896219E1
3.646312208E0,-2.605481873E0,-1.425440781E1,1.259331207E0,1.454519140E1
3.656245208E0,-2.508782959E0,-1.189965454E1,4.939727783E-1,1.217126860E1
3.666179208E0,-2.619552612E0,-9.810598755E0,4.177812195E-1,1.016289550E1
3.676112208E0,-2.589165802E0,-7.651488647E0,-2.213896179E-1,8.080722210E0
3.686045208E0,-2.547252960E0,-5.438640289E0,-7.423063660E-1,6.051307675E0
3.695979208E0,-2.372566223E0,-3.311264191E0,-7.074288940E-1,4.134488682E0
3.705912208E0,-2.227218475E0,-1.538500671E0,-1.730401611E-1,2.712458175E0
3.715845208E0,-2.227218475E0,-1.501377869E-1,4.504133606E-1,2.277260566E0
3.725779208E0,-2.555934906E0,6.447093201E-1,9.997709656E-1,2.819218923E0
3.735712208E0,-2.563868408E0,1.268911285E0,1.328487396E0,3.154114111E0
3.745645208E0,-2.260149994E0,1.787732391E0,1.784139862E0,3.389309686E0
3.755578208E0,-1.840871887E0,1.910177765E0,2.104473724E0,3.386207031E0
3.765512208E0,-1.366358643E0,2.110461273E0,2.006427612E0,3.216634031E0
3.775445208E0,-6.724017334E-1,2.171384583E0,1.693428497E0,2.834560843E0
3.785378208E0,-1.380130005E-1,2.139051819E0,1.720821533E0,2.748784644E0
3.795312208E0,3.891906738E-3,2.128274231E0,1.870510254E0,2.833438716E0
3.805245208E0,-1.371148682E-1,1.876946869E0,1.632954254E0,2.491639948E0
3.815178208E0,-5.751040649E-1,1.199306030E0,1.079854431E0,1.713232393E0
3.825111208E0,-9.641450500E-1,6.017486572E-1,3.399430847E-1,1.186270806E0
3.835045208E0,-1.071022797E0,1.627116394E-1,-1.019380188E-1,1.088097545E0
3.844978208E0,-9.147477722E-1,-2.055226135E-1,-3.112028503E-1,9.878513276E-1
3.854911208E0,-6.819818115E-1,-5.505551147E-1,-3.390449524E-1,9.397667824E-1
3.864845208E0,-6.840774536E-2,-1.075064392E0,-2.173480225E-1,1.098946418E0
3.874778208E0,7.214996338E-1,-1.417552185E0,-7.095245361E-2,1.592184088E0
3.884711208E0,1.002315674E0,-1.534159698E0,9.295669556E-2,1.834917883E0
3.894645208E0,6.062393188E-1,-1.957030334E0,3.671864319E-1,2.081422523E0
3.904577667E0,-2.610571289E-1,-2.853216705E0,8.138575745E-1,2.978482927E0
3.914510667E0,-1.242117004E0,-4.257446594E0,1.686542816E0,4.744800610E0
3.924443667E0,-2.758014679E0,-6.833589478E0,3.585643616E0,8.195207762E0
3.934377667E0,-5.224735107E0,-1.156914185E1,5.671256561E0,1.390345464E1
3.944310667E0,-8.821455688E0,-1.833537140E1,7.171436920E0,2.157390628E1
3.954243667E0,-1.314237030E1,-2.781650528E1,5.470074921E0,3.124742522E1
3.964177667E0,-1.562929871E1,-3.830175110E1,2.065105591E0,4.141936475E1
3.974110667E0,-1.272982819E1,-4.122502213E1,6.006858673E0,4.356183336E1
3.984043667E0,-8.474028168E0,-3.002411453E1,8.317304077E0,3.228674889E1
3.993976667E0,-6.840026093E0,-2.407144318E1,9.849368134E0,2.689294306E1
4.003910667E0,-7.747738495E0,-2.507420792E1,1.020667511E1,2.815882759E1
4.013843667E0,-1.031954041E1,-2.441632599E1,7.077282715E0,2.743606786E1
4.023776667E0,-1.028331573E1,-2.238055939E1,4.430037689E0,2.502521239E1
4.033710667E0,-7.281757507E0,-2.030392776E1,4.068689117E0,2.195057417E1
4.043643667E0,-4.337979126E0,-1.845108078E1,3.480262756E0,1.927103198E1
4.053576667E0,-2.834355927E0,-1.624227402E1,2.018702087E0,1.661084576E1
4.063510667E0,-1.809736633E0,-1.379157028E1,6.827302551E-1,1.392654581E1
4.073443667E0,-1.637893982E0,-1.151375702E1,-8.906478882E-2,1.163001418E1
4.083376667E0,-1.493893433E0,-9.597591705E0,-2.044747925E-1,9.715312351E0
4.093309667E0,-1.431173859E0,-7.729775848E0,-5.207670593E-1,7.878381281E0
4.103243667E0,-1.637594604E0,-5.865702209E0,-1.180894318E0,6.203441778E0
4.113176667E0,-1.609902191E0,-4.031416626E0,-1.508113861E0,4.595488276E0
4.123109667E0,-1.531315613E0,-2.458936615E0,-9.235794067E-1,3.040443340E0
4.133043667E0,-1.362915802E0,-1.555116119E0,5.598358154E-2,2.068588840E0
4.142976667E0,-1.436263275E0,-8.704399109E-1,1.135089569E0,2.027053567E0
4.152909667E0,-1.448687439E0,7.349716187E-2,1.654060364E0,2.200002913E0
4.162843667E0,-1.047371979E0,9.090596008E-1,1.903741150E0,2.355336024E0
4.172776667E0,-5.420228577E-1,1.568588104E0,2.222727814E0,2.773945990E0
4.182709667E0,-3.992198181E-1,2.213896179E0,2.251468048E0,3.182737992E0
4.192642667E0,-1.148112488E-1,2.747835846E0,1.955234070E0,3.374421984E0
4.202576667E0,8.981323242E-2,3.061583405E0,1.500629425E0,3.410754760E0
4.212509667E0,-8.532257080E-3,3.037483521E0,9.629475403E-1,3.186478762E0
4.222442667E0,-2.730322266E-1,2.684966583E0,7.056326294E-1,2.789535724E0
4.232376667E0,-6.138734436E-1,2.057022400E0,4.587959290E-1,2.195148164E0
4.242309667E0,-1.042432251E0,1.420396271E0,1.553768921E-1,1.768709287E0
4.252242667E0,-1.456022186E0,8.761280823E-1,-5.298980713E-2,1.700120273E0
4.262175667E0,-1.356030121E0,2.085163879E-1,-2.131567383E-1,1.388428092E0
4.272109667E0,-8.547225952E-1,-3.475772095E-1,-2.543211365E-1,9.570997188E-1
4.282042667E0,-2.920426941E-1,-7.840695190E-1,-2.140548706E-1,8.636396433E-1
4.291975667E0,8.756790161E-2,-1.240620117E0,-2.680924988E-1,1.272273556E0
4.301909667E0,2.405497742E-1,-1.724264374E0,1.248403931E-1,1.745433169E0
4.311842667E0,1.683998108E-1,-2.501597900E0,1.119671631E0,2.745908795E0
4.321775667E0,-3.279679871E-1,-4.362977142E0,2.925516357E0,5.263247904E0
4.331709667E0,-1.884281616E0,-7.751929779E0,4.958738251E0,9.393189956E0
4.341642667E0,-4.498295746E0,-1.228929428E1,5.687872009E0,1.426931346E1
4.351575667E0,-7.919281769E0,-1.776236298E1,4.879103851E0,2.005049168E1
4.361508667E0,-1.059706329E1,-2.522898605E1,1.206640778E0,2.739079170E1
4.371442667E0,-1.183379150E1,-3.404550201E1,9.104067993E-1,3.605500893E1
4.381375667E0,-1.082653610E1,-3.682656876E1,6.488407288E0,3.892954507E1
4.391308667E0,-8.863967285E0,-2.943449066E1,8.956325226E0,3.201835283E1
4.401242667E0,-8.807983704E0,-2.563733688E1,6.745722198E0,2.793489551E1
4.411175667E0,-1.010413834E1,-2.603012009E1,5.729485474E0,2.850417105E1
4.421108667E0,-9.761949921E0,-2.561922455E1,5.938750305E0,2.805189990E1
4.431041667E0,-8.422684937E0,-2.369093445E1,4.987328796E0,2.563348289E1
4.440975667E0,-6.557264099E0,-2.129277145E1,3.630250854E0,2.257340360E1
4.450908667E0,-5.027894440E0,-1.888996811E1,2.734363861E0,1.973796756E1
4.460841667E0,-3.734284515E0,-1.658640839E1,1.494941254E0,1.706718118E1
4.470775667E0,-2.687660980E0,-1.409034897E1,5.153782654E-1,1.435364310E1
4.480708667E0,-1.827250214E0,-1.162752045E1,-1.260379028E-1,1.177089464E1
4.490641667E0,-1.560355225E0,-9.951755219E0,-1.815724182E-1,1.007497439E1
4.500574667E0,-1.698368225E0,-7.595205688E0,-6.500981140E-1,7.809880386E0
4.510508667E0,-2.033970337E0,-5.198240204E0,-1.063538361E0,5.682415894E0
4.520441667E0,-2.257305908E0,-3.112178192E0,-1.025068359E0,3.978925509E0
4.530374667E0,-2.024240570E0,-1.080602875E0,-8.626560974E-1,2.451413470E0
4.540308667E0,-1.868713989E0,4.005670166E-1,-4.953199768E-1,1.974306913E0
4.550241667E0,-1.823358307E0,1.147663422E0,-3.173400879E-2,2.154709700E0
4.560174667E0,-1.627415771E0,1.840572510E0,5.352868652E-1,2.514502194E0
4.570108667E0,-1.303788757E0,2.253713379E0,1.188378754E0,2.862050520E0
4.580041667E0,-1.198108521E0,2.527943115E0,1.561552734E0,3.203811381E0
4.589974667E0,-1.064586182E0,2.569406891E0,1.341510315E0,3.087854503E0
4.599907667E0,-8.137078857E-1,2.416574707E0,9.018745422E-1,2.704686956E0
4.609841667E0,-5.774990845E-1,2.025587769E0,1.068478088E0,2.361812106E0
4.619774667E0,-4.025129700E-1,1.644480286E0,1.230441284E0,2.092920891E0
4.629707667E0,-2.832110596E-1,1.223405914E0,1.025667114E0,1.621395561E0
4.639641667E0,-1.333726501E-1,7.179071045E-1,6.530918884E-1,9.796468186E-1
4.649574667E0,3.757186890E-2,6.331832886E-2,3.942800903E-1,4.010955569E-1
4.659507667E0,7.155120850E-2,-6.102809143E-1,3.703298950E-1,7.174305548E-1
4.669440667E0,3.757186890E-2,-1.037642212E0,3.002755737E-1,1.080869292E0
4.679374667E0,1.312770081E-1,-1.163231049E0,3.817062378E-2,1.171237432E0
4.689307667E0,4.767585754E-1,-1.004411316E0,-6.126759338E-1,1.269453674E0
4.699240667E0,8.807684326E-1,-1.189426575E0,-8.566685486E-1,1.710078832E0
4.709174667E0,3.565585327E-1,-2.103725281E0,1.116677856E-1,2.136647781E0
4.719107667E0,-1.179996185E0,-4.058360596E0,2.351759491E0,4.836678036E0
4.729040667E0,-3.439098358E0,-6.904841309E0,4.753664703E0,9.060991068E0
4.738974667E0,-6.341862030E0,-1.050485504E1,4.520299988E0,1.307686145E1
4.748907667E0,-9.306447144E0,-1.613704285E1,1.390458527E0,1.868013611E1
4.758840667E0,-1.087608307E1,-2.346864670E1,-1.319057007E0,2.589993189E1
4.768773667E0,-1.156375305E1,-3.371873154E1,6.550378418E-1,3.565252187E1
4.778707667E0,-1.020068756E1,-3.910228638E1,6.938521271E0,4.100226706E1
4.788640667E0,-7.359445953E0,-3.232932083E1,8.842561798E0,3.431526379E1
4.798573667E0,-7.269183655E0,-2.560814758E1,6.334527283E0,2.736319589E1
4.808507667E0,-9.181606750E0,-2.446108292E1,6.181844788E0,2.684886748E1
4.818440667E0,-1.034708313E1,-2.507181290E1,4.439019012E0,2.748386474E1
4.828373667E0,-9.453291779E0,-2.388942169E1,3.471431122E0,2.592527779E1
4.838306667E0,-7.252867584E0,-2.156595337E1,2.792742462E0,2.292365249E1
4.848240667E0,-4.806504822E0,-1.926553711E1,2.462229767E0,2.000814794E1
4.858173667E0,-2.965483246E0,-1.695688797E1,1.408720551E0,1.727178723E1
4.868106667E0,-1.688339081E0,-1.474074646E1,7.957452393E-1,1.485844223E1
4.878040667E0,-1.305585022E0,-1.236862930E1,3.113525391E-1,1.244124124E1
4.887973667E0,-1.360670471E0,-9.943222961E0,-1.372645569E-1,1.003682961E1
4.897906667E0,-1.037342834E0,-7.255262604E0,-1.200054474E0,7.426644353E0
4.907840083E0,-9.370513916E-1,-4.807253265E0,-1.955383759E0,5.273639627E0
4.917774083E0,-1.268162842E0,-2.844834137E0,-1.873054962E0,3.634508653E0
4.927707083E0,-1.643731842E0,-1.150058441E0,-1.409468994E0,2.451752767E0
4.937640083E0,-2.057471466E0,1.890568542E-1,-1.002016296E0,2.296294403E0
4.947574083E0,-2.130220184E0,1.043180695E0,-5.050497437E-1,2.425106026E0
4.957507083E0,-1.914219360E0,1.724863129E0,-8.532257080E-3,2.576715229E0
4.967440083E0,-1.498234406E0,1.969005432E0,6.915618896E-1,2.569036117E0
4.977373083E0,-1.062490540E0,2.255210266E0,9.933343506E-1,2.683574598E0
4.987307083E0,-7.858657837E-1,2.294428711E0,8.666976929E-1,2.575490833E0
4.997240083E0,-4.965174866E-1,1.808988190E0,8.683442688E-1,2.067121103E0
5.007173083E0,-1.454974365E-1,1.438807983E0,1.174308014E0,1.862884116E0
5.017107083E0,3.785627747E-1,1.253493347E0,1.250050507E0,1.810298764E0
5.027040083E0,6.713539124E-1,8.991801453E-1,1.152603149E0,1.608643848E0
5.036973083E0,5.926176453E-1,4.854405212E-1,1.126257935E0,1.362095851E0
5.046907083E0,3.281176758E-1,-7.409591675E-2,1.120270386E0,1.169682500E0
5.056840083E0,-1.284329224E-1,-6.369255066E-1,9.524693298E-1,1.152981761E0
5.066773083E0,-4.248165894E-1,-1.049018555E0,7.358697510E-1,1.349967908E0
5.076706083E0,-4.188290405E-1,-1.247954865E0,3.565585327E-1,1.363797308E0
5.086640083E0,-3.293151855E-1,-1.210682373E0,-3.004252625E-1,1.290137837E0
5.096573083E0,-1.194515991E-1,-1.342258759E0,-7.497908020E-1,1.542113325E0
5.106506083E0,-3.100053406E-1,-2.256407776E0,-2.399510193E-1,2.290208692E0
5.116440083E0,-1.388961639E0,-4.137994995E0,1.718426514E0,4.690970763E0
5.126373083E0,-3.292253723E0,-6.731352081E0,4.142186279E0,8.561994078E0
5.136306083E0,-6.114784241E0,-1.037522461E1,4.453987885E0,1.284032243E1
5.146239083E0,-9.467212830E0,-1.615799927E1,7.201524353E-1,1.874106930E1
5.156173083E0,-1.132245483E1,-2.422143127E1,-2.195035400E0,2.682711123E1
5.166106083E0,-1.242461288E1,-3.623814240E1,7.695497131E-1,3.831665664E1
5.176039083E0,-1.065140030E1,-4.062312378E1,6.403683472E0,4.248173344E1
5.185973083E0,-8.196056213E0,-2.927282684E1,7.691904602E0,3.135664404E1
5.195906083E0,-8.831484833E0,-2.430181412E1,7.000193024E0,2.678760900E1
5.205839083E0,-1.051263885E1,-2.525233749E1,6.921606445E0,2.821532846E1
5.215772083E0,-1.100271973E1,-2.622576324E1,4.166435852E0,2.874386346E1
5.225706083E0,-9.238937531E0,-2.428894089E1,2.636168060E0,2.612010716E1
5.235639083E0,-5.950575714E0,-2.149769531E1,3.140918427E0,2.252610982E1
5.245572083E0,-3.014730835E0,-1.911674652E1,3.434607697E0,1.965540968E1
5.255506083E0,-1.203946381E0,-1.654165146E1,2.159259796E0,1.672537362E1
5.265439083E0,-1.724414062E-1,-1.366373611E1,5.980064392E-1,1.367790307E1
5.275372083E0,2.007325745E-1,-1.132993927E1,1.341210938E-1,1.133251101E1
5.285305083E0,-3.746708679E-1,-8.872499542E0,-3.561094666E-1,8.887544112E0
5.295239083E0,-8.366102600E-1,-6.501430206E0,-1.180744629E0,6.660530710E0
5.305172083E0,-1.363215179E0,-4.205354919E0,-1.904639282E0,4.813628197E0
5.315105083E0,-1.984722748E0,-2.469714203E0,-1.957629089E0,3.724368978E0
5.325039083E0,-2.766546936E0,-1.325942688E0,-1.519789581E0,3.423691916E0
5.334972083E0,-3.116968231E0,-5.222639465E-1,-7.815248108E-1,3.255615397E0
5.344905083E0,-2.871778107E0,4.430786133E-1,-7.514373779E-2,2.906729216E0
5.354838083E0,-2.184557190E0,1.326242065E0,5.192701721E-1,2.607843869E0
5.364772083E0,-1.319655762E0,1.868115234E0,1.119971008E0,2.546700005E0
5.374705083E0,-8.394543457E-1,2.418520660E0,1.703906708E0,3.075259965E0
5.384638083E0,-6.313870239E-1,2.562820587E0,1.989662476E0,3.305367711E0
5.394572083E0,-6.198609924E-1,2.197131042E0,2.033371582E0,3.057157578E0
5.404505083E0,-5.701643372E-1,1.878593445E0,1.959275665E0,2.773618906E0
5.414438083E0,-5.096900940E-1,1.521885223E0,1.847308502E0,2.447134514E0
5.424371083E0,-6.426136780E-1,9.303153992E-1,1.673220520E0,2.019432096E0
5.434305083E0,-8.379574585E-1,3.323089600E-1,1.393601990E0,1.659737465E0
5.444238083E0,-1.039737854E0,-1.028361511E-1,1.094523926E0,1.513146623E0
5.454171083E0,-9.791139221E-1,-4.875361633E-1,6.524931335E-1,1.273618025E0
5.464105083E0,-7.632627869E-1,-6.520440674E-1,4.189787292E-1,1.087784318E0
5.474038083E0,-2.872526550E-1,-7.120692444E-1,8.322692871E-2,7.723233897E-1
5.483971083E0,1.231938171E-1,-8.696914673E-1,-1.520837402E-1,8.914423307E-1
5.493905083E0,4.520599365E-2,-8.201445007E-1,-2.933898926E-2,8.219132316E-1
5.503838083E0,-2.046244812E-1,-1.189725952E0,2.698887634E-1,1.236995943E0
5.513771083E0,-7.424560547E-1,-2.755469971E0,1.428778839E0,3.191436154E0
5.523704083E0,-1.903591461E0,-5.856122131E0,3.204236755E0,6.941538738E0
5.533638083E0,-3.413800964E0,-9.635762329E0,3.970493317E0,1.096662071E1
5.543571083E0,-6.118526459E0,-1.386686371E1,2.254761200E0,1.532351863E1
5.553504083E0,-9.146130524E0,-2.008403503E1,2.501298523E-1,2.206995088E1
5.563438083E0,-9.939331055E0,-3.003833496E1,1.548529816E0,3.167790734E1
5.573371083E0,-9.932744751E0,-3.932143066E1,4.984185333E0,4.086167436E1
5.583304083E0,-7.399861908E0,-3.546110825E1,5.778433685E0,3.668294495E1
5.593237083E0,-4.817282410E0,-2.571083405E1,3.856879578E0,2.644104229E1
5.603171083E0,-5.637426910E0,-2.544378937E1,4.313280487E0,2.641536273E1
5.613104083E0,-9.897118835E0,-2.864652924E1,2.453847198E0,3.040720251E1
5.623037083E0,-1.119417160E1,-2.702076004E1,1.184786224E0,2.927173841E1
5.632971083E0,-8.268056488E0,-2.388508072E1,1.476529541E0,2.531872782E1
5.642904083E0,-4.774321747E0,-2.138947037E1,2.704725494E0,2.208209978E1
5.652837083E0,-2.707419891E0,-1.896166901E1,2.699935455E0,1.934333646E1
5.662770083E0,-1.839824066E0,-1.631951340E1,1.999242554E0,1.654413615E1
5.672704083E0,-1.124761047E0,-1.338651260E1,1.043929138E0,1.347418254E1
5.682637083E0,-1.070124664E0,-1.076112213E1,1.317260742E-2,1.081420778E1
5.692570083E0,-1.566941528E0,-8.397237854E0,-4.623884583E-1,8.554689499E0
5.702504083E0,-1.642085266E0,-5.774392090E0,-1.187480621E0,6.119653442E0
5.712437083E0,-1.486259308E0,-3.405568085E0,-1.812880096E0,4.134415914E0
5.722370083E0,-1.639989624E0,-1.626068573E0,-1.748813324E0,2.896897135E0
5.732303083E0,-2.320025482E0,-2.308200073E-1,-1.498533783E0,2.771533801E0
5.742237083E0,-3.340603180E0,6.556365967E-1,-1.112935638E0,3.581635756E0
5.752170083E0,-3.434607697E0,1.508562927E0,-4.710704041E-1,3.780767047E0
5.762103083E0,-2.632425842E0,2.258204041E0,3.589535522E-1,3.486832224E0
5.772037083E0,-1.980681152E0,2.555186462E0,8.952882385E-1,3.354641071E0
5.781970083E0,-1.565294952E0,2.201621704E0,9.550140381E-1,2.865194274E0
5.791903083E0,-1.152303772E0,1.536405029E0,9.012757874E-1,2.121471763E0
5.801836083E0,-9.830058289E-1,1.260678406E0,8.128097534E-1,1.793396275E0
5.811770083E0,-7.222480774E-1,1.562301178E0,5.864804077E-1,1.818347196E0
5.821703083E0,-3.781137085E-1,1.736838226E0,3.432362366E-1,1.810355798E0
5.831636083E0,-3.064128113E-1,1.589394836E0,3.607498169E-1,1.658374260E0
5.841570083E0,-5.653742981E-1,1.273252258E0,4.456233215E-1,1.462668642E0
5.851503083E0,-6.072871399E-1,5.818400574E-1,1.077309723E0,1.366723001E0
5.861436083E0,-4.146377563E-1,-1.666035461E-1,1.738933868E0,1.795430926E0
5.871370083E0,2.679428101E-2,-9.141490173E-1,2.022294617E0,2.219473333E0
5.881303083E0,2.186952209E-1,-1.255439301E0,1.650467834E0,2.085185725E0
5.891236083E0,-1.305285645E-1,-1.357527008E0,1.138682098E0,1.776658156E0
5.901169083E0,-1.126108246E0,-1.695524139E0,7.143145752E-1,2.157120117E0
5.911103042E0,-2.270029449E0,-2.447410583E0,5.733078003E-1,3.386965323E0
5.921036042E0,-3.679648132E0,-4.356989594E0,1.643133087E0,5.934901435E0
5.930969042E0,-5.335055695E0,-7.648345184E0,3.855532379E0,1.009084403E1
5.940903042E0,-7.802674255E0,-1.158845169E1,5.638175354E0,1.506528989E1
5.950836042E0,-1.097338074E1,-1.757869492E1,6.728507996E0,2.178757489E1
5.960769042E0,-1.281649796E1,-2.635419617E1,5.000651093E0,2.972898900E1
5.970702042E0,-1.200997513E1,-3.515200104E1,2.897524567E0,3.725987558E1
5.980636042E0,-7.563172302E0,-3.761138672E1,7.002887421E0,3.899818481E1
5.990569042E0,-1.437161407E0,-2.757445862E1,9.777068481E0,2.929176111E1
6.000502042E0,-6.593788147E-1,-2.149395309E1,7.499704285E0,2.277433565E1
6.010435042E0,-3.335513763E0,-2.250240601E1,7.322772217E0,2.389784344E1
6.020369042E0,-6.437962189E0,-2.277244446E1,7.786208496E0,2.491298108E1
6.030302042E0,-8.434210968E0,-2.165995789E1,5.409450989E0,2.386528546E1
6.040235042E0,-9.257648621E0,-2.012729507E1,3.932322693E0,2.250056059E1
6.050169042E0,-8.174950104E0,-1.843431564E1,3.432212677E0,2.045565658E1
6.060102042E0,-6.113137665E0,-1.622970016E1,3.600911865E0,1.771271255E1
6.070035042E0,-4.741689606E0,-1.385623581E1,3.104843445E0,1.497060266E1
6.079968042E0,-4.183350677E0,-1.191073151E1,2.039209442E0,1.278766292E1
6.089902042E0,-3.779939575E0,-1.035187317E1,9.521699524E-1,1.106145781E1
6.099835042E0,-3.136876831E0,-8.904233551E0,-2.552192688E-1,9.444072652E0
6.109768042E0,-2.431992645E0,-7.348668365E0,-1.011147308E0,7.806403388E0
6.119702042E0,-2.284549255E0,-5.948779449E0,-1.334175568E0,6.510542733E0
6.129635042E0,-2.740650787E0,-4.985382843E0,-1.381477203E0,5.854373416E0
6.139568042E0,-3.043022003E0,-4.355642395E0,-1.262025604E0,5.461163998E0
6.149501042E0,-2.776426392E0,-3.739373932E0,-8.872050476E-1,4.741159532E0
6.159435042E0,-2.110461273E0,-3.145109711E0,-5.769003296E-1,3.831262960E0
6.169368042E0,-1.450483704E0,-2.417622528E0,-4.685256958E-1,2.858026940E0
6.179301042E0,-1.013093262E0,-1.574875031E0,-3.733236694E-1,1.909439677E0
6.189235042E0,-4.839436340E-1,-1.824705505E-1,-2.823129272E-1,5.892346999E-1
6.199168042E0,1.263372803E-1,1.116677856E0,-2.174977112E-1,1.144655318E0
6.209101042E0,5.492079163E-1,2.303709412E0,6.810836792E-2,2.369249910E0
6.219035042E0,8.373587036E-1,3.146905975E0,5.369334412E-1,3.300376393E0
6.228968042E0,1.141825562E0,3.469784546E0,1.139580231E0,3.826462271E0
6.238901042E0,1.221160583E0,3.272494812E0,1.899849243E0,3.976164309E0
6.248834042E0,9.352551270E-1,2.298170929E0,2.490820312E0,3.515747090E0
6.258768042E0,6.330335999E-1,9.142987061E-1,2.814746704E0,3.026462072E0
6.268701042E0,2.312690735E-1,2.146536255E-1,3.013982391E0,3.030453995E0
6.278634042E0,-2.417472839E-1,-6.137237549E-3,2.969524841E0,2.979355165E0
6.288567042E0,-7.505392456E-1,-2.859054565E-1,2.768941956E0,2.883069656E0
6.298501042E0,-1.353784790E0,-5.487588501E-1,2.372117157E0,2.785822920E0
6.308434042E0,-1.948947144E0,-5.948629761E-1,1.543290710E0,2.556169624E0
6.318367042E0,-2.419119415E0,-7.161108398E-1,5.831872559E-1,2.589413226E0
6.328301042E0,-2.461181946E0,-1.668280792E0,3.579057312E-1,2.994774430E0
6.338234042E0,-2.287243652E0,-3.367547150E0,1.666783905E0,4.398866435E0
6.348167042E0,-2.793191528E0,-5.630241852E0,3.416345673E0,7.153527800E0
6.358101042E0,-4.256099396E0,-8.539591827E0,4.540208588E0,1.056657488E1
6.368034042E0,-6.596632233E0,-1.269704636E1,2.914888458E0,1.460229837E1
6.377967042E0,-9.857750702E0,-1.849658615E1,7.828720093E-1,2.097407535E1
6.387900042E0,-1.206895248E1,-2.685520432E1,1.564995575E0,2.948407747E1
6.397834042E0,-1.178619049E1,-3.656191910E1,6.253096619E0,3.892029588E1
6.407767042E0,-9.923913116E0,-3.838857056E1,9.397757263E0,4.074903977E1
6.417700042E0,-5.943091278E0,-2.938359650E1,8.697812805E0,3.121486865E1
6.427633042E0,-2.848426666E0,-2.453203537E1,6.885232086E0,2.563865665E1
6.437567042E0,-4.653972015E0,-2.452544907E1,4.487518158E0,2.536325939E1
6.447500042E0,-6.611152039E0,-2.326971039E1,3.197650452E0,2.440105984E1
6.457433042E0,-6.558760986E0,-2.118664215E1,3.107088776E0,2.239520377E1
6.467367042E0,-5.831722870E0,-1.942031525E1,4.065096588E0,2.068048951E1
6.477300042E0,-5.382207642E0,-1.776864990E1,4.726121979E0,1.915800896E1
6.487233042E0,-5.701942749E0,-1.635394180E1,4.148922272E0,1.780946713E1
6.497166042E0,-6.439309387E0,-1.526839920E1,3.053350525E0,1.684967860E1
6.507100042E0,-6.899153137E0,-1.404978333E1,2.191742249E0,1.580501375E1
6.517033042E0,-6.436165924E0,-1.265573227E1,1.719324646E0,1.430202322E1
6.526966042E0,-5.102738800E0,-1.097966766E1,1.341061249E0,1.218152250E1
6.536900042E0,-3.529061279E0,-9.026828613E0,9.994715881E-1,9.743554371E0
6.546833042E0,-2.162253571E0,-6.665938110E0,6.804849243E-1,7.040818924E0
6.556766042E0,-1.100810852E0,-3.894601135E0,4.261637878E-1,4.069559940E0
6.566699042E0,-6.179150391E-1,-1.471290436E0,5.170248413E-1,1.677447236E0
6.576633042E0,-8.119116211E-1,4.378395081E-1,4.830455017E-1,1.041266955E0
6.586566042E0,-1.278491364E0,2.422861633E0,3.703298950E-1,2.764406427E0
6.596499042E0,-2.085463257E0,4.105662231E0,3.472778320E-1,4.618032183E0
6.606433042E0,-2.451302490E0,5.155878296E0,1.471440125E-1,5.710833237E0
6.616366042E0,-2.105820923E0,5.442681885E0,-1.254391479E-1,5.837208480E0
6.626299042E0,-1.947899323E0,5.237758026E0,-2.173480225E-1,5.592464669E0
6.636232042E0,-1.641636200E0,4.270319824E0,-6.324348450E-1,4.618503507E0
6.646166042E0,-9.707313538E-1,2.711162109E0,-6.634204102E-1,2.955138911E0
6.656099042E0,-3.499722290E-1,1.341959381E0,-3.824546814E-1,1.438612917E0
6.666032042E0,1.209484863E-1,3.809577942E-1,-2.167492676E-1,4.546840907E-1
6.675966042E0,3.897894287E-1,-2.993774414E-1,-2.427951050E-1,5.481898523E-1
6.685899042E0,4.411326599E-1,-8.903485107E-1,-3.763174438E-1,1.062512735E0
6.695832042E0,6.315367126E-1,-1.344504089E0,-3.414399719E-1,1.524175554E0
6.705765042E0,7.740403748E-1,-1.501228180E0,1.245410156E-1,1.693615958E0
6.715699042E0,7.432044983E-1,-1.607058105E0,9.553134155E-1,2.011867889E0
6.725632042E0,8.096662903E-1,-1.579365692E0,1.732048187E0,2.479908550E0
6.735565042E0,2.643502808E-1,-1.370998993E0,2.029030609E0,2.463023451E0
6.745499042E0,-5.050497437E-1,-9.119036865E-1,1.864073639E0,2.135746733E0
6.755432042E0,-1.296454010E0,-1.767374725E0,1.936522980E0,2.924812416E0
6.765365042E0,-2.735711060E0,-3.975582733E0,3.651356964E0,6.051593241E0
6.775298042E0,-4.446503448E0,-7.029382324E0,6.832242279E0,1.076397433E1
6.785232042E0,-7.057224426E0,-1.041653870E1,6.768774261E0,1.428723206E1
6.795165042E0,-9.805359650E0,-1.559726532E1,2.272125092E0,1.856292853E1
6.805098042E0,-1.147259262E1,-2.275972092E1,-1.902693329E0,2.555866819E1
6.815032042E0,-1.169218597E1,-3.349644379E1,-4.361929321E-1,3.548111080E1
6.824965042E0,-8.678053894E0,-4.064183487E1,5.357359314E0,4.190189327E1
6.834898042E0,-3.937112732E0,-3.450459732E1,5.558690643E0,3.517054356E1
6.844831042E0,-2.933150482E0,-2.751742722E1,2.808160400E0,2.781542624E1
6.854765042E0,-6.726262665E0,-2.765050049E1,5.493426361E0,2.898224491E1
6.864698042E0,-1.230186813E1,-2.702465195E1,3.849544830E0,2.994138888E1
6.874631042E0,-1.303639069E1,-2.401156769E1,1.654359741E0,2.737224454E1
6.884565042E0,-1.002405487E1,-2.063354233E1,1.653012543E0,2.299906945E1
6.894498042E0,-7.072342987E0,-1.840108475E1,2.581531677E0,1.988170669E1
6.904430958E0,-3.666625214E0,-1.678818878E1,2.865341492E0,1.742118265E1
6.914363958E0,-2.112706604E0,-1.482457214E1,2.288590851E0,1.514823807E1
6.924297958E0,-1.720222778E0,-1.260932877E1,1.449435883E0,1.280840360E1
6.934230958E0,-2.573298798E0,-1.067894302E1,6.259982300E-1,1.100243448E1
6.944163958E0,-2.997067566E0,-8.489745483E0,-2.857557678E-1,9.007766023E0
6.954097958E0,-2.939138031E0,-6.213129730E0,-6.303392029E-1,6.902089605E0
6.964030958E0,-2.493065643E0,-4.236639862E0,-8.018824768E-1,4.980713717E0
6.973963958E0,-1.872156830E0,-2.641856232E0,-5.089416504E-1,3.277712182E0
6.983896958E0,-1.494641876E0,-1.210981750E0,-3.134481812E-1,1.949020498E0
6.993830958E0,-1.417402496E0,7.439529419E-2,-2.357597351E-1,1.438800594E0
7.003763958E0,-1.699266357E0,1.033750305E0,3.517684937E-2,1.989317284E0
7.013696958E0,-1.691931610E0,1.900298309E0,5.462141418E-1,2.602328981E0
7.023630958E0,-1.174757080E0,2.654280396E0,8.093669128E-1,3.013359158E0
7.033563958E0,-6.153703308E-1,3.257226562E0,4.463717651E-1,3.344765055E0
7.043496958E0,-4.025129700E-1,3.047213287E0,-1.975891113E-2,3.073746236E0
7.053429958E0,-6.182144165E-2,2.231409760E0,-4.475692749E-2,2.232714623E0
7.063363958E0,3.058140564E-1,1.688937836E0,3.065625000E-1,1.743563540E0
7.073296958E0,5.652246094E-1,1.226848755E0,3.838018799E-1,1.404258028E0
7.083229958E0,7.114704895E-1,5.471122742E-1,4.230203247E-1,9.922037558E-1
7.093163958E0,4.433779907E-1,-1.624122620E-1,6.108796692E-1,7.720982811E-1
7.103096958E0,8.921447754E-2,-8.229885864E-1,7.336244202E-1,1.106107692E0
7.113029958E0,-2.083666992E-1,-1.417701874E0,5.662724304E-1,1.540765962E0
7.122962958E0,-2.996768188E-1,-1.592238922E0,3.655398560E-1,1.660918531E0
7.132896958E0,-3.923341370E-1,-1.318308563E0,4.586462402E-1,1.449903416E0
7.142829958E0,-5.912704468E-1,-1.084794159E0,3.528163147E-1,1.284857370E0
7.152762958E0,-6.105802917E-1,-9.476792908E-1,5.626799011E-1,1.259965476E0
7.162696958E0,-8.660989380E-1,-1.676513672E0,1.741478577E0,2.567795376E0
7.172629958E0,-1.823358307E0,-3.235821075E0,4.217180328E0,5.619589262E0
7.182562958E0,-2.729723511E0,-6.033203888E0,6.158792725E0,9.043321703E0
7.192495958E0,-4.115391998E0,-9.360335083E0,3.982618103E0,1.097331177E1
7.202429958E0,-7.047794037E0,-1.396805328E1,-1.556163940E0,1.572258120E1
7.212362958E0,-9.717043304E0,-2.111733627E1,-3.878883820E0,2.356710762E1
7.222295958E0,-1.201192108E1,-3.262360886E1,2.500999146E0,3.485457071E1
7.232228958E0,-1.255109985E1,-3.897550003E1,4.285588074E0,4.117020737E1
7.242162958E0,-1.026071274E1,-3.317027206E1,2.173629913E0,3.478899024E1
7.252095958E0,-7.945926361E0,-2.689816498E1,4.599036255E0,2.842182541E1
7.262028958E0,-9.480385437E0,-2.566981934E1,5.748945007E0,2.796189732E1
7.271962958E0,-1.117665802E1,-2.608640305E1,3.269351349E0,2.856758244E1
7.281895958E0,-1.016775604E1,-2.404824142E1,1.379231873E0,2.614581150E1
7.291828958E0,-7.865094452E0,-2.144006516E1,1.143023071E0,2.286575182E1
7.301761958E0,-5.167254639E0,-1.918994431E1,1.944755859E0,1.996838898E1
7.311695958E0,-2.497256927E0,-1.735805374E1,2.153122559E0,1.766845377E1
7.321628958E0,-1.072519684E0,-1.536569687E1,2.025887146E0,1.553573807E1
7.331561958E0,-9.732760620E-1,-1.328083237E1,9.433383179E-1,1.334981879E1
7.341495958E0,-1.914369049E0,-1.058778259E1,-2.574645996E-2,1.075948939E1
7.351428958E0,-2.463427277E0,-7.810607758E0,-8.030799866E-1,8.229155786E0
7.361361958E0,-2.888243866E0,-5.403014374E0,-9.319619751E-1,6.197021065E0
7.371294958E0,-3.051105194E0,-3.284020844E0,-9.226812744E-1,4.576611906E0
7.381228958E0,-2.776426392E0,-1.322499847E0,-5.188211060E-1,3.118769741E0
7.391161958E0,-2.508483582E0,2.103126526E-1,-2.724334717E-2,2.517431924E0
7.401094958E0,-1.999092865E0,1.293310547E0,4.438270569E-1,2.421984085E0
7.411028958E0,-1.385369110E0,2.043700104E0,9.464817810E-1,2.644198451E0
7.420961958E0,-4.840933228E-1,2.321073303E0,1.124611359E0,2.624210040E0
7.430894958E0,1.926493835E-1,2.394869843E0,7.273374939E-1,2.510285876E0
7.440827958E0,1.182540894E-2,2.209255829E0,6.477030945E-1,2.302275061E0
7.450761958E0,-3.128494263E-1,1.657802582E0,9.580078125E-1,1.940093589E0
7.460694958E0,-1.501377869E-1,1.146166534E0,8.044271851E-1,1.408311818E0
7.470627958E0,2.734812927E-1,9.054670715E-1,4.152365112E-1,1.032997578E0
7.480561958E0,2.404000854E-1,6.545887756E-1,1.559756470E-1,7.145677496E-1
7.490494958E0,1.567240906E-1,1.514849854E-1,1.309776306E-1,2.542936906E-1
7.500427958E0,4.340972900E-2,-4.067042542E-1,9.325607300E-2,4.195109654E-1
7.510360958E0,-1.055305481E-1,-7.734416199E-1,8.726852417E-2,7.854708341E-1
7.520294958E0,-1.800755310E-1,-8.408015442E-1,1.353186035E-1,8.704513531E-1
7.530227958E0,5.822891235E-2,-7.857160950E-1,2.013313293E-1,8.131879809E-1
7.540160958E0,4.083508301E-1,-6.759942627E-1,5.281018066E-1,9.500579781E-1
7.550094958E0,5.773493958E-1,-4.445755005E-1,1.424587555E0,1.600134183E0
7.560027958E0,1.622625732E-1,-9.575587463E-1,2.748135223E0,2.914703261E0
7.569960958E0,-1.226549377E0,-2.758763123E0,4.810995483E0,5.679865745E0
7.579893958E0,-2.641706543E0,-5.599106598E0,5.847140808E0,8.515730373E0
7.589827958E0,-4.114344177E0,-9.598489838E0,4.356390839E0,1.131534252E1
7.599760958E0,-5.995632019E0,-1.430575104E1,-1.151405640E0,1.555403006E1
7.609693958E0,-7.971223755E0,-1.940923828E1,-2.575693817E0,2.113984715E1
7.619626958E0,-9.286388855E0,-2.856464951E1,6.879394226E0,3.081399494E1
7.629560958E0,-1.194486053E1,-3.861475021E1,8.493188324E0,4.130269816E1
7.639493958E0,-1.123428818E1,-3.787917984E1,3.565585327E0,3.967057972E1
7.649426958E0,-6.289920044E0,-2.685056396E1,5.134173431E0,2.805130329E1
7.659360958E0,-4.153263245E0,-2.221156082E1,3.369493103E0,2.284636762E1
7.669293958E0,-8.812324677E0,-2.400782547E1,4.784051514E-1,2.557853830E1
7.679226958E0,-1.102801712E1,-2.391531784E1,2.389181671E0,2.644367180E1
7.689159958E0,-1.050051407E1,-2.218596405E1,2.906805267E0,2.471694385E1
7.699093958E0,-8.033045197E0,-1.970487350E1,1.881138153E0,2.136236260E1
7.709026958E0,-4.817581787E0,-1.765952682E1,2.284848633E0,1.844691072E1
7.718959958E0,-2.695594482E0,-1.607028168E1,2.314487000E0,1.645834235E1
7.728893958E0,-2.146386566E0,-1.416743866E1,1.669927368E0,1.442608578E1
7.738826958E0,-2.663710785E0,-1.190818680E1,1.183139648E0,1.225969361E1
7.748759958E0,-3.213816833E0,-9.779164124E0,1.194216614E0,1.036276136E1
7.758692958E0,-3.409609680E0,-7.333400116E0,1.041683807E0,8.154097166E0
7.768626958E0,-3.358565826E0,-5.037025452E0,1.153650970E0,6.162994432E0
7.778559958E0,-3.127895508E0,-2.891237640E0,-8.666976929E-2,4.260340016E0
7.788492958E0,-1.969753876E0,-5.364843750E-1,-4.355941772E-1,2.087459725E0
7.798426958E0,-1.006656647E0,1.062789917E0,9.418414307E-1,1.740673804E0
7.808359958E0,-8.590635681E-1,2.164498901E0,1.970502319E0,3.050561440E0
7.818292958E0,-6.406677246E-1,2.672991486E0,2.753973083E0,3.890977558E0
7.828225958E0,-1.824705505E-1,2.553988953E0,3.056793365E0,3.987498057E0
7.838159958E0,-3.531156921E-1,2.263742523E0,2.706072693E0,3.545708719E0
7.848092958E0,-7.399113464E-1,1.927541656E0,2.426154785E0,3.185767204E0
7.858025958E0,-1.066232758E0,1.478924561E0,1.933978271E0,2.657883012E0
7.867959958E0,-1.044527893E0,1.045126648E0,9.759704590E-1,1.770832168E0
7.877892958E0,-6.421646118E-1,4.781057739E-1,-4.355941772E-2,8.017842245E-1
7.887825958E0,-2.477348328E-1,-5.388793945E-2,-5.147795105E-1,5.738243650E-1
7.897758958E0,-2.475851440E-1,-3.034190369E-1,-5.141807556E-1,6.463306932E-1
7.907692542E0,-4.010160828E-1,-6.756948853E-1,-3.963757324E-1,8.800518154E-1
7.917625542E0,-4.559518433E-1,-1.052012329E0,-4.320016479E-1,1.225254034E0
7.927558542E0,-2.326162720E-1,-1.237776031E0,-8.135581970E-1,1.499358788E0
7.937492542E0,1.142124939E-1,-1.166374512E0,-8.976832581E-1,1.476248362E0
7.947425542E0,7.902067566E-1,-1.203497314E0,-4.523593140E-1,1.509126056E0
7.957358542E0,1.124461670E0,-1.179547119E0,7.229965210E-2,1.631248814E0
7.967291542E0,8.903485107E-1,-1.662293243E0,1.243464203E0,2.258792271E0
7.977225542E0,-2.540217590E-1,-2.767594757E0,3.179837494E0,4.223206635E0
7.987158542E0,-2.516117706E0,-5.225184174E0,4.626129913E0,7.418522490E0
7.997091542E0,-4.979694672E0,-9.131760406E0,2.291285248E0,1.065065234E1
8.007025542E0,-7.107669525E0,-1.379890503E1,-2.062411194E0,1.565829767E1
8.016958542E0,-8.410560150E0,-2.073443253E1,-4.460723877E-1,2.237974966E1
8.026891542E0,-1.070139633E1,-3.334031845E1,4.351451111E0,3.528500878E1
8.036824542E0,-1.432745590E1,-4.113011948E1,5.419031067E0,4.388996034E1
8.046758542E0,-1.315269882E1,-3.340932495E1,6.926097107E0,3.656702478E1
8.056691542E0,-9.272767181E0,-2.551908279E1,5.939648438E0,2.779365434E1
8.066624542E0,-8.781189423E0,-2.662154022E1,4.763693848E0,2.843428337E1
8.076557542E0,-9.531578979E0,-2.800421494E1,3.566633148E0,2.979610585E1
8.086491542E0,-8.834478607E0,-2.557222229E1,3.307072906E0,2.725661931E1
8.096424542E0,-5.733976135E0,-2.229972748E1,3.695066071E0,2.331973073E1
8.106357542E0,-2.753973083E0,-1.945743805E1,3.712729340E0,1.999901553E1
8.116291542E0,-8.274792480E-1,-1.672472076E1,3.100801849E0,1.702985551E1
8.126224542E0,1.543290710E-1,-1.388093445E1,1.810784454E0,1.399939638E1
8.136157542E0,-1.728904724E-1,-1.122336090E1,6.322851562E-1,1.124248663E1
8.146090542E0,-1.306183777E0,-8.595425720E0,-4.926255798E-1,8.708050260E0
8.156024542E0,-2.882555695E0,-6.465504913E0,-1.584754486E0,7.254193814E0
8.165957542E0,-3.400328979E0,-4.462071075E0,-1.755848694E0,5.878377334E0
8.175890542E0,-2.857258301E0,-2.765948181E0,-1.384620667E0,4.210886929E0
8.185824542E0,-2.237097931E0,-1.567989349E0,-1.008153534E0,2.911970347E0
8.195757542E0,-2.073039093E0,-5.147795105E-1,-4.146377563E-2,2.136400775E0
8.205690542E0,-1.862427063E0,9.205856323E-2,8.800199890E-1,2.061927381E0
8.215623542E0,-1.741777954E0,3.209326172E-1,1.655706940E0,2.424490391E0
8.225557542E0,-1.557062073E0,7.566764832E-1,2.055824890E0,2.687641639E0
8.235490542E0,-1.284628601E0,1.337917786E0,1.954036560E0,2.694170285E0
8.245423542E0,-1.418001251E0,1.929637299E0,1.695224762E0,2.933941827E0
8.255357542E0,-1.956132202E0,2.046394501E0,1.385668488E0,3.151866241E0
8.265290542E0,-2.322420502E0,1.600920868E0,9.572593689E-1,2.978746399E0
8.275223542E0,-1.985171814E0,1.227597198E0,6.243516541E-1,2.416136793E0
8.285156542E0,-1.184636536E0,9.862989807E-1,2.245330811E-1,1.557743402E0
8.295090542E0,-7.601193237E-1,7.658074951E-1,-1.260379028E-1,1.086336991E0
8.305023542E0,-8.910969543E-1,3.703298950E-1,1.357676697E-1,9.744900581E-1
8.314956542E0,-8.207432556E-1,-4.326004028E-2,4.285588074E-1,9.269053749E-1
8.324889542E0,-3.335064697E-1,-5.566923523E-1,2.222877502E-1,6.859626698E-1
8.334823542E0,2.472857666E-1,-1.287772064E0,-1.302291870E-2,1.311364456E0
8.344756542E0,8.628057861E-1,-1.656754761E0,-6.186634827E-1,1.967743547E0
8.354689542E0,1.158890076E0,-1.652413788E0,-1.659898224E0,2.613189554E0
8.364623542E0,8.660989380E-1,-2.165397034E0,-1.986219635E0,3.063354391E0
8.374556542E0,3.131488037E-1,-3.034789124E0,-1.327439575E0,3.327176434E0
8.384489542E0,-1.044677582E0,-4.161196747E0,6.095324707E-1,4.333409679E0
8.394422542E0,-3.534150696E0,-6.546935577E0,3.739972687E0,8.327063245E0
8.404356542E0,-7.076085205E0,-1.060828995E1,6.158493347E0,1.416099706E1
8.414289542E0,-1.012255005E1,-1.622850266E1,5.602998505E0,1.993047692E1
8.424222542E0,-1.163380737E1,-2.486045242E1,4.027075653E0,2.774175386E1
8.434156542E0,-1.232162704E1,-3.613994659E1,4.134402466E0,3.840587867E1
8.444089542E0,-1.181178726E1,-4.095962402E1,4.932093658E0,4.291310600E1
8.454022542E0,-1.065828598E1,-3.031406158E1,4.628225555E0,3.246477879E1
8.463955542E0,-8.647517395E0,-2.437680817E1,7.320077820E0,2.688106904E1
8.473889542E0,-7.094646606E0,-2.495924698E1,7.723788300E0,2.707314030E1
8.483822542E0,-7.584727478E0,-2.447111206E1,3.582649841E0,2.586887698E1
8.493755542E0,-7.727231140E0,-2.246962418E1,1.307680664E0,2.379714564E1
8.503689542E0,-6.418053589E0,-2.013867142E1,1.794468384E0,2.121267581E1
8.513622542E0,-3.968098297E0,-1.765877838E1,2.553988953E0,1.827843313E1
8.523555542E0,-1.822310486E0,-1.497845215E1,2.910846863E0,1.536710362E1
8.533488542E0,-6.480024719E-1,-1.232626740E1,2.938389587E0,1.268821928E1
8.543422542E0,-7.993377686E-1,-1.015428406E1,2.304607544E0,1.044316243E1
8.553355542E0,-1.650168457E0,-8.437953186E0,1.696571960E0,8.763587526E0
8.563288542E0,-2.209405518E0,-6.864275665E0,7.285350037E-1,7.247793899E0
8.573221542E0,-2.617906036E0,-5.463488617E0,2.948867798E-2,6.058383404E0
8.583155542E0,-2.759212189E0,-3.880829773E0,9.624984741E-2,4.762704658E0
8.593088542E0,-2.837649078E0,-2.494412842E0,5.152285767E-1,3.813110043E0
8.603021542E0,-3.066972198E0,-1.801952820E0,1.416803741E0,3.828927431E0
8.612955542E0,-3.984414368E0,-9.767189026E-1,2.724484406E0,4.924667800E0
8.622888542E0,-3.922592926E0,2.592608643E-1,3.820205841E0,5.481598684E0
8.632821542E0,-3.531755676E0,1.548529816E0,4.040397949E0,5.585343171E0
8.642754542E0,-2.875071259E0,2.313888245E0,3.328777771E0,4.969997485E0
8.652688542E0,-2.555186462E0,2.606380005E0,1.712438965E0,4.031704577E0
8.662621542E0,-2.147135010E0,2.921624451E0,-5.119354248E-2,3.626113479E0
8.672554542E0,-1.533710632E0,2.749931488E0,-8.978329468E-1,3.274216775E0
8.682488542E0,-1.193468170E0,2.048340454E0,-1.256337433E0,2.682992477E0
8.692421542E0,-8.521778870E-1,1.475332031E0,-1.629960480E0,2.357876782E0
8.702354542E0,-5.557942200E-1,8.887019348E-1,-1.461261292E0,1.798327808E0
8.712287542E0,5.194198608E-2,-5.733078003E-2,-8.987310791E-1,9.020545110E-1
8.722221542E0,9.023236084E-1,-1.035696259E0,-3.330574036E-1,1.413429117E0
8.732154542E0,1.697619781E0,-2.044598236E0,-8.352630615E-1,2.785670341E0
8.742087542E0,1.939965820E0,-2.508633270E0,-1.310674438E0,3.431410170E0
8.752021542E0,1.279239807E0,-2.028431854E0,-1.537003784E0,2.848397954E0
8.761954542E0,2.206411743E-1,-1.790127411E0,-2.151475983E0,2.807505580E0
8.771887542E0,-4.514611816E-1,-2.103126526E0,-1.973945160E0,2.919489318E0
8.781820542E0,-7.277865601E-1,-2.848426666E0,-2.197430420E-1,2.948134114E0
8.791754542E0,-9.485774231E-1,-4.157005463E0,2.301464081E0,4.845330789E0
8.801687542E0,-1.847009125E0,-6.527176666E0,3.518583069E0,7.641721321E0
8.811620542E0,-4.893923035E0,-1.084943848E1,3.166365509E0,1.231611418E1
8.821553542E0,-8.527766418E0,-1.790456726E1,3.080294495E0,2.006949285E1
8.831487542E0,-1.126602219E1,-2.632680313E1,2.573298798E0,2.875144667E1
8.841420542E0,-1.431143921E1,-3.381812485E1,5.297483826E-1,3.672551557E1
8.851353542E0,-1.537976761E1,-3.568594070E1,4.346960449E0,3.910140254E1
8.861287542E0,-1.114731903E1,-2.944152603E1,7.847880249E0,3.244465135E1
8.871220542E0,-6.538253632E0,-2.665282516E1,6.562652893E0,2.821684360E1
8.881153542E0,-5.056484985E0,-2.754496994E1,5.682333527E0,2.857590460E1
8.891086542E0,-6.113137665E0,-2.738659927E1,3.814218292E0,2.831862520E1
8.901020542E0,-8.047864380E0,-2.553494980E1,3.090473328E0,2.695093334E1
8.910954167E0,-9.020092621E0,-2.339215576E1,3.095263367E0,2.526134750E1
8.920887167E0,-7.949518890E0,-2.077095657E1,2.581531677E0,2.238954652E1
8.930820167E0,-6.306685181E0,-1.798030975E1,1.556613007E0,1.911776297E1
8.940754167E0,-4.644541626E0,-1.513367935E1,1.106199646E0,1.586895382E1
8.950687167E0,-2.933150482E0,-1.222403000E1,9.304650879E-1,1.260539751E1
8.960620167E0,-9.583071899E-1,-9.564061432E0,4.962181091E-1,9.624752265E0
8.970554167E0,-7.423063660E-1,-7.736811218E0,-7.655081177E-1,7.809946815E0
8.980487167E0,-1.469194794E0,-5.390290833E0,-1.399888916E0,5.759640404E0
8.990420167E0,-2.007774811E0,-2.942131805E0,-2.018552399E0,4.094124209E0
9.000353167E0,-2.657124481E0,-1.245110779E0,-2.149380341E0,3.637368171E0
9.010287167E0,-3.179538116E0,5.882766724E-1,-1.517993317E0,3.572091234E0
9.020220167E0,-3.678899689E0,2.108215942E0,-4.561015320E-1,4.264610883E0
9.030153167E0,-3.626209259E0,2.948119354E0,3.788621521E-1,4.688745871E0
9.040087167E0,-3.284619598E0,2.772085419E0,1.181942139E0,4.457596964E0
9.050020167E0,-2.514022064E0,2.333347778E0,1.664239197E0,3.812415363E0
9.059953167E0,-1.598376160E0,1.722468109E0,2.128723297E0,3.170672738E0
9.069886167E0,-1.295406189E0,1.265019379E0,2.528092804E0,3.109598760E0
9.079820167E0,-1.741777954E0,9.312135315E-1,2.265987854E0,3.005935801E0
9.089753167E0,-2.068997498E0,5.516029358E-1,1.140478363E0,2.426047679E0
9.099686167E0,-1.525178375E0,3.841012573E-1,-3.963757324E-1,1.621979215E0
9.109619167E0,-7.946974182E-1,4.384382629E-1,-8.178991699E-1,1.221773772E0
9.119553167E0,-3.141966248E-1,3.832031250E-1,-5.592370605E-1,7.472016086E-1
9.129486167E0,3.263214111E-1,9.684860229E-2,-2.213896179E-1,4.060525558E-1
9.139419167E0,9.265731812E-1,-1.621128845E-1,3.847000122E-1,1.016273854E0
9.149353167E0,1.385668488E0,-6.156697083E-1,1.065334625E0,1.853122827E0
9.159286167E0,2.063009949E0,-1.113983459E0,8.957373047E-1,2.509843524E0
9.169219167E0,2.103874969E0,-1.508263550E0,-4.376898193E-1,2.625399246E0
9.179152167E0,1.037941589E0,-1.482816467E0,-2.859503632E0,3.384202777E0
9.189086167E0,-5.625302124E-1,-1.537452850E0,-4.330943756E0,4.630040532E0
9.199019167E0,-1.689237213E0,-2.163151703E0,-3.043471069E0,4.098226910E0
9.208952167E0,-2.710413666E0,-3.428320770E0,4.459226990E-1,4.393014067E0
9.218886167E0,-4.925956421E0,-6.199358368E0,4.636608124E0,9.175795646E0
9.228819167E0,-8.731193390E0,-1.123653351E1,7.154821472E0,1.592748862E1
9.238752167E0,-1.216595078E1,-1.845751740E1,5.374124451E0,2.275019825E1
9.248685167E0,-1.484178635E1,-2.943014969E1,1.801354065E0,3.300995621E1
9.258619167E0,-1.558918213E1,-4.269900696E1,3.655548248E0,4.560253093E1
9.268552167E0,-1.284972885E1,-4.170791794E1,8.801098022E0,4.452106554E1
9.278485167E0,-9.763147430E0,-2.680745361E1,7.079078979E0,2.939510123E1
9.288418167E0,-8.649014282E0,-2.364512970E1,5.089117126E0,2.568650852E1
9.298352167E0,-1.037941589E1,-2.453847198E1,4.999902649E0,2.710844717E1
9.308285167E0,-1.159668457E1,-2.450658829E1,3.038681030E0,2.728167049E1
9.318218167E0,-1.071022797E1,-2.252590714E1,2.698438568E0,2.508798609E1
9.328152167E0,-7.794591064E0,-1.954006622E1,3.635489960E0,2.134915982E1
9.338085167E0,-4.820126495E0,-1.670032150E1,3.711681519E0,1.777388358E1
9.348018167E0,-2.640658722E0,-1.425710220E1,2.930156708E0,1.479269617E1
9.357951167E0,-1.131646729E0,-1.182585800E1,1.741328888E0,1.200682173E1
9.367885167E0,8.622070312E-2,-9.437125397E0,4.787045288E-1,9.449652258E0
9.377818167E0,7.432044983E-1,-7.612719269E0,-9.410929871E-1,7.706588324E0
9.387751167E0,1.215472412E-1,-5.700445862E0,-2.204166412E0,6.112953977E0
9.397684167E0,-6.899153137E-1,-3.385360107E0,-2.656825104E0,4.358367335E0
9.407618167E0,-1.644779663E0,-1.816921692E0,-2.537523193E0,3.527822066E0
9.417551167E0,-2.773133240E0,-2.986289978E-1,-2.086361389E0,3.483152464E0
9.427484167E0,-3.378175049E0,8.307723999E-1,-1.142574005E0,3.661656019E0
9.437418167E0,-3.078348541E0,1.322499847E0,-3.981719971E-2,3.350644863E0
9.447351167E0,-2.077380066E0,1.765428772E0,9.502239990E-1,2.887069853E0
9.457284167E0,-9.711804199E-1,2.082319794E0,1.630708923E0,2.817527058E0
9.467217167E0,-2.240840149E-1,2.379302216E0,1.851799164E0,3.023318181E0
9.477151167E0,5.119354248E-2,2.359393616E0,1.739233246E0,2.931602172E0
9.487084167E0,-1.676513672E-2,1.972448273E0,1.331481171E0,2.379847761E0
9.497017167E0,-2.189945984E-1,1.619931335E0,8.707392883E-1,1.852113137E0
9.506951167E0,-4.064048767E-1,1.198557587E0,4.730163574E-1,1.351092035E0
9.516884167E0,-7.744894409E-1,5.783972168E-1,5.393284607E-1,1.106911208E0
9.526817167E0,-1.137933655E0,-8.187973022E-2,7.198530579E-1,1.348994336E0
9.536750167E0,-1.148860931E0,-7.957452393E-1,7.467970276E-1,1.584549692E0
9.546684167E0,-8.848100281E-1,-1.317560120E0,6.553372192E-1,1.717067362E0
9.556617167E0,-6.816824341E-1,-1.447639618E0,6.740483093E-1,1.736286995E0
9.566550167E0,-3.426374817E-1,-1.286724243E0,4.709207153E-1,1.412383107E0
9.576483167E0,-3.367996216E-2,-8.851094055E-1,-4.420307922E-1,9.899213205E-1
9.586417167E0,-6.601272583E-2,-5.924679565E-1,-9.488768005E-1,1.120599457E0
9.596350167E0,-5.572911072E-1,-1.369951172E0,6.969506836E-1,1.634955610E0
9.606283167E0,-1.548380127E0,-3.829486542E0,4.880001984E0,6.393501979E0
9.616217167E0,-3.191213837E0,-7.481591949E0,6.846313019E0,1.063155990E1
9.626150167E0,-6.134393463E0,-1.245410156E1,4.741240540E0,1.467020077E1
9.636083167E0,-9.783205719E0,-2.021351578E1,-2.980302429E-1,2.245854306E1
9.646016167E0,-1.284389099E1,-3.209745300E1,-3.476670227E0,3.474621218E1
9.655950167E0,-1.468536163E1,-4.212614822E1,5.858816528E-1,4.461631392E1
9.665883167E0,-1.317784653E1,-3.638498703E1,5.299280090E0,3.905899755E1
9.675816167E0,-1.164278870E1,-2.664983139E1,3.995191956E0,2.935523123E1
9.685749167E0,-1.267339554E1,-2.529320251E1,3.889960785E0,2.855683531E1
9.695683167E0,-1.281110916E1,-2.606978760E1,4.480333099E0,2.939101441E1
9.705616167E0,-1.088326813E1,-2.520219177E1,2.929557953E0,2.760757695E1
9.715549167E0,-7.451654205E0,-2.259940430E1,2.211052094E0,2.389872332E1
9.725483167E0,-4.095034332E0,-1.970232880E1,3.868405609E0,2.049184297E1
9.735416167E0,-1.394949188E0,-1.643462402E1,3.680695953E0,1.689941634E1
9.745349167E0,3.203338623E-1,-1.365385666E1,1.960622864E0,1.379762507E1
9.755282167E0,1.050964508E0,-1.151764893E1,5.075944519E-1,1.157663230E1
9.765216167E0,1.883084106E-1,-9.430539093E0,-6.575825500E-1,9.455312922E0
9.775149167E0,-9.132508850E-1,-7.070097656E0,-1.412313080E0,7.267388546E0
9.785082167E0,-2.149380341E0,-4.270918579E0,-2.039508820E0,5.198093649E0
9.795016167E0,-3.275189209E0,-2.222578125E0,-2.619253235E0,4.746283323E0
9.804949167E0,-3.967948608E0,-3.028202820E-1,-2.508184204E0,4.703966867E0
9.814882167E0,-4.094585266E0,1.055904236E0,-1.900447998E0,4.635975070E0
9.824815167E0,-3.513942719E0,1.863025818E0,-9.059161377E-1,4.079135040E0
9.834749167E0,-2.224374390E0,2.361788635E0,-2.544708252E-2,3.244462134E0
9.844682167E0,-8.690927124E-1,2.486030273E0,4.074526978E-1,2.664898941E0
9.854615167E0,-6.990463257E-2,2.232008514E0,5.257067871E-1,2.294148272E0
9.864548167E0,-7.873626709E-2,1.606758728E0,5.445675659E-1,1.698360045E0
9.874482167E0,-3.275189209E-1,9.633966064E-1,7.448510742E-1,1.261033222E0
9.884415167E0,-3.263214111E-1,5.833369446E-1,9.401948547E-1,1.153574453E0
9.894348167E0,-9.684860229E-2,4.010160828E-1,8.750802612E-1,9.674497475E-1
9.904282167E0,9.789642334E-2,2.832110596E-1,7.786807251E-1,8.343475808E-1
9.914214667E0,-1.062789917E-2,-6.167175293E-2,8.705895996E-1,8.728359573E-1
9.924147667E0,-5.897735596E-2,-6.866221619E-1,7.726931763E-1,1.035366151E0
9.934080667E0,1.960922241E-2,-1.201401672E0,5.680686951E-1,1.329079585E0
9.944014667E0,8.711883545E-2,-1.394200745E0,3.474275208E-1,1.439476047E0
9.953947667E0,4.834945679E-2,-1.208137665E0,-6.511459351E-2,1.210856803E0
9.963880667E0,-2.305206299E-1,-7.589218140E-1,-2.294728088E-1,8.256875017E-1
9.973813667E0,-6.059399414E-1,-5.520520020E-1,4.306544495E-1,9.259524179E-1
9.983747667E0,-1.595981140E0,-1.549427948E0,2.557581482E0,3.389558349E0
9.993680667E0,-2.944526825E0,-4.450545044E0,4.807702332E0,7.182728668E0
1.000361367E1,-4.634662170E0,-7.868686981E0,4.136797485E0,1.002543873E1
1.001354767E1,-6.558012543E0,-1.278416519E1,5.352868652E-1,1.437807150E1
1.002348067E1,-8.545729065E0,-1.870600067E1,-3.271746368E0,2.082422317E1
1.003341367E1,-9.264983368E0,-2.770289154E1,9.595046997E-2,2.921128760E1
1.004334667E1,-8.889414368E0,-3.834022110E1,5.586832123E0,3.975181675E1
1.005328067E1,-8.663983154E0,-3.446612732E1,3.455713806E0,3.570602882E1
1.006321367E1,-9.308243408E0,-2.471735001E1,1.782942352E0,2.647205451E1
1.007314667E1,-1.144415176E1,-2.374093048E1,3.626808014E0,2.660364874E1
1.008307967E1,-1.345447128E1,-2.499517227E1,2.693648529E0,2.851380677E1
1.009301367E1,-1.262190262E1,-2.521162216E1,1.307680664E0,2.822495964E1
1.010294667E1,-9.971663818E0,-2.297078201E1,1.026565247E0,2.506281592E1
1.011287967E1,-6.712341614E0,-2.022728714E1,2.570454712E0,2.146639030E1
1.012281367E1,-3.647764435E0,-1.789977722E1,3.051554260E0,1.852080434E1
1.013274667E1,-1.481169891E0,-1.586924973E1,2.384092255E0,1.611554675E1
1.014267967E1,-1.160237274E0,-1.359218491E1,1.349743195E0,1.370822555E1
1.015261267E1,-1.847158813E0,-1.092353439E1,6.152206421E-1,1.109567915E1
1.016254667E1,-1.864971771E0,-7.976462860E0,-3.291654968E-1,8.198196716E0
1.017247967E1,-1.776056671E0,-5.346282349E0,-4.128414917E-1,5.648676867E0
1.018241267E1,-2.095342712E0,-3.157384186E0,-9.448352051E-1,3.905412852E0
1.019234567E1,-2.253114624E0,-1.370849304E0,-1.210083618E0,2.901733221E0
1.020227967E1,-2.203567657E0,3.516188049E-1,-1.528770905E0,2.704900494E0
1.021221267E1,-1.925595703E0,1.995799713E0,-1.735640717E0,3.271633232E0
1.022214567E1,-9.686357117E-1,2.786156158E0,-5.206173706E-1,2.995323643E0
1.023207967E1,-5.583389282E-2,2.739004211E0,1.053808594E0,2.935263880E0
1.024201267E1,1.287322998E-1,2.163600769E0,1.579665070E0,2.681992175E0
1.025194567E1,-2.058219910E-1,1.398691406E0,1.392554169E0,1.984416150E0
1.026187867E1,-3.249742126E-1,6.994953918E-1,1.111438751E0,1.352848158E0
1.027181267E1,-3.791615295E-1,7.020401001E-2,8.232879639E-1,9.091177811E-1
1.028174567E1,-4.186793518E-1,-2.989283752E-1,3.626957703E-1,6.294432420E-1
1.029167867E1,-4.498146057E-1,-1.489402771E-1,-1.453477478E-1,4.956231970E-1
1.030161167E1,-4.477189636E-1,-1.305285645E-1,-2.567161560E-1,5.323468430E-1
1.031154567E1,-3.603007507E-1,-4.303550720E-1,1.960922241E-2,5.616107554E-1
1.032147867E1,-2.128573608E-1,-9.651928711E-1,1.407073975E-1,9.983506930E-1
1.033141167E1,-1.520837402E-1,-1.341510315E0,8.921447754E-2,1.353047897E0
1.034134567E1,1.032852173E-2,-1.425485687E0,-1.682501221E-1,1.435417788E0
1.035127867E1,6.855743408E-2,-1.425335999E0,-5.390290833E-1,1.525396730E0
1.036121167E1,-1.140628052E-1,-1.652563477E0,-5.037025452E-1,1.731384597E0
1.037114467E1,-1.043330383E0,-2.878963165E0,6.307882690E-1,3.126477417E0
1.038107867E1,-2.132016449E0,-5.445825348E0,3.213218079E0,6.672876312E0
1.039101167E1,-3.116519165E0,-8.949140167E0,5.617667999E0,1.101626049E1
1.040094467E1,-4.771926727E0,-1.366418518E1,3.737577667E0,1.494826840E1
1.041087767E1,-6.201753387E0,-2.073353439E1,-1.504521332E0,2.169342707E1
1.042081167E1,-8.070916443E0,-3.135245224E1,-3.035387878E0,3.251660396E1
1.043074467E1,-9.165739746E0,-3.829097351E1,2.295177155E0,3.943953950E1
1.044067767E1,-9.978848877E0,-2.750185959E1,4.893324280E-1,2.926036828E1
1.045061167E1,-1.369157822E1,-2.247800674E1,-2.890339508E0,2.647780512E1
1.046054467E1,-1.469628891E1,-2.483096375E1,1.783990173E0,2.890917310E1
1.047047767E1,-1.243179794E1,-2.663935318E1,3.047063599E0,2.955485298E1
1.048041067E1,-9.755363617E0,-2.551189774E1,3.435356140E-1,2.731560107E1
1.049034467E1,-6.332581329E0,-2.264999908E1,1.486109619E0,2.356549526E1
1.050027767E1,-2.405048676E0,-2.024180695E1,3.915557556E0,2.075684462E1
1.051021067E1,1.380728760E0,-1.796908310E1,3.680845642E0,1.839410188E1
1.052014367E1,3.738326111E0,-1.586101685E1,3.078348541E0,1.658382246E1
1.053007767E1,1.738185425E0,-1.321347244E1,2.068548431E0,1.348688382E1
1.054001067E1,-7.042854309E-1,-1.009291168E1,1.075064392E0,1.017441141E1
1.054994367E1,-2.382445679E0,-7.357799377E0,2.409988403E-1,7.737657238E0
1.055987767E1,-3.523073730E0,-4.615052948E0,-4.062551880E-1,5.820292561E0
1.056981067E1,-4.123325500E0,-2.210752716E0,-8.625064087E-1,4.757431877E0
1.057974367E1,-3.787124634E0,-1.971400452E-1,-8.484356689E-1,3.886003123E0
1.058967667E1,-3.352727966E0,1.679956512E0,-6.050418091E-1,3.798567400E0
1.059961067E1,-2.678679657E0,3.763324127E0,4.700225830E-2,4.619539198E0
1.060954367E1,-2.519410858E0,4.685556335E0,6.167175293E-1,5.355577444E0
1.061947667E1,-3.240311737E0,3.882476349E0,5.566923523E-1,5.087548440E0
1.062940967E1,-3.531306610E0,2.386187897E0,5.004093933E-1,4.291203632E0
1.063934367E1,-3.029550018E0,1.621278534E0,9.280700684E-2,3.437343529E0
1.064927667E1,-2.032623138E0,1.276695099E0,-3.198847961E-1,2.421535356E0
1.065920967E1,-1.012494507E0,6.824308777E-1,-4.272116089E-1,1.293586792E0
1.066914367E1,-4.748126221E-1,-4.610412598E-2,-2.700384521E-1,5.481727667E-1
1.067907667E1,-2.571652222E-1,-6.580316162E-1,-3.293151855E-1,7.794793460E-1
1.068900967E1,1.645079041E-1,-1.260379028E0,-7.225474548E-1,1.462085145E0
1.069894267E1,6.251000977E-1,-1.897454224E0,-1.095721436E0,2.278527623E0
1.070887667E1,7.114704895E-1,-2.364932098E0,-1.166973267E0,2.731468596E0
1.071880967E1,9.053173828E-1,-2.411485291E0,-7.949967957E-1,2.695715262E0
1.072874267E1,1.593286743E0,-1.875000916E0,-1.431024170E-1,2.464684438E0
1.073867567E1,2.230511627E0,-1.480870514E0,1.409019928E0,3.025474633E0
1.074860967E1,2.619103546E0,-1.880988464E0,4.191583557E0,5.288401810E0
1.075854267E1,1.816772003E0,-3.490142212E0,6.163882141E0,7.312673671E0
1.076847567E1,-8.723858643E-1,-5.544320526E0,5.085823975E0,7.574044672E0
1.077840867E1,-3.535497894E0,-8.982820129E0,2.087109833E0,9.876579888E0
1.078834267E1,-5.614674225E0,-1.348201401E1,-1.338067474E0,1.466559555E1
1.079827567E1,-7.595804443E0,-1.856933487E1,-1.816472626E0,2.014487566E1
1.080820867E1,-9.946815491E0,-2.805480972E1,4.149371338E-1,2.976883706E1
1.081814267E1,-1.311991699E1,-3.747067932E1,1.969903564E-1,3.970167296E1
1.082807567E1,-1.563543594E1,-3.487028687E1,-1.683698730E0,3.825230195E1
1.083800867E1,-1.782672913E1,-2.680805237E1,1.517693939E0,3.222991371E1
1.084794167E1,-1.664119446E1,-2.479473907E1,6.001769257E0,3.045865514E1
1.085787567E1,-1.362227234E1,-2.541175598E1,3.738326111E0,2.907402153E1
1.086780867E1,-9.357940063E0,-2.425047089E1,1.968107300E0,2.606779290E1
1.087774167E1,-4.918771362E0,-2.215093689E1,2.887645111E0,2.287349582E1
1.088767467E1,-2.841091919E-1,-2.036290512E1,4.692292328E0,2.089847435E1
1.089760867E1,3.763024750E0,-1.826636490E1,3.778891754E0,1.902893756E1
1.090754246E1,5.382806396E0,-1.610246475E1,2.017803955E0,1.709782175E1
1.091747546E1,3.998036041E0,-1.378528336E1,1.056353302E0,1.439215799E1
1.092740946E1,7.656578064E-1,-1.113100296E1,1.032253418E0,1.120495452E1
1.093734246E1,-2.348616028E0,-8.481512604E0,1.332229614E-1,8.801693113E0
1.094727546E1,-3.823199615E0,-5.507347412E0,-5.539979553E-1,6.727157242E0
1.095720846E1,-4.340972900E0,-2.385140076E0,-1.375190277E0,5.140436480E0
1.096714246E1,-4.888234863E0,-2.085163879E-1,-1.464404755E0,5.107132312E0
1.097707546E1,-4.738845520E0,9.803114319E-1,-1.218915253E0,4.990332831E0
1.098700846E1,-4.134103088E0,2.218237152E0,-5.224136353E-1,4.720625003E0
1.099694146E1,-2.897075500E0,2.862946472E0,1.105600891E0,4.220410204E0
1.100687546E1,-1.779200134E0,3.189567261E0,2.020198975E0,4.173738890E0
1.101680846E1,-1.816921692E0,3.056044922E0,1.865720215E0,4.015162129E0
1.102674146E1,-2.147135010E0,2.288890228E0,1.387464752E0,3.431364986E0
1.103667546E1,-2.402503967E0,1.128952332E0,7.719447327E-1,2.764499475E0
1.104660846E1,-2.031126251E0,4.311035156E-1,5.418731689E-2,2.077079766E0
1.105654146E1,-1.309925995E0,6.735992432E-2,-4.117936707E-1,1.374779073E0
1.106647446E1,-5.249583435E-1,-2.176473999E-1,-7.174580383E-1,9.152582640E-1
1.107640846E1,-8.187973022E-2,-4.068539429E-1,-5.081932068E-1,6.561209923E-1
1.108634146E1,3.318598938E-1,-7.837701416E-1,-1.704954529E-1,8.680410840E-1
1.109627446E1,8.649014282E-1,-1.286574554E0,7.918533325E-2,1.552288273E0
1.110620746E1,1.362616425E0,-1.679657135E0,-1.146615601E-1,2.165899094E0
1.111614146E1,1.853745117E0,-1.748813324E0,-5.884263611E-1,2.615523769E0
1.112607446E1,2.049837341E0,-1.445244598E0,-7.738906860E-1,2.624780347E0
1.113600746E1,1.562450867E0,-1.494043121E0,-4.634362793E-1,2.210925314E0
1.114594146E1,3.103047180E-1,-2.367925873E0,1.176253967E0,2.662129853E0
1.115587446E1,-1.320553894E0,-3.822750549E0,3.489992523E0,5.342034459E0
1.116580746E1,-3.719315643E0,-6.129453735E0,3.891757050E0,8.157774505E0
1.117574046E1,-6.086792450E0,-1.057101746E1,5.659730530E-1,1.221129714E1
1.118567446E1,-6.873256989E0,-1.609243561E1,-2.246228943E0,1.764238334E1
1.119560746E1,-8.106991425E0,-2.483740036E1,-1.784289551E-1,2.612760233E1
1.120554046E1,-1.085063599E1,-3.792498459E1,4.118236084E0,3.966107192E1
1.121547346E1,-1.123907822E1,-4.112158722E1,3.568279724E0,4.277890175E1
1.122540746E1,-1.080528030E1,-2.892285461E1,2.714455261E0,3.099441674E1
1.123534046E1,-1.249182312E1,-2.403536819E1,5.276677094E0,2.759688189E1
1.124527346E1,-1.481933304E1,-2.524590088E1,4.246219940E0,2.958037401E1
1.125520646E1,-1.367690872E1,-2.518078629E1,2.068398743E0,2.872991652E1
1.126514046E1,-9.794731750E0,-2.325369370E1,2.090103607E0,2.531875932E1
1.127507346E1,-5.334756317E0,-2.092274094E1,3.701203308E0,2.190706779E1
1.128500646E1,-1.870210876E0,-1.828552505E1,4.039350128E0,1.881952350E1
1.129494046E1,-1.369651794E-1,-1.561058762E1,3.061583405E0,1.590856682E1
1.130487346E1,6.945556641E-2,-1.317096085E1,1.990410919E0,1.332068952E1
1.131480646E1,-1.526824951E-1,-1.065080154E1,1.262324982E0,1.072643230E1
1.132473946E1,-9.225315857E-1,-7.810009003E0,5.155279541E-1,7.881184823E0
1.133467346E1,-1.632804565E0,-5.175038452E0,-3.900888062E-1,5.440518634E0
1.134460646E1,-2.474354553E0,-2.874173126E0,-1.176553345E0,3.970841144E0
1.135453946E1,-3.594475250E0,-7.445516968E-1,-1.133143616E0,3.841695460E0
1.136447246E1,-3.923341370E0,9.608518982E-1,-1.209784241E0,4.216565164E0
1.137440646E1,-3.625460815E0,1.656605072E0,-6.842271423E-1,4.044313696E0
1.138433946E1,-3.336112518E0,1.861528931E0,5.412744141E-1,3.858486061E0
1.139427246E1,-2.598147125E0,1.885928192E0,1.552721100E0,3.566235613E0
1.140420646E1,-1.558708649E0,2.064057770E0,2.122885437E0,3.346124580E0
1.141413946E1,-9.373507690E-1,1.905986481E0,2.459834747E0,3.249953525E0
1.142407246E1,-1.250948639E0,1.366358643E0,2.274071045E0,2.933122492E0
1.143400546E1,-2.107317810E0,6.286926270E-1,1.435365143E0,2.626083751E0
1.144393946E1,-2.062261505E0,3.658392334E-1,2.218386841E-1,2.106175031E0
1.145387246E1,-1.368005219E0,3.692820740E-1,-6.827302551E-1,1.572872572E0
1.146380546E1,-6.493496704E-1,3.993695068E-1,-1.024768982E0,1.277224516E0
1.147373846E1,-1.122665405E-1,4.484674072E-1,-9.541159058E-1,1.060218823E0
1.148367246E1,2.019300842E-1,2.161505127E-1,-4.791535950E-1,5.631029840E-1
1.149360546E1,6.816824341E-1,-3.037184143E-1,-8.696914673E-2,7.513317833E-1
1.150353846E1,1.311572571E0,-9.279203796E-1,1.347198486E-3,1.606630217E0
1.151347246E1,1.823957062E0,-1.409169617E0,-4.375401306E-1,2.346064734E0
1.152340546E1,2.272873535E0,-1.650018768E0,-9.039701843E-1,2.950538618E0
1.153333846E1,1.855092316E0,-2.286794586E0,3.106040955E-1,2.960957933E0
1.154327146E1,-3.353027344E-2,-3.974684601E0,3.515289917E0,5.306270362E0
1.155320546E1,-3.091970215E0,-6.798113251E0,5.231022034E0,9.118015963E0
1.156313846E1,-7.286098480E0,-1.079584991E1,4.417014771E0,1.375309514E1
1.157307146E1,-1.100376755E1,-1.727707214E1,1.467847595E0,2.053618024E1
1.158300446E1,-1.246472946E1,-2.683694229E1,-2.698588257E0,2.971318446E1
1.159293846E1,-1.224378891E1,-3.811987930E1,-1.428329773E0,4.006339590E1
1.160287146E1,-1.010159363E1,-3.957605118E1,7.234755249E0,4.148069074E1
1.161280446E1,-9.098379822E0,-2.667572754E1,6.588549042E0,2.894449747E1
1.162273746E1,-1.168006119E1,-2.324875397E1,2.463876343E0,2.613425103E1
1.163267146E1,-1.485211487E1,-2.439028015E1,1.661245422E0,2.860473419E1
1.164260446E1,-1.360670471E1,-2.433863754E1,1.744172974E0,2.793839347E1
1.165253746E1,-9.567504272E0,-2.249477188E1,2.639461212E0,2.458696109E1
1.166247046E1,-4.565955048E0,-1.980456619E1,4.047732697E0,2.072324607E1
1.167240446E1,-1.146016846E0,-1.704789871E1,3.991300049E0,1.754635806E1
1.168233746E1,1.053808594E-1,-1.428210022E1,2.553090820E0,1.450888571E1
1.169227046E1,7.226971436E-1,-1.164129181E1,5.433700562E-1,1.167635291E1
1.170220446E1,6.496490479E-1,-9.317973175E0,-5.355862427E-1,9.355935047E0
1.171213746E1,-4.287084961E-1,-7.249873810E0,-1.057401123E0,7.339111552E0
1.172207046E1,-1.586251373E0,-4.889582062E0,-9.900411987E-1,5.234920031E0
1.173200346E1,-2.514022064E0,-2.418071594E0,-1.004710693E0,3.629989084E0
1.174193746E1,-3.124752045E0,-6.391708374E-1,-1.249302063E0,3.425400757E0
1.175187046E1,-3.605402527E0,7.819738770E-1,-1.348096619E0,3.927820645E0
1.176180346E1,-3.751199341E0,1.763782196E0,-9.014254761E-1,4.242050450E0
1.177173646E1,-3.174748077E0,1.854194183E0,6.406677246E-2,3.677113811E0
1.178167046E1,-2.187850342E0,1.805245972E0,1.030307465E0,3.017803110E0
1.179160346E1,-1.172661438E0,2.016456757E0,1.399439850E0,2.720232452E0
1.180153646E1,-7.485932922E-1,1.971999207E0,1.192120972E0,2.422875399E0
1.181146946E1,-1.002914429E0,1.334474945E0,9.348060608E-1,1.913249357E0
1.182140346E1,-1.080752563E0,5.709127808E-1,6.346801758E-1,1.377238698E0
1.183133646E1,-7.863148499E-1,2.463876343E-1,1.049317932E-1,8.306675572E-1
1.184126946E1,-4.887336731E-1,2.387535095E-1,-2.838098145E-1,6.135241253E-1
1.185120346E1,-1.892065430E-1,2.903961182E-1,-4.989125061E-1,6.074888559E-1
1.186113646E1,1.398092651E-1,2.282752991E-1,-3.549119568E-1,4.445432936E-1
1.187106946E1,3.746708679E-1,-2.748284912E-1,1.249900818E-1,4.811771809E-1
1.188100246E1,6.982978821E-1,-9.578581238E-1,3.359014893E-1,1.232047859E0
1.189093646E1,1.386865997E0,-1.669029236E0,4.441264343E-1,2.215017872E0
1.190086946E1,2.113155670E0,-2.577789459E0,5.438191223E-1,3.377301381E0
1.191080246E1,1.613345032E0,-4.189338226E0,1.645378418E0,4.781287181E0
1.192073546E1,-9.666897583E-1,-6.411018219E0,3.168161774E0,7.216154982E0
1.193066946E1,-4.539759521E0,-9.009165344E0,3.123853912E0,1.056091568E1
1.194060246E1,-8.882229309E0,-1.342363541E1,1.065933380E0,1.613146611E1
1.195053546E1,-1.011895752E1,-1.848910172E1,-1.879341888E0,2.116062640E1
1.196046946E1,-9.349407806E0,-2.554827209E1,-3.929328918E-1,2.720808758E1
1.197040246E1,-9.245523834E0,-3.374298111E1,3.722908173E0,3.518420854E1
1.198033546E1,-9.528435516E0,-3.282299423E1,5.456902313E0,3.461094937E1
1.199026846E1,-9.428293762E0,-2.505429932E1,4.266876984E0,2.710750591E1
1.200020246E1,-1.110166397E1,-2.299503159E1,2.948418732E0,2.570431080E1
1.201013546E1,-1.217747681E1,-2.432232147E1,2.318977661E0,2.729915604E1
1.202006846E1,-1.118040024E1,-2.476794479E1,1.324894867E0,2.720675992E1
1.203000146E1,-8.736881561E0,-2.285357574E1,1.732497253E0,2.452795488E1
1.203993546E1,-5.676196289E0,-2.031949539E1,3.246898041E0,2.134580624E1
1.204986846E1,-2.623294830E0,-1.796758621E1,3.730242920E0,1.853727440E1
1.205980146E1,3.192860413E-1,-1.614093475E1,2.978655853E0,1.641658031E1
1.206973446E1,1.512604523E0,-1.397688492E1,1.624721375E0,1.415206713E1
1.207966846E1,1.257834320E0,-1.157767410E1,1.075663147E0,1.169537242E1
1.208960146E1,4.086502075E-2,-8.968300323E0,9.056167603E-1,9.014001462E0
1.209953446E1,-1.340462494E0,-5.977819061E0,-1.119671631E-1,6.127291169E0
1.210946846E1,-2.593656464E0,-3.318449249E0,-7.379653931E-1,4.275950443E0
1.211940146E1,-3.390449524E0,-8.542735291E-1,-1.110390930E0,3.668500955E0
1.212933446E1,-4.016447754E0,9.436376953E-1,-1.207089844E0,4.298763840E0
1.213926746E1,-4.307292938E0,2.163151703E0,-7.849676514E-1,4.883459016E0
1.214920146E1,-3.615880737E0,2.944377136E0,1.431024170E-1,4.665236171E0
1.215913446E1,-2.157912598E0,3.380420380E0,1.053060150E0,4.146415850E0
1.216906746E1,-9.595046997E-1,3.463647308E0,1.479822693E0,3.886820956E0
1.217900046E1,-7.937992859E-1,2.973716125E0,1.464853821E0,3.408650997E0
1.218893446E1,-1.438658295E0,1.946851501E0,1.237027588E0,2.718493280E0
1.219886746E1,-1.806593170E0,9.452842712E-1,8.574169922E-1,2.211900797E0
1.220880046E1,-1.651365967E0,4.475692749E-1,1.362167358E-1,1.716357425E0
1.221873346E1,-1.152453461E0,1.317260742E-1,-4.706213379E-1,1.251792787E0
1.222866746E1,-6.620732117E-1,-1.628613281E-1,-7.655081177E-1,1.025118251E0
1.223860046E1,-2.893482971E-1,-1.037342834E-1,-7.283853149E-1,7.905873801E-1
1.224853346E1,3.906875610E-2,-2.396516418E-1,-3.132984924E-1,3.963776261E-1
1.225846746E1,2.155517578E-2,-7.325765991E-1,7.259902954E-2,7.364806299E-1
1.226840046E1,1.197509766E-1,-1.139280853E0,1.874102783E-1,1.160785842E0
1.227833346E1,9.704319763E-1,-1.492546234E0,-4.278103638E-1,1.830970832E0
1.228826646E1,1.962868195E0,-2.688110046E0,5.718109131E-2,3.328972341E0
1.229820046E1,1.726360016E0,-4.564757538E0,3.712729340E0,6.132021643E0
1.230813346E1,-1.643582153E-1,-6.997648315E0,6.941964111E0,9.858243317E0
1.231806646E1,-4.661306763E0,-1.080168777E1,6.203399963E0,1.329986506E1
1.232799946E1,-9.360784149E0,-1.632475250E1,8.279283142E-1,1.883632898E1
1.233793346E1,-1.219035004E1,-2.446362762E1,-2.658321991E0,2.746161660E1
1.234786646E1,-1.288670197E1,-3.477792892E1,-2.145039368E-1,3.708931706E1
1.235779946E1,-1.225576401E1,-4.031820786E1,5.178930359E0,4.245683638E1
1.236773246E1,-1.007554779E1,-3.076821716E1,6.673422546E0,3.305653368E1
1.237766646E1,-9.565109253E0,-2.395184189E1,6.203998718E0,2.652680993E1
1.238759946E1,-1.070618637E1,-2.387220749E1,4.117487640E0,2.648506034E1
1.239753246E1,-1.023047562E1,-2.366159546E1,2.192341003E0,2.587160780E1
1.240746546E1,-8.303083649E0,-2.268352936E1,2.374362488E0,2.427182110E1
1.241739946E1,-5.414390717E0,-2.074595856E1,3.883524170E0,2.178972655E1
1.242733246E1,-2.592608643E0,-1.804841812E1,3.946842499E0,1.865595299E1
1.243726546E1,-1.288819885E0,-1.512873962E1,2.708916779E0,1.542329567E1
1.244719946E1,-7.896080017E-1,-1.247790207E1,1.625020752E0,1.260802178E1
1.245713246E1,-7.857160950E-1,-1.024080414E1,9.502239990E-1,1.031476344E1
1.246706546E1,-1.502276001E0,-7.921826477E0,6.240522766E-1,8.087126137E0
1.247699846E1,-1.644929352E0,-5.775439911E0,-3.041674805E-1,6.012821018E0
1.248693246E1,-2.783761139E0,-3.600013733E0,-8.086184692E-1,4.622043789E0
1.249686546E1,-3.472029877E0,-1.412762146E0,-1.188378754E0,3.932318961E0
1.250679846E1,-3.720962219E0,-3.517684937E-2,-1.458267517E0,3.996666286E0
1.251673146E1,-3.912563782E0,9.068142700E-1,-7.111711121E-1,4.078753709E0
1.252666546E1,-3.646566925E0,1.434766388E0,7.661068726E-1,3.992859210E0
1.253659846E1,-2.622247009E0,1.854194183E0,1.580862579E0,3.579572871E0
1.254653146E1,-1.530716858E0,2.109263763E0,1.790726166E0,3.162086008E0
1.255646446E1,-1.104553070E0,2.282603302E0,1.676513672E0,3.039903520E0
1.256639846E1,-1.556313629E0,1.656904449E0,1.685345306E0,2.829811525E0
1.257633146E1,-2.083367615E0,5.855822754E-1,1.533860321E0,2.652556258E0
1.258626446E1,-2.185754700E0,-2.709365845E-2,1.055904236E0,2.427589634E0
1.259619846E1,-1.892364807E0,-2.043251038E-1,4.899311829E-1,1.965407305E0
1.260613146E1,-1.632804565E0,-7.619155884E-2,1.375639343E-1,1.640359637E0
1.261606446E1,-1.508413239E0,-2.101629639E-1,-1.504371643E-1,1.530395475E0
1.262599746E1,-1.181343384E0,-4.372407532E-1,-1.664538574E-1,1.270613456E0
1.263593146E1,-7.417076111E-1,-7.330256653E-1,5.463638306E-2,1.044242281E0
1.264586446E1,-2.694396973E-2,-9.806108093E-1,2.833607483E-1,1.021086113E0
1.265579746E1,6.084846497E-1,-8.159532166E-1,1.125659180E-1,1.024062648E0
1.266573046E1,9.683363342E-1,-5.536985779E-1,-4.776567078E-1,1.213430386E0
1.267566446E1,9.473799133E-1,-1.391057281E0,-5.878276062E-1,1.782725541E0
1.268559746E1,1.990859985E-1,-3.156036987E0,1.268462219E0,3.407227774E0
1.269553046E1,-1.527723083E0,-5.563929749E0,4.879702606E0,7.556636129E0
1.270546346E1,-5.075046387E0,-8.663534088E0,5.940396881E0,1.166624335E1
1.271539746E1,-8.545130310E0,-1.357886261E1,2.054028625E0,1.617478888E1
1.272533046E1,-9.531429291E0,-2.015798126E1,-2.237846375E0,2.240982618E1
1.273526346E1,-9.141190796E0,-2.823234055E1,-2.221230927E0,2.975836502E1
1.274519746E1,-8.471932526E0,-3.616135208E1,3.200793915E0,3.727817199E1
1.275513046E1,-7.766449585E0,-3.412259171E1,7.000492401E0,3.568859619E1
1.276506346E1,-7.670948181E0,-2.664294571E1,4.772226105E0,2.813297254E1
1.277499646E1,-8.811276855E0,-2.523527298E1,4.242777100E0,2.706397531E1
1.278493046E1,-9.772577820E0,-2.484533386E1,4.218976593E0,2.702949603E1
1.279486346E1,-8.516988831E0,-2.416544769E1,2.623594208E0,2.575638188E1
1.280479646E1,-6.056705017E0,-2.221829681E1,1.830842743E0,2.310169635E1
1.281472946E1,-3.428620148E0,-2.011038025E1,3.717968445E0,2.073658890E1
1.282466346E1,-1.534309387E0,-1.782283722E1,4.096381531E0,1.835178393E1
1.283459646E1,-1.447938995E0,-1.588676331E1,2.820434875E0,1.620001940E1
1.284452946E1,-2.296075287E0,-1.388497604E1,1.453776855E0,1.414842707E1
1.285446246E1,-3.138373718E0,-1.161195282E1,7.679031372E-2,1.202882931E1
1.286439646E1,-3.287014618E0,-9.182355194E0,-1.315314789E0,9.841248143E0
1.287432946E1,-3.270399170E0,-6.831643524E0,-2.564167786E0,7.996362949E0
1.288426246E1,-3.662433929E0,-4.079317017E0,-2.380499725E0,5.976707166E0
1.289419546E1,-3.755540314E0,-1.683698730E0,-1.685644684E0,4.447507444E0
1.290412946E1,-3.843108215E0,-5.763015747E-2,-6.313870239E-1,3.895054757E0
1.291406217E1,-3.361260223E0,1.075962524E0,3.767665100E-1,3.549326506E0
1.292399517E1,-2.170935516E0,1.735191650E0,1.266665955E0,3.054225552E0
1.293392917E1,-9.011260986E-1,1.748214569E0,2.217339020E0,2.963928939E0
1.294386217E1,-3.107537842E-1,1.842219086E0,2.460583191E0,3.089467383E0
1.295379517E1,-6.725514221E-1,1.762884064E0,2.197729797E0,2.896567261E0
1.296372817E1,-1.263223114E0,1.356030121E0,1.838027802E0,2.610152586E0
1.297366217E1,-1.547481995E0,8.789721680E-1,1.398092651E0,2.263173802E0
1.298359517E1,-1.376088409E0,5.445675659E-1,9.942324829E-1,1.782882883E0
1.299352817E1,-7.497908020E-1,3.851490784E-1,4.055067444E-1,9.353939165E-1
1.300346117E1,-2.395019531E-2,3.496728516E-1,-2.573149109E-1,4.348053338E-1
1.301339517E1,4.915777588E-1,3.579057312E-1,-5.117857361E-1,7.947766007E-1
1.302332817E1,8.223898315E-1,1.546284485E-1,-4.668791199E-1,9.582333248E-1
1.303326117E1,1.128802643E0,-3.710783386E-1,-2.989283752E-1,1.225256183E0
1.304319417E1,1.430425415E0,-1.001417542E0,-2.164498901E-1,1.759489845E0
1.305312817E1,1.334474945E0,-1.120270386E0,-4.602928162E-1,1.802137229E0
1.306306117E1,9.092092896E-1,-9.550140381E-1,-1.335672455E0,1.876894843E0
1.307299417E1,1.695973206E-1,-1.211430817E0,-1.398841095E0,1.858247638E0
1.308292717E1,-7.300318909E-1,-2.145338745E0,9.032217407E-1,2.439515199E0
1.309286117E1,-3.140319672E0,-4.181255035E0,5.828280029E0,7.830284121E0
1.310279417E1,-7.295229492E0,-7.130571899E0,7.901768188E0,1.290361846E1
1.311272717E1,-9.555678864E0,-1.095751373E1,2.898871765E0,1.482503164E1
1.312266117E1,-9.287286987E0,-1.620949219E1,-2.471061401E0,1.884429572E1
1.313259417E1,-8.954828339E0,-2.170217010E1,-7.569758606E-1,2.348927735E1
1.314252717E1,-9.078620911E0,-3.068034988E1,6.356830902E0,3.262076832E1
1.315246017E1,-1.144819336E1,-3.723985931E1,5.858217773E0,3.939780411E1
1.316239417E1,-1.309387115E1,-3.099065460E1,2.657872925E0,3.374810251E1
1.317232717E1,-1.094883179E1,-2.392040726E1,3.648961945E0,2.655894810E1
1.318226017E1,-8.841963043E0,-2.404779236E1,6.203100586E0,2.636200077E1
1.319219317E1,-7.241640930E0,-2.508453644E1,4.076772308E0,2.642527964E1
1.320212717E1,-7.183412018E0,-2.431962708E1,3.243904266E0,2.556498747E1
1.321206017E1,-6.468648376E0,-2.258772858E1,4.644242249E0,2.395032109E1
1.322199317E1,-4.644092560E0,-2.074880264E1,5.361550598E0,2.192775938E1
1.323192617E1,-3.628454590E0,-1.901316193E1,4.358785858E0,1.984099351E1
1.324186017E1,-3.804638214E0,-1.709310471E1,2.999612274E0,1.776646206E1
1.325179317E1,-3.324736176E0,-1.415411636E1,2.158062286E0,1.469864325E1
1.326172617E1,-2.536924438E0,-1.160357025E1,9.171427917E-1,1.191301721E1
1.327165917E1,-2.825823669E0,-9.118288422E0,-2.694396973E-2,9.546160963E0
1.328159317E1,-3.861968994E0,-6.985074463E0,-3.273692322E-1,7.988318996E0
1.329152617E1,-4.327949982E0,-4.863536224E0,-6.294410706E-1,6.540743972E0
1.330145917E1,-3.920646973E0,-2.438578949E0,-1.539398804E0,4.867020511E0
1.331139317E1,-2.834206238E0,-5.185217285E-1,-1.440454559E0,3.221257382E0
1.332132617E1,-2.082619171E0,9.154962158E-1,-6.581813049E-1,2.368256440E0
1.333125917E1,-1.420845337E0,1.885030060E0,2.499801636E-1,2.373737534E0
1.334119217E1,-9.720785522E-1,2.483036499E0,1.254092102E0,2.946719187E0
1.335112617E1,-7.750881958E-1,2.850821686E0,2.027833099E0,3.583301979E0
1.336105917E1,-8.657995605E-1,2.939437408E0,2.260149994E0,3.807647456E0
1.337099217E1,-1.133742371E0,2.598596191E0,1.769620056E0,3.342099501E0
1.338092517E1,-1.446741486E0,1.564845886E0,9.439370728E-1,2.330841215E0
1.339085917E1,-1.370998993E0,6.209088135E-1,1.502874756E-1,1.512531758E0
1.340079217E1,-8.355624390E-1,3.421884155E-1,-5.897735596E-1,1.078466667E0
1.341072517E1,2.305206299E-2,2.883004761E-1,-1.052012329E0,1.091044684E0
1.342065817E1,7.586224365E-1,2.725831604E-1,-7.863148499E-1,1.126099740E0
1.343059217E1,1.395547943E0,1.221459961E-1,-1.859133911E-1,1.413165770E0
1.344052517E1,2.246528320E0,-4.661306763E-1,3.367996216E-1,2.318965564E0
1.345045817E1,2.597698059E0,-1.143472137E0,5.692662048E-1,2.894758668E0
1.346039117E1,2.146536255E0,-1.234482880E0,7.485932922E-1,2.586881866E0
1.347032517E1,1.274000702E0,-9.767189026E-1,5.674699402E-1,1.702668416E0
1.348025817E1,-5.867797852E-2,-9.364526367E-1,6.098318481E-1,1.119053854E0
1.349019117E1,-1.437909851E0,-1.257684631E0,1.135987701E0,2.222571355E0
1.350012517E1,-2.944826202E0,-2.200723572E0,2.523602142E0,4.459120247E0
1.351005817E1,-5.885610809E0,-4.354744263E0,5.873186646E0,9.386081907E0
1.351999117E1,-8.800499268E0,-7.215445404E0,6.543492737E0,1.312740404E1
1.352992417E1,-8.610244904E0,-1.257415192E1,-1.008153534E0,1.527291679E1
1.353985817E1,-9.900411987E0,-1.782687881E1,-2.770438843E0,2.057889932E1
1.354979117E1,-1.115959351E1,-2.353555756E1,3.028951263E0,2.622276764E1
1.355972417E1,-1.191207870E1,-3.468467285E1,2.632874908E0,3.676759688E1
1.356965717E1,-1.361119537E1,-3.834635834E1,1.051413574E0,4.070397165E1
1.357959117E1,-1.216999237E1,-2.672377762E1,3.699407043E0,2.959653049E1
1.358952417E1,-7.125183105E0,-2.072784622E1,6.152805176E0,2.276551899E1
1.359945717E1,-4.663701782E0,-2.210333588E1,6.560407562E0,2.352331861E1
1.360939017E1,-5.104085999E0,-2.426843353E1,4.895419922E0,2.527792903E1
1.361932417E1,-6.290069733E0,-2.490490997E1,3.979324951E0,2.599335579E1
1.362925717E1,-6.110143890E0,-2.371847717E1,5.722899170E0,2.515256632E1
1.363919017E1,-6.138285370E0,-2.185395447E1,5.725294189E0,2.341052897E1
1.364912317E1,-6.313271484E0,-1.983345612E1,4.235592041E0,2.124061247E1
1.365905717E1,-6.160888367E0,-1.742915588E1,3.082988892E0,1.874131374E1
1.366899017E1,-6.418951721E0,-1.445723602E1,1.914967804E0,1.593366613E1
1.367892317E1,-5.718408508E0,-1.073582474E1,1.185384979E0,1.222142652E1
1.368885617E1,-4.296365662E0,-8.317902832E0,3.903881836E-1,9.370094362E0
1.369879017E1,-2.887794800E0,-5.207969971E0,-8.484356689E-1,6.015160273E0
1.370872317E1,-2.568209381E0,-2.270029449E0,-1.346000977E0,3.682451867E0
1.371865617E1,-2.082469482E0,-5.430706787E-1,-1.408121796E0,2.571849898E0
1.372859017E1,-2.467019806E0,1.111588440E0,-1.028062134E0,2.894603139E0
1.373852317E1,-2.680924988E0,1.808090057E0,-9.388476562E-1,3.367192208E0
1.374845617E1,-2.780467987E0,2.096240845E0,-6.750961304E-1,3.546968098E0
1.375838917E1,-2.318229218E0,2.729274445E0,7.289840698E-2,3.581681152E0
1.376832317E1,-1.553319855E0,2.407892761E0,8.315208435E-1,2.983651627E0
1.377825617E1,-9.791139221E-1,1.891316986E0,1.463207245E0,2.583934878E0
1.378818917E1,-7.545808411E-1,1.218316498E0,1.829645233E0,2.324067343E0
1.379812217E1,-5.167254639E-1,4.168830872E-1,1.804497528E0,1.922760526E0
1.380805617E1,-2.981799316E-1,-9.894424438E-2,1.284329224E0,1.322196199E0
1.381798917E1,-5.987548828E-4,-2.769241333E-1,4.222718811E-1,5.049761140E-1
1.382792217E1,2.844085693E-1,-2.525248718E-1,-1.639091492E-1,4.141536604E-1
1.383785517E1,5.710624695E-1,-1.113684082E-1,-3.158432007E-1,6.620212941E-1
1.384778917E1,1.023272095E0,-1.116677856E-1,-1.062789917E-1,1.034819162E0
1.385772217E1,1.573228455E0,-5.267546082E-1,1.588197327E-1,1.666655902E0
1.386765517E1,1.778451691E0,-9.837542725E-1,1.508862305E-1,2.037996452E0
1.387758817E1,1.414259033E0,-1.207538910E0,-3.667373657E-2,1.860006396E0
1.388752217E1,7.538323975E-1,-8.891510010E-1,-5.589376831E-1,1.292773808E0
1.389745517E1,-1.296304321E-1,-3.376977539E-1,-1.082099762E0,1.140957369E0
1.390738817E1,-9.993218994E-1,-1.706451416E-2,-4.623884583E-1,1.101244089E0
1.391732217E1,-1.900747375E0,-7.120692444E-1,1.630708923E0,2.603669485E0
1.392725517E1,-3.831731873E0,-2.938988342E0,4.554728394E0,6.638175379E0
1.393718817E1,-6.293512573E0,-6.051316223E0,6.116131439E0,1.065991521E1
1.394712117E1,-8.083939362E0,-1.063179108E1,4.130211182E0,1.398011808E1
1.395705517E1,-9.678722992E0,-1.731898499E1,-9.717791748E-1,1.986376788E1
1.396698817E1,-1.153875504E1,-2.708587463E1,-2.859353943E0,2.957977987E1
1.397692117E1,-1.149414780E1,-4.264826248E1,3.330274658E0,4.429537736E1
1.398685417E1,-1.121408020E1,-4.097863449E1,8.926387482E0,4.341295282E1
1.399678817E1,-1.035756134E1,-2.321417587E1,5.266947327E0,2.595992628E1
1.400672117E1,-6.121969299E0,-2.224958176E1,6.243366852E0,2.390610855E1
1.401665417E1,-6.322701874E0,-2.506986694E1,7.101083221E0,2.681231378E1
1.402658717E1,-8.206833801E0,-2.706686417E1,5.147645416E0,2.874831317E1
1.403652117E1,-8.636440430E0,-2.582714218E1,3.476670227E0,2.745389977E1
1.404645417E1,-6.043682098E0,-2.232472549E1,4.669389954E0,2.359497116E1
1.405638717E1,-3.202889557E0,-1.915102524E1,5.641767883E0,2.022003497E1
1.406632017E1,-1.947001190E0,-1.654554337E1,5.211712189E0,1.745588047E1
1.407625417E1,-2.215542755E0,-1.390338776E1,3.809577942E0,1.458511930E1
1.408618717E1,-2.373763733E0,-1.126018433E1,2.322420502E0,1.173968238E1
1.409612017E1,-2.064656525E0,-8.941356354E0,6.276448059E-1,9.198075778E0
1.410605317E1,-1.896107025E0,-6.248605957E0,-1.537303162E0,6.708472201E0
1.411598717E1,-1.767973480E0,-2.958298187E0,-2.614313507E0,4.325724622E0
1.412592017E1,-1.672322388E0,-1.214574280E0,-2.729573822E0,3.423802871E0
1.413585317E1,-3.338357849E0,3.436853027E-1,-1.690584412E0,3.757769068E0
1.414578717E1,-4.156257019E0,7.946974182E-1,-1.330133972E0,4.435681772E0
1.415572017E1,-3.881428528E0,8.551716614E-1,-7.092251587E-1,4.037301861E0
1.416565317E1,-2.588417358E0,1.076112213E0,2.781216431E-1,2.816961761E0
1.417558617E1,-1.531465302E0,1.404678955E0,1.213526459E0,2.406481956E0
1.418552017E1,-1.143621826E0,2.042502594E0,1.976190491E0,3.063497443E0
1.419545317E1,-9.654922485E-1,2.238145752E0,2.391726379E0,3.414941692E0
1.420538617E1,-8.503816223E-1,2.061213684E0,2.281555481E0,3.190179645E0
1.421531917E1,-5.310955811E-1,1.854942627E0,1.882485352E0,2.695667963E0
1.422525317E1,-3.502716064E-1,1.542093201E0,1.472487946E0,2.160778190E0
1.423518617E1,-4.528083801E-1,1.202599182E0,1.017883301E0,1.639318955E0
1.424511917E1,-6.924600220E-1,8.349636841E-1,5.625302124E-1,1.221926952E0
1.425505217E1,-7.447013855E-1,3.453318787E-1,3.474275208E-1,8.913698122E-1
1.426498617E1,-7.214996338E-1,-1.689985657E-1,3.137475586E-1,8.047109837E-1
1.427491917E1,-4.113446045E-1,-7.144642639E-1,3.138972473E-1,8.821536430E-1
1.428485217E1,5.501060486E-1,-1.296753387E0,3.715274048E-1,1.456783658E0
1.429478517E1,1.328936462E0,-1.592388611E0,-2.874023438E-2,2.074270862E0
1.430471917E1,1.373843079E0,-1.717229004E0,-1.019380188E0,2.423934039E0
1.431465217E1,8.855584717E-1,-2.454445953E0,-1.385967865E0,2.954560148E0
1.432458517E1,-2.709365845E-2,-3.628005524E0,6.409671021E-1,3.684290566E0
1.433451817E1,-2.354603577E0,-5.972430267E0,4.561015320E0,7.875083622E0
1.434445217E1,-5.791755981E0,-1.009081604E1,5.974974976E0,1.307934752E1
1.435438517E1,-8.547824707E0,-1.607162888E1,2.993325348E0,1.844783344E1
1.436431817E1,-9.508377228E0,-2.366458923E1,-2.260299683E0,2.560333915E1
1.437425217E1,-9.680219879E0,-3.472718445E1,-1.261576538E0,3.607319742E1
1.438418517E1,-8.139623566E0,-4.067297012E1,6.538103943E0,4.199155598E1
1.439411817E1,-6.275998993E0,-3.212589386E1,7.907456360E0,3.367475443E1
1.440405117E1,-7.279212799E0,-2.657618454E1,5.523364105E0,2.810316841E1
1.441398517E1,-1.100795883E1,-2.745171387E1,5.013823700E0,2.999850296E1
1.442391817E1,-1.189157135E1,-2.800152054E1,3.552562408E0,3.062866829E1
1.443385117E1,-9.331744537E0,-2.588312576E1,2.531835022E0,2.763019804E1
1.444378417E1,-5.717210999E0,-2.287258621E1,3.937112732E0,2.390277303E1
1.445371817E1,-3.418441315E0,-2.016860916E1,4.557572479E0,2.095781485E1
1.446365117E1,-2.484084320E0,-1.767389694E1,3.478167114E0,1.818337027E1
1.447358417E1,-2.124532013E0,-1.510299316E1,2.185605011E0,1.540749519E1
1.448351717E1,-1.916764069E0,-1.254196884E1,1.101409607E0,1.273530801E1
1.449345117E1,-1.693727875E0,-9.896969147E0,6.849755859E-1,1.006418919E1
1.450338417E1,-1.431473236E0,-7.343279572E0,8.292755127E-2,7.481961472E0
1.451331717E1,-1.701661377E0,-5.012027435E0,-1.251248016E0,5.438905409E0
1.452325017E1,-2.165846100E0,-2.566862183E0,-1.672172699E0,3.751777223E0
1.453318417E1,-2.646047516E0,-4.264631653E-1,-1.424886932E0,3.035414479E0
1.454311717E1,-3.172053680E0,9.910890198E-1,-1.124012604E0,3.508216973E0
1.455305017E1,-3.982618103E0,1.972448273E0,-3.583547974E-1,4.458723730E0
1.456298317E1,-3.965104523E0,2.583627319E0,6.601272583E-1,4.778383827E0
1.457291717E1,-2.919977875E0,2.733765106E0,1.325792999E0,4.213961263E0
1.458285017E1,-1.963916016E0,2.298769684E0,1.878593445E0,3.559553554E0
1.459278317E1,-1.344354401E0,1.885928192E0,2.597997437E0,3.480460398E0
1.460271617E1,-8.677455139E-1,1.301393738E0,3.246748352E0,3.603884404E0
1.461265017E1,-9.946815491E-1,6.426136780E-1,3.308719482E0,3.514252173E0
1.462258317E1,-1.171164551E0,1.942959595E-1,2.620899811E0,2.877237068E0
1.463251617E1,-1.173409882E0,-3.757186890E-2,1.227597198E0,1.698616283E0
1.464245017E1,-1.159039764E0,1.751358032E-2,-1.577719116E-1,1.169859768E0
1.465238317E1,-1.184187469E0,3.591032410E-1,-9.062155151E-1,1.533780186E0
1.466231617E1,-1.163081360E0,5.131329346E-1,-9.360035706E-1,1.578659666E0
1.467224917E1,-1.170565796E0,1.872605896E-1,-3.629951477E-1,1.239780742E0
1.468218317E1,-9.747729492E-1,-2.570155334E-1,3.847000122E-2,1.008820712E0
1.469211617E1,-3.162922668E-1,-7.219487000E-1,1.556762695E-1,8.034213243E-1
1.470204917E1,4.246669006E-1,-1.197809143E0,-4.442761230E-1,1.346280057E0
1.471198217E1,9.955796814E-1,-1.609153748E0,-1.553918610E0,2.448513372E0
1.472191617E1,9.770182800E-1,-2.065554657E0,-2.612367554E0,3.470669243E0
1.473184917E1,-1.916015625E-2,-2.795436859E0,-2.393522644E0,3.680188174E0
1.474178217E1,-1.340013428E0,-3.971391449E0,8.214916992E-1,4.271116322E0
1.475171517E1,-4.084406433E0,-6.615493011E0,5.773793335E0,9.684204313E0
1.476164917E1,-7.146289215E0,-1.079599960E1,7.475005646E0,1.494987513E1
1.477158217E1,-9.199419708E0,-1.727617401E1,4.063899078E0,1.999026731E1
1.478151517E1,-1.078327606E1,-2.661719925E1,8.524772644E-1,2.873118612E1
1.479144817E1,-1.158141632E1,-3.926784210E1,2.846331024E0,4.103893551E1
1.480138217E1,-1.096829132E1,-4.129687271E1,6.679709473E0,4.324758524E1
1.481131517E1,-9.518705750E0,-2.759601379E1,7.067253571E0,3.003484326E1
1.482124817E1,-9.401499481E0,-2.422457474E1,7.648045807E0,2.708709690E1
1.483118117E1,-9.610015869E0,-2.502406219E1,9.004225616E0,2.827776817E1
1.484111517E1,-8.520431671E0,-2.519171356E1,6.244863739E0,2.731700041E1
1.485104817E1,-6.930138702E0,-2.420870773E1,4.196523285E0,2.552839909E1
1.486098117E1,-4.309089203E0,-2.200588852E1,5.263953552E0,2.303337983E1
1.487091417E1,-2.373314667E0,-1.931972443E1,5.535488892E0,2.023674904E1
1.488084817E1,-2.174827423E0,-1.652937698E1,4.043840790E0,1.715525652E1
1.489078117E1,-2.579136658E0,-1.357347382E1,2.503843231E0,1.404138057E1
1.490071417E1,-2.734513550E0,-1.091170898E1,1.385967865E0,1.133419006E1
1.491064717E1,-2.117796021E0,-8.451874237E0,8.666976929E-2,8.713595684E0
1.492058104E1,-1.728605347E0,-6.394253082E0,-5.490582275E-1,6.646503883E0
1.493051404E1,-1.470242615E0,-4.357738037E0,-1.061592407E0,4.720007689E0
1.494044704E1,-1.600022736E0,-2.697989502E0,-2.039508820E0,3.741499209E0
1.495038104E1,-2.281106415E0,-1.091081085E0,-2.174977112E0,3.335330545E0
1.496031404E1,-3.204985199E0,1.369651794E-1,-1.291364594E0,3.458079250E0
1.497024704E1,-3.803440704E0,7.214996338E-1,-2.897973633E-1,3.882100646E0
1.498018004E1,-3.914509735E0,1.063089294E0,2.386038208E-1,4.063308639E0
1.499011404E1,-2.961291962E0,1.532363434E0,6.280938721E-1,3.392917578E0
1.500004704E1,-1.768721924E0,1.758842468E0,1.299747162E0,2.812693861E0
1.500998004E1,-7.949967957E-1,1.929487610E0,2.166145477E0,3.007844506E0
1.501991304E1,-1.242416382E-1,1.777104492E0,2.609673157E0,3.159735803E0
1.502984704E1,6.885681152E-3,1.330583038E0,2.575693817E0,2.899085593E0
1.503978004E1,-1.558259583E-1,7.346722412E-1,2.089953918E0,2.220795446E0
1.504971304E1,-2.754272461E-1,5.777984619E-2,1.208736420E0,1.241065031E0
1.505964604E1,-3.996688843E-1,-3.376977539E-1,5.022056580E-1,7.252485870E-1
1.506958004E1,-5.132826233E-1,-5.583389282E-1,2.393522644E-1,7.952929753E-1
1.507951304E1,-3.731739807E-1,-8.131091309E-1,8.876541138E-2,8.990464820E-1
1.508944604E1,-1.172062683E-1,-1.040935364E0,-9.385482788E-2,1.051709309E0
1.509937904E1,3.851490784E-1,-1.217268677E0,-1.972897339E-1,1.291900183E0
1.510931304E1,1.208586731E0,-1.406624908E0,-5.643264771E-1,1.938489075E0
1.511924604E1,1.727707214E0,-1.547931061E0,-9.880952454E-1,2.521387515E0
1.512917904E1,1.579665070E0,-1.647174683E0,-1.006057892E0,2.494128836E0
1.513911204E1,8.951385498E-1,-1.940863953E0,-4.025129700E-1,2.174912089E0
1.514904604E1,-2.496807861E-1,-3.120111694E0,1.013392639E0,3.290045915E0
1.515897904E1,-2.401905212E0,-5.689668274E0,3.315904541E0,7.009757246E0
1.516891204E1,-6.098767548E0,-1.008812164E1,5.662424927E0,1.307777580E1
1.517884504E1,-9.942175140E0,-1.550760178E1,3.952680359E0,1.884028241E1
1.518877904E1,-1.144998962E1,-2.264371216E1,-1.472038879E0,2.541666503E1
1.519871204E1,-1.021909927E1,-3.307042969E1,-7.940986633E-1,3.462244795E1
1.520864504E1,-7.189549255E0,-3.869737839E1,6.976093140E0,3.997302325E1
1.521857804E1,-6.263425140E0,-2.780767365E1,6.652316437E0,2.927030102E1
1.522851204E1,-6.810687103E0,-2.292871948E1,3.351081390E0,2.415246121E1
1.523844504E1,-9.217681732E0,-2.528092804E1,4.396208038E0,2.726568584E1
1.524837804E1,-1.128967300E1,-2.623594208E1,2.974614258E0,2.871636647E1
1.525831104E1,-9.877808990E0,-2.541205536E1,1.572929077E0,2.730966448E1
1.526824504E1,-7.203470306E0,-2.352208557E1,3.154989166E0,2.480186386E1
1.527817804E1,-4.993915100E0,-2.136222702E1,3.798950043E0,2.226467949E1
1.528811104E1,-3.693269806E0,-1.893682068E1,3.436853027E0,1.959733089E1
1.529804504E1,-3.046913910E0,-1.673953995E1,3.890409851E0,1.745368645E1
1.530797804E1,-2.766546936E0,-1.469583984E1,3.333867188E0,1.532110182E1
1.531791104E1,-2.946622467E0,-1.244901215E1,2.223176880E0,1.298472190E1
1.532784404E1,-2.614612885E0,-9.679471436E0,1.459165649E0,1.013200534E1
1.533777804E1,-2.242337036E0,-7.121590576E0,-2.784210205E-2,7.466317894E0
1.534771104E1,-1.775158539E0,-4.202361145E0,-1.145268402E0,4.703473902E0
1.535764404E1,-1.810634766E0,-1.325792999E0,-1.256786499E0,2.572088186E0
1.536757704E1,-2.346221008E0,4.315525818E-1,-1.247206421E0,2.691935086E0
1.537751104E1,-3.041375427E0,2.017055511E0,-1.066981201E0,3.802226494E0
1.538744404E1,-3.501069489E0,3.217858429E0,-6.032455444E-1,4.793329283E0
1.539737704E1,-3.961212616E0,3.766317902E0,1.592687988E-1,5.468246746E0
1.540731004E1,-3.355572052E0,3.568429413E0,1.062041473E0,5.012133713E0
1.541724404E1,-2.170486450E0,3.054697723E0,1.235081635E0,3.945581865E0
1.542717704E1,-1.638043671E0,2.364483032E0,1.161883850E0,3.102247759E0
1.543711004E1,-1.839824066E0,1.323547668E0,1.328038330E0,2.626864449E0
1.544704304E1,-1.934726715E0,3.011737061E-1,1.306483154E0,2.353884300E0
1.545697704E1,-1.777254181E0,-1.811233521E-2,9.819580078E-1,2.030566918E0
1.546691004E1,-1.670675812E0,-2.372566223E-1,3.758683777E-1,1.728793050E0
1.547684304E1,-1.469943237E0,-3.989204407E-1,-2.192939758E-1,1.538817886E0
1.548677604E1,-9.119036865E-1,-4.879852295E-1,-6.942562866E-1,1.245668379E0
1.549671004E1,-3.399430847E-1,-7.903564453E-1,-9.485774231E-1,1.280634116E0
1.550664304E1,1.420545959E-1,-9.783654785E-1,-6.147715759E-1,1.164183237E0
1.551657604E1,3.444337463E-1,-1.205892334E0,2.689906311E-1,1.282640591E0
1.552650904E1,2.067201233E-1,-1.288969574E0,1.022673340E0,1.658323410E0
1.553644304E1,1.309776306E-1,-1.204994202E0,1.360221405E0,1.821913400E0
1.554637604E1,1.231938171E-1,-1.684447174E0,1.560205536E0,2.299299962E0
1.555630904E1,-2.260299683E-2,-3.547622681E0,3.007994843E0,4.651254729E0
1.556624204E1,-1.295256500E0,-6.231541443E0,5.092859344E0,8.151503816E0
1.557617604E1,-5.274581451E0,-9.547296295E0,6.731501770E0,1.281737852E1
1.558610904E1,-9.530980225E0,-1.483564911E1,4.395908661E0,1.817305922E1
1.559604204E1,-1.150013535E1,-2.131851791E1,-1.617236938E0,2.427648604E1
1.560597504E1,-1.062221100E1,-2.849594238E1,-1.083746338E-1,3.041154129E1
1.561590904E1,-7.793243866E0,-3.457090942E1,3.816613312E0,3.564335794E1
1.562584204E1,-7.381899261E0,-3.225342865E1,4.087400208E0,3.333891025E1
1.563577504E1,-7.362439728E0,-2.527703613E1,5.366340637E0,2.686878647E1
1.564570904E1,-1.004950195E1,-2.412877396E1,5.739514618E0,2.676064742E1
1.565564204E1,-1.290885590E1,-2.475971191E1,2.719993744E0,2.805495073E1
1.566557504E1,-1.336256241E1,-2.398387527E1,2.047891388E0,2.753140400E1
1.567550804E1,-1.102711899E1,-2.183209991E1,3.186723175E0,2.466562678E1
1.568544204E1,-6.910080414E0,-1.921419388E1,4.929848328E0,2.100566262E1
1.569537504E1,-4.030069427E0,-1.713202377E1,4.363426208E0,1.813248980E1
1.570530804E1,-3.087479553E0,-1.572360260E1,2.727029114E0,1.625425780E1
1.571524104E1,-2.965483246E0,-1.447355209E1,1.628164215E0,1.486367114E1
1.572517504E1,-2.622396698E0,-1.249346970E1,1.245709534E0,1.282636120E1
1.573510804E1,-1.673669586E0,-1.025547363E1,6.327342224E-1,1.041039202E1
1.574504104E1,-1.212778015E0,-8.205785980E0,2.670446777E-1,8.299220863E0
1.575497404E1,-9.376501465E-1,-5.735473022E0,-3.504212952E-1,5.822167438E0
1.576490804E1,-1.409169617E0,-3.100801849E0,-1.261127472E0,3.631965531E0
1.577484104E1,-2.043550415E0,-6.295907593E-1,-1.720222778E0,2.744385037E0
1.578477404E1,-2.651286621E0,1.373843079E0,-1.853745117E0,3.514702905E0
1.579470704E1,-3.159330139E0,2.809806976E0,-1.737586670E0,4.571169392E0
1.580464104E1,-3.053200836E0,3.356170807E0,-1.213526459E0,4.696654586E0
1.581457404E1,-2.345771942E0,3.257675629E0,-7.102729797E-1,4.076712427E0
1.582450704E1,-1.550475769E0,2.933898926E0,-3.688330078E-1,3.338828508E0
1.583444004E1,-9.675878906E-1,2.362387390E0,-8.831634521E-2,2.554388436E0
1.584437404E1,-8.484356689E-1,1.013841705E0,2.824626160E-1,1.351851773E0
1.585430704E1,-3.475772095E-1,-2.668949890E-1,5.755531311E-1,7.233977180E-1
1.586424004E1,1.695973206E-1,-9.919871521E-1,8.789721680E-1,1.336186302E0
1.587417304E1,4.248165894E-1,-1.558409271E0,9.620494080E-1,1.880065864E0
1.588410704E1,5.590873718E-1,-1.875749359E0,8.481362915E-1,2.133154827E0
1.589404004E1,6.221063232E-1,-1.882185974E0,7.062313843E-1,2.104377126E0
1.590397304E1,4.861889648E-1,-1.670825500E0,8.716374207E-1,1.946224385E0
1.591390579E1,2.706372070E-1,-1.334175568E0,1.261726227E0,1.856130926E0
1.592383979E1,3.532653809E-2,-8.819659424E-1,1.758243713E0,1.967366982E0
1.593377279E1,-3.849993896E-1,-3.987707520E-1,2.081870728E0,2.154397449E0
1.594370579E1,-6.322851562E-1,-3.746708679E-1,2.079026642E0,2.205111008E0
1.595363879E1,-6.617738342E-1,-9.500743103E-1,1.787882080E0,2.130048857E0
1.596357279E1,-1.253942413E0,-2.037113800E0,1.758842468E0,2.969129677E0
1.597350579E1,-2.648143158E0,-3.954177246E0,1.589993591E0,5.017594992E0
1.598343879E1,-4.517455902E0,-7.344626770E0,2.616109772E0,9.010825742E0
1.599337179E1,-6.819518738E0,-1.166209854E1,5.836662598E0,1.471655559E1
1.600330579E1,-1.100631226E1,-1.788046738E1,8.154592438E0,2.252437349E1
1.601323879E1,-1.558064987E1,-2.649595139E1,3.698957977E0,3.095923740E1
1.602317179E1,-1.736823257E1,-3.505889465E1,-1.918560333E0,3.917221555E1
1.603310479E1,-1.334894073E1,-3.591586258E1,1.101110229E0,3.833217770E1
1.604303879E1,-6.518943787E0,-2.649520294E1,6.040838013E0,2.794609330E1
1.605297179E1,-5.068310394E0,-2.300446198E1,1.011626312E1,2.563653293E1
1.606290479E1,-8.443341980E0,-2.309457458E1,1.049991531E1,2.673756946E1
1.607283779E1,-1.071576645E1,-2.268667282E1,6.699468384E0,2.596912881E1
1.608277179E1,-1.098790054E1,-2.190814178E1,2.785856781E0,2.466701508E1
1.609270479E1,-8.968450012E0,-2.083202957E1,1.980082397E0,2.276680210E1
1.610263779E1,-5.882617035E0,-1.894550262E1,2.935844879E0,2.005383849E1
1.611257179E1,-3.644770660E0,-1.670870407E1,2.381397858E0,1.726662100E1
1.612250479E1,-2.499053192E0,-1.464150284E1,3.522175598E-1,1.485742001E1
1.613243779E1,-2.262245636E0,-1.276500504E1,-1.506616974E0,1.305116867E1
1.614237079E1,-1.776505737E0,-1.063673080E1,-2.377206573E0,1.104296726E1
1.615230479E1,-1.425485687E0,-8.198002167E0,-2.956352234E0,8.830587042E0
1.616223779E1,-1.692680054E0,-6.026617584E0,-3.288511505E0,7.071039046E0
1.617217079E1,-2.276466064E0,-4.055516510E0,-3.151246948E0,5.617817124E0
1.618210379E1,-2.769840088E0,-2.226170654E0,-2.680326233E0,4.451067132E0
1.619203779E1,-2.867137756E0,-1.075663147E0,-2.336341553E0,3.851755700E0
1.620197079E1,-2.202070770E0,-5.092410278E-1,-2.121089172E0,3.099590518E0
1.621190379E1,-1.393152924E0,-5.791456604E-1,-1.603914642E0,2.202005210E0
1.622183679E1,-5.346881104E-1,-3.731739807E-1,-2.341730347E0,2.430812871E0
1.623177079E1,9.635462952E-1,-2.198927307E-1,-1.732497253E0,1.994572889E0
1.624170379E1,2.223925323E0,-9.580078125E-2,-9.475296021E-2,2.228003536E0
1.625163679E1,2.789598999E0,1.686991882E-1,5.014572144E-1,2.839327619E0
1.626156979E1,3.100801849E0,1.392105103E-1,8.198451233E-1,3.210373452E0
1.627150379E1,3.070564728E0,-1.004411316E-1,1.121916962E0,3.270650369E0
1.628143679E1,2.986439667E0,-3.679348755E-1,1.868414612E0,3.541916306E0
1.629136979E1,2.572101288E0,-5.475613403E-1,2.561174011E0,3.670850143E0
1.630130279E1,1.585053864E0,-5.798941040E-1,2.682421875E0,3.169236507E0
1.631123679E1,5.721102905E-1,-8.220904541E-1,2.640359344E0,2.823940574E0
1.632116979E1,-4.855902100E-1,-1.196761322E0,2.386936340E0,2.713945579E0
1.633110279E1,-1.509910126E0,-1.408421173E0,1.903292084E0,2.808202191E0
1.634103579E1,-2.309247894E0,-1.494791565E0,1.296903076E0,3.041214437E0
1.635096979E1,-2.768043823E0,-1.482217712E0,6.384223938E-1,3.204156536E0
