"Time (s)","Acceleration x (m/s^2)","Acceleration y (m/s^2)","Acceleration z (m/s^2)","Absolute acceleration (m/s^2)"
1.561958336E-3,-5.170248413E0,5.741310883E0,1.019829254E1,1.279450234E1
1.149595834E-2,-4.356540527E0,4.779710541E0,1.171164551E1,1.337862918E1
2.142895834E-2,-3.225941620E0,4.414470062E0,1.265213974E1,1.378299261E1
3.136195833E-2,-2.606380005E0,4.723577271E0,1.267564087E1,1.377596713E1
4.129495833E-2,-1.751956787E0,4.589605865E0,1.071082672E1,1.178370246E1
5.122895833E-2,-1.487157440E0,3.370840302E0,7.881859589E0,8.700454710E0
6.116195834E-2,-2.106719055E0,2.786605225E0,6.343209229E0,7.241528649E0
7.109495834E-2,-2.577639771E0,3.114423523E0,6.011648712E0,7.244569063E0
8.102795834E-2,-2.367626495E0,3.374582520E0,6.362070007E0,7.580857285E0
9.096195833E-2,-1.532812500E0,3.012335815E0,7.122788086E0,7.884021267E0
1.008949583E-1,-4.948709106E-1,2.265538788E0,7.395820313E0,7.750852941E0
1.108279583E-1,5.192701721E-1,1.337768097E0,6.092480621E0,6.259200038E0
1.207619583E-1,-1.484912109E-1,1.455423431E0,5.323080597E0,5.520461398E0
1.306949583E-1,-8.021818542E-1,1.984273682E0,4.966222687E0,5.407791189E0
1.406279583E-1,-7.255412292E-1,2.296075287E0,4.499942322E0,5.103709700E0
1.505609583E-1,-3.329077148E-1,2.347568207E0,4.094285889E0,4.731287454E0
1.604949583E-1,1.672023010E-1,2.184706879E0,3.821403351E0,4.404999923E0
1.704279583E-1,8.173004150E-1,1.913470917E0,3.790268097E0,4.323827374E0
1.803609583E-1,1.063538361E0,1.699715424E0,4.150119781E0,4.609082400E0
1.902939583E-1,8.381071472E-1,1.537901917E0,4.532574463E0,4.859197172E0
2.002279583E-1,3.703298950E-1,1.515598297E0,4.319118347E0,4.592272392E0
2.101609583E-1,-1.296304321E-1,1.398691406E0,3.693868561E0,3.951937075E0
2.200939583E-1,1.137634277E-2,1.338217163E0,3.171005859E0,3.441835667E0
2.300269583E-1,1.137484589E0,1.259331207E0,3.285068665E0,3.697494072E0
2.399609583E-1,1.574276276E0,8.770262146E-1,5.246589661E0,5.547452013E0
2.498939583E-1,1.210233307E0,9.163943481E-1,6.621181183E0,6.792973098E0
2.598269583E-1,1.201701050E0,7.075785828E-1,5.943540344E0,6.104950834E0
2.697609583E-1,1.043330383E-1,5.269042969E-1,7.132368164E0,7.152565215E0
2.796939583E-1,-1.899549866E-1,7.358697510E-1,6.530320129E0,6.574394891E0
2.896269583E-1,-2.441123657E0,1.306034088E0,5.951473846E0,6.563905141E0
2.995599583E-1,-3.928730164E0,1.703906708E0,5.451962585E0,6.932684531E0
3.094939583E-1,-2.638263702E0,1.419198761E0,4.362079010E0,5.291719359E0
3.194269583E-1,-1.296004944E0,2.593207397E0,4.574936371E0,5.416123726E0
3.293599583E-1,-3.629951477E-1,3.835474091E0,5.360802155E0,6.601577593E0
3.392929583E-1,6.911128235E-1,3.758833466E0,5.076842651E0,6.354588678E0
3.492269583E-1,1.179846497E0,3.114423523E0,4.916526031E0,5.938341507E0
3.591599583E-1,1.471589813E0,2.125280457E0,4.237687683E0,4.963908792E0
3.690929583E-1,1.604513397E0,-9.984237671E-2,4.862638092E0,5.121492063E0
3.790259583E-1,1.644180908E0,-2.463576965E0,5.854026489E0,6.560653051E0
3.889599583E-1,4.529431000E0,-3.307372284E0,3.788172455E0,6.767917490E0
3.988929583E-1,6.305038605E0,-3.334166565E0,1.296903076E0,7.249285212E0
4.088259583E-1,8.201894073E0,-3.427572327E0,2.520758057E-1,8.892854472E0
4.187599583E-1,1.191851532E1,-4.272864532E0,-7.065307617E-2,1.266149164E1
4.286929583E-1,1.508518021E1,-5.505251770E0,1.032852173E-2,1.605834878E1
4.386259583E-1,1.706750793E1,-7.236252136E0,1.344653778E0,1.858685734E1
4.485589583E-1,1.836216568E1,-8.752598877E0,4.059857483E0,2.074269892E1
4.584929583E-1,1.875509857E1,-9.024283905E0,4.986730042E0,2.140231060E1
4.684259583E-1,1.824211533E1,-8.947942657E0,5.118156738E0,2.095318538E1
4.783589583E-1,1.751732254E1,-8.906778259E0,6.015989685E0,2.055187144E1
4.882919583E-1,1.676708267E1,-8.466693420E0,7.267088013E0,2.014027127E1
4.982259583E-1,1.620066055E1,-7.544161835E0,8.723858643E0,1.988671641E1
5.081589583E-1,1.640483597E1,-6.165229340E0,1.005848328E1,2.020647871E1
5.180919583E-1,1.649584671E1,-4.112248535E0,1.019455032E1,1.982302709E1
5.280249583E-1,1.631068176E1,-2.107916565E0,9.252259827E0,1.887024016E1
5.379589583E-1,1.593616058E1,-7.774832153E-1,7.528145142E0,1.764195748E1
5.478919583E-1,1.478834747E1,-1.011895752E-1,5.138514404E0,1.565598258E1
5.578249583E-1,1.307396255E1,3.592529297E-3,2.879412231E0,1.338728967E1
5.677579583E-1,1.127305756E1,-1.669029236E-1,1.175655212E0,1.133542449E1
5.776919583E-1,9.668095093E0,-3.420387268E-1,-4.864883423E-2,9.674265860E0
5.876249583E-1,8.617579651E0,-3.424877930E-1,-8.532257080E-1,8.666485507E0
5.975579583E-1,8.042026520E0,-1.827699280E-1,-1.262624359E0,8.142592687E0
6.074919583E-1,7.576943665E0,2.290237427E-1,-1.516047363E0,7.730519179E0
6.174249583E-1,7.413932648E0,7.011419678E-1,-1.577270050E0,7.612212436E0
6.273579583E-1,7.442373505E0,1.075363770E0,-1.320703583E0,7.634761854E0
6.372909583E-1,7.507937164E0,1.448537750E0,-7.105723572E-1,7.679342104E0
6.472249583E-1,7.453749847E0,1.820364532E0,-2.424957275E-2,7.672854870E0
6.571579583E-1,7.078480225E0,2.230361938E0,5.209167480E-1,7.439808527E0
6.670909167E-1,6.549330597E0,2.324216766E0,8.138575745E-1,6.997005002E0
6.770239167E-1,6.046675873E0,1.948647766E0,7.557783508E-1,6.397711946E0
6.869579167E-1,5.911506958E0,1.142574005E0,4.269122314E-1,6.036028821E0
6.968909167E-1,6.083798676E0,-2.005828857E-2,1.444496155E-1,6.085546348E0
7.068239167E-1,6.633156281E0,-1.166374512E0,2.872526550E-1,6.741046345E0
7.167569167E-1,8.083789673E0,-2.958747253E0,7.521858215E-1,8.641043010E0
7.266909167E-1,1.010922775E1,-5.980363770E0,1.506317596E0,1.184188453E1
7.366239167E-1,1.206401276E1,-1.010428802E1,2.838846588E0,1.599050000E1
7.465569167E-1,1.377106293E1,-1.555415497E1,4.819677429E0,2.132611548E1
7.564909167E-1,1.560025909E1,-2.161295563E1,7.008575592E0,2.756098813E1
7.664239167E-1,1.476424759E1,-2.345592316E1,8.238567810E0,2.891431026E1
7.763569167E-1,1.370295456E1,-2.148377426E1,8.837173004E0,2.697070905E1
7.862899167E-1,1.768078262E1,-2.107183090E1,7.757318573E0,2.857985520E1
7.962239167E-1,2.175441147E1,-2.147239792E1,3.824097748E0,3.080490244E1
8.061569167E-1,2.274190796E1,-2.063399139E1,2.282752991E-1,3.070843676E1
8.160899167E-1,2.215842133E1,-2.005649231E1,-1.520987091E0,2.992610768E1
8.260229167E-1,2.097228790E1,-2.002101608E1,-1.093476105E0,2.901505876E1
8.359569167E-1,1.974424164E1,-1.898876266E1,1.605710907E0,2.744059935E1
8.458899167E-1,1.907573181E1,-1.755953476E1,4.010460205E0,2.623555976E1
8.558229167E-1,1.743110184E1,-1.613105530E1,5.652695160E0,2.441325908E1
8.657559167E-1,1.481768646E1,-1.361074631E1,7.604935455E0,2.150933031E1
8.756899167E-1,1.208556793E1,-1.004096970E1,8.540789337E0,1.788371067E1
8.856229167E-1,9.457782440E0,-6.513704681E0,7.769293671E0,1.386506118E1
8.955559167E-1,6.757846985E0,-3.701802063E0,5.647755432E0,9.553479775E0
9.054889167E-1,4.226910095E0,-1.761087799E0,3.121608582E0,5.541898531E0
9.154229167E-1,2.602338409E0,-1.258882141E-1,8.592132568E-2,2.606797943E0
9.253559167E-1,4.915777588E-1,4.273612976E-1,-1.967059479E0,2.072102643E0
9.352889167E-1,-2.479144592E0,1.603166199E-1,-1.524130554E0,2.914589727E0
9.452229167E-1,-2.806813202E0,5.318440247E-1,-1.653461609E0,3.300756536E0
9.551559167E-1,-1.853296051E0,3.610491943E-1,-2.267335052E0,2.950571303E0
9.650889167E-1,-1.121318207E0,3.562591553E-1,-3.442391510E0,3.637902475E0
9.750219167E-1,-6.721023560E-1,5.450166321E-1,-4.992418213E0,5.066853493E0
9.849559167E-1,-1.649569702E-1,7.761360168E-1,-6.399043121E0,6.448050154E0
9.948889167E-1,6.571334839E-1,1.355581055E0,-5.926775208E0,6.115234155E0
1.004821917E0,1.067579956E0,1.805844727E0,-3.854783936E0,4.388640032E0
1.014754917E0,1.105301514E0,1.888772278E0,-2.245630188E0,3.135603147E0
1.024688917E0,1.375938721E0,1.779050446E0,-1.790426788E0,2.874692320E0
1.034621917E0,2.047891388E0,1.617386627E0,-2.210752716E0,3.420120789E0
1.044554917E0,2.528990936E0,1.523980865E0,-2.437680817E0,3.828916374E0
1.054487917E0,2.581531677E0,1.578766937E0,-2.189646606E0,3.735152354E0
1.064421917E0,2.790796509E0,1.650767212E0,-1.485211487E0,3.566431088E0
1.074354917E0,3.038830719E0,1.710343323E0,-7.488926697E-1,3.566595947E0
1.084287917E0,3.043920135E0,1.661544800E0,-2.396516418E-1,3.476149281E0
1.094221917E0,3.176544342E0,1.287921753E0,2.731819153E-1,3.438575978E0
1.104154917E0,3.318748627E0,5.987548828E-1,7.189549255E-1,3.448114853E0
1.114087917E0,3.697910156E0,-2.776725769E-1,1.036444702E0,3.850436236E0
1.124020917E0,4.229155426E0,-1.478625183E0,1.197659454E0,4.637507544E0
1.133954917E0,4.979994049E0,-3.223247223E0,1.200503540E0,6.052344351E0
1.143887917E0,6.497837677E0,-5.621260529E0,9.217831421E-1,8.641189071E0
1.153820917E0,8.557404785E0,-8.675808563E0,6.499484253E-1,1.220333003E1
1.163753917E0,1.052626053E1,-1.232746490E1,8.532257080E-1,1.623257668E1
1.173687917E0,1.221579712E1,-1.607941269E1,1.450034637E0,2.024538990E1
1.183620917E0,1.365086288E1,-1.919608154E1,2.008523254E0,2.364042660E1
1.193553917E0,1.441382629E1,-2.146266815E1,2.587968292E0,2.598272681E1
1.203486917E0,1.543769714E1,-2.337075027E1,3.291954346E0,2.820197555E1
1.213420917E0,1.709205688E1,-2.498963379E1,4.364024963E0,3.058864036E1
1.223353917E0,1.908486282E1,-2.610316818E1,5.586981812E0,3.281496220E1
1.233286917E0,2.111658783E1,-2.641332321E1,6.793622589E0,3.449242283E1
1.243219917E0,2.273277695E1,-2.591306351E1,7.705526276E0,3.532196403E1
1.253153917E0,2.301119797E1,-2.468995697E1,7.925269318E0,3.466870492E1
1.263086917E0,2.185979233E1,-2.240001892E1,7.741601257E0,3.224195649E1
1.273019917E0,1.981504440E1,-1.931777847E1,7.303612061E0,2.862088921E1
1.282952917E0,1.745729736E1,-1.581625992E1,6.572682037E0,2.445631735E1
1.292886917E0,1.516705994E1,-1.219020035E1,5.533842316E0,2.023027687E1
1.302819917E0,1.305644897E1,-8.846004639E0,4.226910095E0,1.632756647E1
1.312752917E0,1.087039490E1,-5.768105164E0,2.487377472E0,1.255482254E1
1.322686917E0,8.456514587E0,-3.251688080E0,3.948788452E-1,9.068739915E0
1.332619917E0,6.273454285E0,-1.269959106E0,-1.481169891E0,6.569846957E0
1.342552917E0,4.401447144E0,2.484832764E-1,-2.683769073E0,5.161113963E0
1.352485917E0,2.753074951E0,1.221909027E0,-3.333118744E0,4.492456335E0
1.362419917E0,1.560355225E0,1.670825500E0,-3.883374481E0,4.506324849E0
1.372352917E0,1.138682098E0,1.903441772E0,-4.026925964E0,4.597371012E0
1.382285917E0,1.334924011E0,2.056723022E0,-3.526965637E0,4.295534695E0
1.392218917E0,1.525328064E0,1.841770020E0,-2.780617676E0,3.667502852E0
1.402152917E0,1.310075684E0,1.280137939E0,-1.910477142E0,2.646691208E0
1.412085917E0,9.988728333E-1,7.999365234E-1,-2.362986145E0,2.687256761E0
1.422018917E0,6.436614990E-2,4.053570557E-1,-4.902604980E0,4.919755374E0
1.431951917E0,-3.842509460E-1,3.466790771E-1,-6.787036285E0,6.806739066E0
1.441885917E0,4.296066284E-2,5.303471375E-1,-6.195017395E0,6.217825523E0
1.451818917E0,1.067579956E0,6.753955078E-1,-4.053271179E0,4.245573378E0
1.461751917E0,1.758692780E0,1.125060425E0,-2.558329926E0,3.302092255E0
1.471685917E0,1.908830566E0,1.486558685E0,-2.226769409E0,3.288159494E0
1.481618917E0,2.241139526E0,1.576820984E0,-2.445764008E0,3.672986846E0
1.491551917E0,2.711461487E0,1.655557251E0,-2.798580322E0,4.233786134E0
1.501484917E0,2.747386780E0,1.838925934E0,-2.294877777E0,4.024456077E0
1.511418917E0,2.796784058E0,2.074086914E0,-1.245559845E0,3.698007155E0
1.521351917E0,2.855162659E0,2.014061737E0,-5.525010681E-1,3.537464617E0
1.531284917E0,3.064427490E0,1.588197327E0,-2.186952209E-1,3.458455463E0
1.541217917E0,3.244652710E0,1.076710968E0,-4.790039062E-3,3.418640177E0
1.551151917E0,3.337459717E0,5.956114197E-1,3.224295044E-1,3.405488381E0
1.561084917E0,3.473826141E0,-3.966751099E-2,7.018904114E-1,3.544247695E0
1.571017917E0,3.848646698E0,-8.104147339E-1,1.127455444E0,4.091455637E0
1.580950917E0,4.540957031E0,-1.833387451E0,1.577419739E0,5.144886135E0
1.590884917E0,5.759572906E0,-3.075504456E0,1.960622864E0,6.817290498E0
1.600817917E0,7.442672882E0,-4.762496338E0,2.186203766E0,9.102430330E0
1.610750917E0,9.385033722E0,-6.929539948E0,2.507735138E0,1.193256541E1
1.620684917E0,1.111872849E1,-9.329349518E0,3.020568695E0,1.482520559E1
1.630617917E0,1.260543686E1,-1.184456909E1,3.342549133E0,1.761713626E1
1.640550917E0,1.380309631E1,-1.393646896E1,3.536246338E0,1.993127375E1
1.650483917E0,1.486783218E1,-1.564815948E1,3.848646698E0,2.192554242E1
1.660417917E0,1.618509293E1,-1.739412872E1,4.137246552E0,2.411700139E1
1.670351792E0,1.754995468E1,-1.911330368E1,4.405488739E0,2.631971918E1
1.680284792E0,1.924443100E1,-2.097977234E1,4.845124512E0,2.887861152E1
1.690217792E0,2.072395432E1,-2.262934204E1,5.527256012E0,3.117883838E1
1.700151792E0,2.161909286E1,-2.373599075E1,6.564748535E0,3.277008326E1
1.710084792E0,2.162133820E1,-2.396681076E1,7.568411407E0,3.315374993E1
1.720017792E0,2.059941330E1,-2.260224838E1,8.137677612E0,3.164520907E1
1.729950792E0,1.936298447E1,-1.975681549E1,8.640332336E0,2.898123994E1
1.739884792E0,1.823358307E1,-1.618988297E1,9.076674957E0,2.601849131E1
1.749817792E0,1.715193237E1,-1.227028381E1,9.435029755E0,2.310342908E1
1.759750792E0,1.593556183E1,-8.294701080E0,9.659263458E0,2.039719509E1
1.769683792E0,1.458566895E1,-4.700525208E0,9.493857422E0,1.802692443E1
1.779617792E0,1.278491364E1,-2.011816406E0,8.517437897E0,1.549348799E1
1.789550792E0,1.049168243E1,-1.939965820E-1,6.502777405E0,1.234500502E1
1.799483792E0,7.802973633E0,6.890171814E-1,3.806284790E0,8.709130042E0
1.809417792E0,5.065166931E0,6.532415771E-1,8.092172241E-1,5.170829055E0
1.819350792E0,2.721191254E0,3.695814514E-1,-1.745520172E0,3.253968801E0
1.829283792E0,9.126521301E-1,4.076023865E-1,-3.496878204E0,3.636926009E0
1.839216792E0,-1.823208618E-1,6.806346130E-1,-4.456233215E0,4.511598258E0
1.849150792E0,-5.587879944E-1,8.894503784E-1,-4.707560577E0,4.823327958E0
1.859083792E0,-5.216651917E-1,9.017248535E-1,-4.534670105E0,4.652792199E0
1.869016792E0,-1.604663086E-1,8.788224792E-1,-3.969744873E0,4.069023561E0
1.878949792E0,3.291654968E-1,1.044976959E0,-3.178639984E0,3.362153911E0
1.888883792E0,9.205856323E-1,1.277443542E0,-2.340682526E0,2.821016589E0
1.898816792E0,1.539249115E0,1.386716309E0,-1.518741760E0,2.568822005E0
1.908749792E0,2.002386017E0,1.316362610E0,-8.607101440E-1,2.546209385E0
1.918683792E0,1.996548157E0,9.430389404E-1,-6.198609924E-1,2.293415496E0
1.928616792E0,1.698368225E0,2.948867798E-1,-9.003776550E-1,1.944760336E0
1.938549792E0,1.599723358E0,-1.336720276E-1,-1.480122070E0,2.183516516E0
1.948482792E0,1.899400177E0,-1.136137390E-1,-1.991608429E0,2.754475131E0
1.958416792E0,2.352507935E0,1.278341675E-1,-2.268233185E0,3.270400119E0
1.968349792E0,3.108885040E0,2.255809021E-1,-2.287992096E0,3.866647226E0
1.978282792E0,4.178710327E0,4.221221924E-2,-2.194885712E0,4.720267488E0
1.988215792E0,4.899012451E0,-3.767665100E-1,-2.117646332E0,5.350392695E0
1.998149792E0,5.360951843E0,-8.060737610E-1,-2.132764893E0,5.825654097E0
2.008082792E0,5.807772675E0,-9.443861389E-1,-2.141596527E0,6.261671047E0
2.018015792E0,6.405180359E0,-1.158590698E0,-2.148781586E0,6.854628374E0
2.027948792E0,7.199428711E0,-1.893262939E0,-2.257305908E0,7.778923337E0
2.037882792E0,8.387657776E0,-3.198997650E0,-2.178719330E0,9.237597461E0
2.047815792E0,9.677675171E0,-4.987777863E0,-1.549278259E0,1.099707178E1
2.057748792E0,1.107606720E1,-6.931186523E0,-4.818479919E-1,1.307489154E1
2.067682792E0,1.195833252E1,-8.867110748E0,5.568420410E-1,1.489756499E1
2.077615792E0,1.196207474E1,-1.015353561E1,1.563049622E0,1.576796251E1
2.087548792E0,1.198048645E1,-1.090886490E1,2.236050110E0,1.635650663E1
2.097481792E0,1.213062424E1,-1.172631500E1,2.484982452E0,1.705384548E1
2.107415792E0,1.254271729E1,-1.267564087E1,2.489173737E0,1.800521075E1
2.117348792E0,1.321122711E1,-1.374636429E1,2.411335602E0,1.921753346E1
2.127281792E0,1.376327911E1,-1.494791565E1,2.176324310E0,2.043537183E1
2.137214792E0,1.437370972E1,-1.638522675E1,1.959575043E0,2.188422082E1
2.147148792E0,1.480735794E1,-1.764246231E1,1.953288116E0,2.311557181E1
2.157081792E0,1.551538559E1,-1.853311020E1,2.325863342E0,2.428194811E1
2.167014792E0,1.572195602E1,-1.866244125E1,3.080444183E0,2.459584825E1
2.176947792E0,1.569426361E1,-1.794857574E1,4.298012238E0,2.422672472E1
2.186881792E0,1.583781509E1,-1.658371399E1,5.770649872E0,2.364648719E1
2.196814792E0,1.563887878E1,-1.461366074E1,7.034920807E0,2.253050644E1
2.206747792E0,1.530806671E1,-1.219693634E1,7.772287445E0,2.105969170E1
2.216680792E0,1.502276001E1,-9.530680847E0,8.031697998E0,1.951987112E1
2.226614792E0,1.431173859E1,-6.667285309E0,7.820337524E0,1.761920071E1
2.236547792E0,1.332558929E1,-3.838767242E0,7.351362762E0,1.569554072E1
2.246480792E0,1.238584351E1,-1.196611633E0,6.851851501E0,1.420524086E1
2.256414792E0,1.155971146E1,9.966275024E-1,6.361920319E0,1.323231746E1
2.266347792E0,1.079944244E1,2.418071594E0,5.963149567E0,1.257116463E1
2.276280792E0,9.890382843E0,3.173700256E0,5.557642822E0,1.178046857E1
2.286213792E0,8.817713470E0,3.048261108E0,4.823719025E0,1.050296300E1
2.296147792E0,7.581134949E0,2.141147461E0,3.567680969E0,8.647916920E0
2.306080792E0,6.420448608E0,1.062340851E0,1.943258972E0,6.791684905E0
2.316013792E0,5.360353088E0,3.866459656E-1,5.313949585E-2,5.374542226E0
2.325946792E0,4.271217957E0,2.863545227E-1,-1.711241455E0,4.610168008E0
2.335880792E0,3.441343689E0,5.559439087E-1,-3.062182159E0,4.639922369E0
2.345813792E0,2.974763947E0,8.458909607E-1,-3.924089813E0,4.996321939E0
2.355746792E0,2.689906311E0,9.976753235E-1,-4.246070251E0,5.124457493E0
2.365679792E0,2.480342102E0,9.752220154E-1,-4.151466980E0,4.933338931E0
2.375613792E0,2.339784393E0,8.705895996E-1,-3.894301758E0,4.625808409E0
2.385546792E0,2.056423645E0,6.899153137E-1,-3.711831207E0,4.299133896E0
2.395479792E0,1.859882355E0,3.966751099E-1,-3.526965637E0,4.006993901E0
2.405413792E0,1.937121735E0,-5.388793945E-3,-3.277733917E0,3.807362510E0
2.415346792E0,1.857337646E0,-4.034111023E-1,-2.969075775E0,3.525316242E0
2.425279792E0,2.048340454E0,-6.283932495E-1,-2.583327942E0,3.356212143E0
2.435212792E0,2.396217041E0,-8.663983154E-1,-2.394420776E0,3.496534428E0
2.445146792E0,2.767445068E0,-1.166224823E0,-2.443818054E0,3.871831508E0
2.455079792E0,3.421884155E0,-1.716929626E0,-2.579286346E0,4.616260020E0
2.465012792E0,3.956721954E0,-2.585722961E0,-2.716401215E0,5.451646303E0
2.474945792E0,4.876259766E0,-3.511547699E0,-2.832709351E0,6.643276210E0
2.484879792E0,6.776857452E0,-4.971312103E0,-2.779719543E0,8.852490141E0
2.494812792E0,8.544232178E0,-6.512207794E0,-2.349364471E0,1.099692081E1
2.504745792E0,9.640851746E0,-7.672145691E0,-1.519041138E0,1.241431947E1
2.514678792E0,1.056368271E1,-8.591533813E0,-6.764433289E-1,1.363317356E1
2.524612792E0,1.169308411E1,-9.204958191E0,-9.759704590E-2,1.488183444E1
2.534545792E0,1.311752197E1,-9.979896698E0,3.730242920E-1,1.648656629E1
2.544478792E0,1.425021652E1,-1.095257401E1,1.035696259E0,1.800278353E1
2.554411792E0,1.557361450E1,-1.240200989E1,1.872306519E0,1.999632090E1
2.564345792E0,1.765862869E1,-1.503653137E1,2.899470520E0,2.337373253E1
2.574278792E0,1.956970459E1,-1.766207153E1,4.009861450E0,2.666460383E1
2.584211792E0,1.970113129E1,-1.887529861E1,4.724475403E0,2.768992849E1
2.594145792E0,1.834719681E1,-1.838506805E1,4.627926178E0,2.638272273E1
2.604078792E0,1.697514999E1,-1.724518845E1,4.113446045E0,2.454531891E1
2.614011792E0,1.555071213E1,-1.620455246E1,4.320016479E0,2.287082662E1
2.623944792E0,1.406355469E1,-1.511781235E1,4.964127045E0,2.123615733E1
2.633878792E0,1.272803192E1,-1.354159012E1,5.888903961E0,1.949504166E1
2.643811792E0,1.118773499E1,-1.116588043E1,6.966962128E0,1.727370433E1
2.653744792E0,9.683213654E0,-8.188422089E0,7.591762848E0,1.478004554E1
2.663677458E0,8.375532990E0,-5.220394135E0,7.189848633E0,1.221048693E1
2.673611458E0,7.084916840E0,-2.556084595E0,5.914051666E0,9.576305247E0
2.683544458E0,6.103707275E0,-2.975811768E-1,4.221371613E0,7.427232011E0
2.693477458E0,5.540129242E0,1.313967590E0,2.534379730E0,6.232385054E0
2.703410458E0,5.040168915E0,2.158511353E0,9.536668396E-1,5.565245223E0
2.713344458E0,4.606520691E0,2.331701202E0,-5.062472534E-1,5.187788513E0
2.723277458E0,4.247567139E0,2.238744507E0,-1.763632507E0,5.115095618E0
2.733210458E0,3.759581909E0,2.066003723E0,-2.468666382E0,4.949458680E0
2.743144458E0,3.171903992E0,1.672172699E0,-2.818788300E0,4.560998130E0
2.753077458E0,2.727478180E0,1.176403656E0,-2.982847137E0,4.209565278E0
2.763010458E0,2.845582581E0,8.168513489E-1,-2.682721252E0,3.995194572E0
2.772943458E0,3.351530457E0,6.469546509E-1,-1.874551849E0,3.894258769E0
2.782877458E0,3.874243469E0,6.710545349E-1,-7.566764832E-1,4.004077415E0
2.792810458E0,4.107308807E0,6.164181519E-1,2.784210205E-1,4.162628405E0
2.802743458E0,3.992946625E0,3.881428528E-1,8.508306885E-1,4.100998718E0
2.812676458E0,3.809727631E0,6.122268677E-2,8.821156311E-1,3.910997421E0
2.822610458E0,3.523073730E0,-3.077600098E-1,3.685336304E-1,3.555640838E0
2.832543458E0,3.194956055E0,-6.201603699E-1,-3.454815674E-1,3.272873445E0
2.842476458E0,3.010240173E0,-8.619076538E-1,-8.717871094E-1,3.250298981E0
2.852409458E0,3.138373718E0,-1.011895752E0,-1.062041473E0,3.464282711E0
2.862343458E0,3.425626373E0,-1.039737854E0,-8.910969543E-1,3.689176688E0
2.872276458E0,3.928580475E0,-1.106049957E0,-6.098318481E-1,4.126619190E0
2.882209458E0,4.696483612E0,-1.271455994E0,-3.341052246E-1,4.877005737E0
2.892143458E0,5.614075470E0,-1.705702972E0,-8.696914673E-2,5.868119771E0
2.902076458E0,6.815327454E0,-2.462678833E0,3.667373657E-2,7.246710999E0
2.912009458E0,8.209079132E0,-3.713028717E0,3.817062378E-2,9.009829046E0
2.921942458E0,9.247619476E0,-5.243595886E0,3.981719971E-2,1.063086775E1
2.931876458E0,1.012374756E1,-6.983278198E0,-1.085243225E-1,1.229911446E1
2.941809458E0,1.103250778E1,-8.960217133E0,-1.372645569E-1,1.421339370E1
2.951742458E0,1.125195145E1,-1.107995911E1,-1.047821045E-2,1.579151718E1
2.961675458E0,1.111004654E1,-1.338097412E1,2.040257263E-1,1.739325240E1
2.971609458E0,1.111004654E1,-1.588481735E1,5.050497437E-1,1.939112250E1
2.981542458E0,1.114432526E1,-1.804467590E1,9.400451660E-1,2.122946063E1
2.991475458E0,1.216505264E1,-1.963317261E1,1.465153198E0,2.314296105E1
3.001408458E0,1.438179291E1,-2.070823700E1,1.776505737E0,2.527494846E1
3.011342458E0,1.715447708E1,-2.109802643E1,1.737137604E0,2.724739346E1
3.021275458E0,1.963990860E1,-2.064237396E1,1.906884613E0,2.855643223E1
3.031208458E0,2.085283630E1,-1.928649353E1,2.051483917E0,2.847838129E1
3.041141458E0,2.063818268E1,-1.747451157E1,1.916165314E0,2.711023475E1
3.051075458E0,1.928559540E1,-1.555744812E1,1.771416321E0,2.484162430E1
3.061008458E0,1.726150452E1,-1.344968124E1,1.928439789E0,2.196752930E1
3.070941458E0,1.507320511E1,-1.110780121E1,2.313289490E0,1.886626800E1
3.080875458E0,1.296079788E1,-8.692873077E0,2.464624786E0,1.579945250E1
3.090808458E0,1.102966370E1,-6.378086700E0,2.873724060E0,1.306107810E1
3.100741458E0,9.086255035E0,-4.038002930E0,3.326083374E0,1.048467114E1
3.110674458E0,7.222331085E0,-2.075284424E0,3.429518280E0,8.260173568E0
3.120608458E0,5.159021759E0,-6.222560120E-1,3.393143921E0,6.206136779E0
3.130541458E0,3.016676788E0,3.146456909E-1,3.142864380E0,4.367715337E0
3.140474458E0,1.161434784E0,6.719526672E-1,2.521955566E0,2.856695823E0
3.150407458E0,-3.023712158E-1,7.571255493E-1,1.551673279E0,1.752814141E0
3.160341458E0,-1.285526733E0,6.135740662E-1,4.417314148E-1,1.491368083E0
3.170274458E0,-1.461710358E0,3.805087280E-1,-1.561253357E-1,1.518472648E0
3.180207458E0,-1.251547394E0,3.635939026E-1,-4.508624268E-1,1.379075173E0
3.190140458E0,-8.915460205E-1,3.183879089E-1,-5.508544922E-1,1.095292581E0
3.200074458E0,-3.686833191E-1,-7.933502197E-3,-3.676354980E-1,5.207169957E-1
3.210007458E0,3.373983765E-1,-2.683918762E-1,-1.097218323E-1,4.448716041E-1
3.219940458E0,1.020877075E0,-1.472937012E-1,2.183958435E-1,1.054315978E0
3.229874458E0,1.485061798E0,1.356179810E-1,2.760260010E-1,1.516572166E0
3.239807458E0,1.970502319E0,3.432362366E-1,1.407073975E-2,2.000222110E0
3.249740458E0,2.338886261E0,4.634362793E-1,-3.044668579E-1,2.403718410E0
3.259673458E0,2.926713867E0,3.659889221E-1,-5.581892395E-1,3.001862285E0
3.269607458E0,3.617826691E0,2.082170105E-1,-8.791218567E-1,3.728924714E0
3.279540458E0,3.947441254E0,2.085163879E-1,-1.092877350E0,4.101237915E0
3.289473458E0,4.281247101E0,1.318757629E-1,-1.129700775E0,4.429750760E0
3.299406458E0,4.853806458E0,-3.531156921E-1,-9.629475403E-1,4.960987380E0
3.309340458E0,5.383704529E0,-9.542655945E-1,-4.676275635E-1,5.487583513E0
3.319273458E0,6.233038330E0,-1.697619781E0,3.450325012E-1,6.469291087E0
3.329206458E0,7.398365021E0,-2.799328766E0,1.283431091E0,8.013690903E0
3.339139458E0,8.584947510E0,-3.963607635E0,2.100581818E0,9.686276540E0
3.349073458E0,1.008692413E1,-5.269342346E0,2.696642303E0,1.169546437E1
3.359006458E0,1.204350540E1,-7.011719055E0,2.950813751E0,1.424491236E1
3.368939458E0,1.323966797E1,-9.110504608E0,3.411405945E0,1.642947938E1
3.378873458E0,1.354069199E1,-1.133233429E1,4.484973450E0,1.821776953E1
3.388806458E0,1.453133194E1,-1.367526215E1,3.551215210E0,2.026779544E1
3.398739458E0,1.463072525E1,-1.625844040E1,3.031196594E0,2.208128525E1
3.408672458E0,1.420501053E1,-1.884835464E1,3.193758545E0,2.381686148E1
3.418606458E0,1.401550461E1,-2.102003860E1,2.917882233E0,2.543207481E1
3.428539458E0,1.412238235E1,-2.260404465E1,2.471510468E0,2.676738466E1
3.438472458E0,1.480196915E1,-2.338871292E1,2.224973145E0,2.776833967E1
3.448405458E0,1.581566116E1,-2.298979248E1,2.408341827E0,2.800831674E1
3.458339458E0,1.641696075E1,-2.109533203E1,3.103795624E0,2.691028021E1
3.468272458E0,1.628867752E1,-1.819720871E1,3.804039459E0,2.471700096E1
3.478205458E0,1.537946823E1,-1.523187515E1,4.100572815E0,2.203072312E1
3.488138458E0,1.373813141E1,-1.232896179E1,4.435276794E0,1.898449983E1
3.498072458E0,1.155761581E1,-9.684111786E0,4.963977356E0,1.587455749E1
3.508005458E0,9.068442078E0,-7.460036774E0,5.464835815E0,1.295195819E1
3.517938458E0,6.524482269E0,-5.438939667E0,5.685327301E0,1.022124650E1
3.527871458E0,4.303101654E0,-3.410358124E0,5.585185547E0,7.832082991E0
3.537805458E0,2.406844940E0,-1.565893707E0,4.868625641E0,5.652295224E0
3.547738458E0,1.251248016E0,1.197509766E-1,3.913461914E0,4.110370549E0
3.557671458E0,6.301895142E-1,1.456171875E0,2.951861572E0,3.351277681E0
3.567605458E0,3.550616455E-1,2.197580109E0,1.791175232E0,2.857225195E0
3.577538458E0,6.001020813E-1,2.306852875E0,5.242098999E-1,2.440591878E0
3.587471458E0,1.105301514E0,2.062111816E0,-4.083508301E-1,2.375025680E0
3.597404458E0,1.772464142E0,1.546733551E0,-1.079405365E0,2.588267713E0
3.607338458E0,2.362686768E0,8.557704163E-1,-1.403631134E0,2.878334957E0
3.617271458E0,2.567011871E0,2.026785278E-1,-1.587897949E0,3.025235269E0
3.627204458E0,2.838098145E0,-1.618135071E-1,-1.327738953E0,3.137495086E0
3.637137458E0,2.917433167E0,-2.567161560E-1,-1.071771240E0,3.118655649E0
3.647071458E0,3.005300446E0,-5.074447632E-1,-8.577163696E-1,3.166229355E0
3.657004458E0,3.386557617E0,-7.860154724E-1,-6.224057007E-1,3.531852442E0
3.666936958E0,3.552263031E0,-6.529421997E-1,-3.531156921E-1,3.628993917E0
3.676869958E0,3.507057037E0,-1.947450256E-1,-4.670288086E-2,3.512770395E0
3.686803958E0,3.634142761E0,2.658471680E-1,2.466870117E-1,3.652194246E0
3.696736958E0,3.685036926E0,5.599855042E-1,2.636018372E-1,3.736651822E0
3.706669958E0,3.851790161E0,5.553451538E-1,6.526428223E-2,3.892165864E0
3.716603958E0,3.986210632E0,1.689985657E-1,-1.384620667E-1,3.992193315E0
3.726536958E0,3.886817322E0,-3.465293884E-1,-2.118095398E-1,3.907978351E0
3.736469958E0,4.071383514E0,-8.532257080E-1,-7.933502197E-2,4.160583117E0
3.746402958E0,4.528083801E0,-1.634600830E0,1.740879822E-1,4.817236699E0
3.756336958E0,5.365292816E0,-2.879112854E0,3.736230469E-1,6.100430477E0
3.766269958E0,6.658004608E0,-4.533622284E0,4.619393921E-1,8.068218166E0
3.776202958E0,7.906857605E0,-6.463109894E0,5.387297058E-1,1.022645669E1
3.786135958E0,9.028475189E0,-8.613538055E0,4.728666687E-1,1.248719364E1
3.796069958E0,9.773475952E0,-1.073851913E1,3.257226562E-1,1.452386728E1
3.806002958E0,1.016566040E1,-1.279718811E1,1.812730408E-1,1.634446496E1
3.815935958E0,1.118069962E1,-1.490989471E1,3.023712158E-1,1.863878839E1
3.825868958E0,1.266426453E1,-1.720297623E1,7.244934082E-1,2.137407022E1
3.835802958E0,1.445424225E1,-1.930610275E1,7.541317749E-1,2.412922372E1
3.845735958E0,1.662083679E1,-2.058923447E1,3.897894287E-1,2.646357359E1
3.855668958E0,1.868833740E1,-2.089250381E1,2.978805542E-1,2.803282724E1
3.865602958E0,2.085328537E1,-2.084116058E1,1.013242950E0,2.949983299E1
3.875535958E0,2.229942810E1,-2.041619431E1,2.189496918E0,3.031302328E1
3.885468958E0,2.267574554E1,-1.989003845E1,3.560645599E0,3.037237664E1
3.895401958E0,2.164543808E1,-1.921134979E1,5.192402344E0,2.940343505E1
3.905335958E0,1.977537689E1,-1.818194046E1,7.350464630E0,2.785099317E1
3.915268958E0,1.725042755E1,-1.570399338E1,9.109606476E0,2.504351391E1
3.925201958E0,1.409603714E1,-1.211939758E1,9.725725250E0,2.098017618E1
3.935134958E0,1.060305084E1,-8.163124695E0,9.032217407E0,1.614441833E1
3.945068958E0,7.611821136E0,-4.449946289E0,7.221133575E0,1.139678082E1
3.955001958E0,5.622607727E0,-1.994302826E0,4.270020447E0,7.336486627E0
3.964934958E0,3.785328369E0,-9.737251282E-1,6.354286194E-1,3.959876389E0
3.974867958E0,1.926793213E0,-2.378553772E-1,-2.685715027E0,3.313936099E0
3.984801958E0,7.517367554E-1,5.843847656E-1,-4.651876373E0,4.748322598E0
3.994734958E0,5.734574890E-1,1.187480621E0,-5.076543274E0,5.245021957E0
4.004667958E0,7.689509583E-1,1.403032379E0,-4.561763763E0,4.834198389E0
4.014600958E0,1.068478088E0,1.442550201E0,-3.818708954E0,4.219613085E0
4.024534958E0,1.527423706E0,1.339264984E0,-3.084336090E0,3.693207683E0
4.034467958E0,2.086211700E0,1.300345917E0,-2.412383423E0,3.444237585E0
4.044400958E0,2.266586609E0,1.169817352E0,-1.902393951E0,3.181978982E0
4.054334958E0,2.293380890E0,1.095422058E0,-1.444047089E0,2.923151961E0
4.064267958E0,1.907782745E0,1.323098602E0,-1.397044830E0,2.709604985E0
4.074200958E0,1.744172974E0,1.202599182E0,-1.489402771E0,2.589730636E0
4.084133958E0,1.863923950E0,9.767189026E-1,-1.694925385E0,2.702029675E0
4.094067958E0,1.856439514E0,9.032217407E-1,-1.951342163E0,2.840759303E0
4.104000958E0,1.439406738E0,8.294252014E-1,-2.013762360E0,2.610570199E0
4.113933958E0,1.109492798E0,7.990383911E-1,-1.862427063E0,2.310426624E0
4.123866958E0,1.044976959E0,7.077282715E-1,-1.577419739E0,2.020175533E0
4.133800958E0,1.198707275E0,5.284011841E-1,-1.293609924E0,1.841068597E0
4.143733958E0,1.591340790E0,1.077758789E-1,-1.134790192E0,1.957480505E0
4.153666958E0,1.908830566E0,-5.896238708E-1,-9.458830261E-1,2.210426461E0
4.163599958E0,2.633773041E0,-1.436562653E0,-6.264472961E-1,3.064785294E0
4.173533958E0,3.976480865E0,-2.820584564E0,-3.550616455E-1,4.888165927E0
4.183466958E0,5.703589325E0,-4.828658752E0,-3.143463135E-3,7.473077439E0
4.193399958E0,7.503446503E0,-7.045548706E0,4.752616882E-1,1.030375367E1
4.203333958E0,9.063053284E0,-9.193881226E0,1.022673340E0,1.295037635E1
4.213266958E0,1.044991928E1,-1.106064926E1,1.588646393E0,1.529910365E1
4.223199958E0,1.152154083E1,-1.253074219E1,1.811532898E0,1.711861719E1
4.233132958E0,1.239257950E1,-1.381342484E1,1.561253357E0,1.862321788E1
4.243066958E0,1.311557602E1,-1.535881119E1,1.400637360E0,2.024532540E1
4.252999958E0,1.371971970E1,-1.734323456E1,1.486858063E0,2.216369194E1
4.262932958E0,1.430799637E1,-1.919892563E1,1.969604187E0,2.402492135E1
4.272865958E0,1.473550735E1,-2.041050613E1,2.674039307E0,2.531549770E1
4.282799958E0,1.514355881E1,-2.088846222E1,2.908002777E0,2.596366129E1
4.292732958E0,1.569381454E1,-2.068967560E1,2.451601868E0,2.608388090E1
4.302665958E0,1.615066452E1,-1.978016693E1,1.615889740E0,2.558730287E1
4.312598958E0,1.602312973E1,-1.854792938E1,8.403524780E-1,2.452493757E1
4.322532958E0,1.533650757E1,-1.689641373E1,6.673123169E-1,2.282854719E1
4.332465958E0,1.436293213E1,-1.482352432E1,9.394464111E-1,2.066187920E1
4.342398958E0,1.302501434E1,-1.255109985E1,1.365310822E0,1.813960253E1
4.352331958E0,1.160072617E1,-1.014036301E1,1.843117218E0,1.551776049E1
4.362265958E0,9.826316071E0,-7.717201996E0,2.248025208E0,1.269509005E1
4.372198958E0,7.705825653E0,-5.546416168E0,2.130369873E0,9.730414025E0
4.382131958E0,5.788313141E0,-3.741619263E0,1.671274567E0,7.092068979E0
4.392065958E0,4.087549896E0,-2.410287781E0,1.212179260E0,4.897645342E0
4.401998958E0,2.735411682E0,-1.365161133E0,1.007255402E0,3.218804970E0
4.411931958E0,1.635648651E0,-2.787203979E-1,9.854008484E-1,1.929778848E0
4.421864958E0,1.141526184E0,6.092330933E-1,7.987390137E-1,1.520602184E0
4.431798958E0,1.103804626E0,1.016985168E0,4.300556946E-1,1.561278766E0
4.441731958E0,9.280700684E-1,1.081051941E0,-1.354682922E-1,1.431201946E0
4.451664958E0,1.138981476E0,1.053509216E0,-9.136999512E-1,1.800557711E0
4.461597958E0,1.436113586E0,7.804769897E-1,-1.730102234E0,2.380088298E0
4.471531958E0,1.780846710E0,5.300477600E-1,-2.359842682E0,3.003535103E0
4.481464958E0,2.028581543E0,6.279441833E-1,-2.697241058E0,3.432865611E0
4.491397958E0,2.229014740E0,8.737330627E-1,-2.889890442E0,3.752783359E0
4.501330958E0,2.256707153E0,1.105151825E0,-2.991978149E0,3.907175576E0
4.511264958E0,2.405797119E0,1.158141632E0,-2.908601532E0,3.948305293E0
4.521197958E0,2.476899261E0,1.162781982E0,-2.703527985E0,3.846577109E0
4.531130958E0,2.492317200E0,1.266815643E0,-2.374811554E0,3.668268913E0
4.541064958E0,2.641257477E0,1.325493622E0,-1.929637299E0,3.529401437E0
4.550997958E0,2.850522308E0,1.335073700E0,-1.381926270E0,3.437676458E0
4.560930958E0,3.030597839E0,1.356179810E0,-9.036708069E-1,3.440983561E0
4.570863958E0,3.206631775E0,1.289119263E0,-5.816903687E-1,3.504665390E0
4.580797958E0,3.599564667E0,8.102650452E-1,-4.549040222E-1,3.717570834E0
4.590730958E0,4.087998962E0,-4.427792358E-1,-4.159849548E-1,4.132896376E0
4.600663958E0,4.855303345E0,-1.918410645E0,-3.953279114E-1,5.235508966E0
4.610596958E0,6.411467285E0,-3.934867401E0,-7.026388550E-1,7.555381895E0
4.620530958E0,8.395890656E0,-7.288194122E0,-1.219514008E0,1.118463088E1
4.630463958E0,9.875264282E0,-1.094299393E1,-1.045276337E0,1.477709590E1
4.640396958E0,1.125255020E1,-1.396835266E1,-4.454736328E-1,1.794249729E1
4.650329958E0,1.316287766E1,-1.664463730E1,9.116043091E-2,2.122059399E1
4.660263958E0,1.497845215E1,-1.889206375E1,6.331832886E-1,2.411773253E1
4.670197292E0,1.656979294E1,-2.047187851E1,8.387059021E-1,2.635069781E1
4.680130292E0,1.804078400E1,-2.169902664E1,5.025050354E-1,2.822357447E1
4.690063292E0,2.059776672E1,-2.318798035E1,8.003855896E-1,3.102565138E1
4.699997292E0,2.253713379E1,-2.327075821E1,6.530918884E-1,3.240180730E1
4.709930292E0,2.342089600E1,-2.224883331E1,5.270539856E-1,3.230830758E1
4.719863292E0,2.326462097E1,-2.088352249E1,2.785707092E-1,3.126406407E1
4.729797292E0,2.191323120E1,-1.898801422E1,4.116439819E-2,2.899544930E1
4.739730292E0,1.972837463E1,-1.675316162E1,9.759704590E-2,2.588216983E1
4.749663292E0,1.685869217E1,-1.412866928E1,6.574328613E-1,2.200606769E1
4.759596292E0,1.408061920E1,-1.073387878E1,1.564396820E0,1.777434466E1
4.769530292E0,1.210023743E1,-7.128176880E0,2.471660156E0,1.425958468E1
4.779463292E0,1.034783157E1,-3.533551941E0,3.201841736E0,1.139365605E1
4.789396292E0,8.308921509E0,-2.116598511E-1,3.011287994E0,8.840295918E0
4.799329292E0,6.268364868E0,1.927391968E0,1.297950897E0,6.685201153E0
4.809263292E0,4.598587189E0,2.761158142E0,-1.150956573E0,5.485954744E0
4.819196292E0,2.794688416E0,2.799328766E0,-3.438200226E0,5.240968009E0
4.829129292E0,6.689588928E-1,2.494113464E0,-5.047054596E0,5.669291672E0
4.839062292E0,-1.024319916E0,2.332599335E0,-5.895490265E0,6.422387127E0
4.848996292E0,-1.820963287E0,2.299218750E0,-5.888005829E0,6.578064061E0
4.858929292E0,-1.651365967E0,2.286495209E0,-5.046605530E0,5.781288547E0
4.868862292E0,-1.117875366E0,2.135758667E0,-3.951482849E0,4.628750061E0
4.878796292E0,-6.224057007E-1,1.879192200E0,-2.742746429E0,3.382515359E0
4.888729292E0,-2.180964661E-1,1.576222229E0,-1.567989349E0,2.233972512E0
4.898662292E0,1.868115234E-1,1.230740662E0,-5.092410278E-1,1.344971206E0
4.908595292E0,4.981640625E-1,8.634045410E-1,4.936734009E-1,1.112361570E0
4.918529292E0,7.093748474E-1,4.864883423E-1,1.347946930E0,1.599013604E0
4.928462292E0,7.752378845E-1,2.097138977E-1,1.975591736E0,2.132589131E0
4.938395292E0,9.919871521E-1,8.262817383E-2,2.456391907E0,2.650420179E0
4.948328292E0,1.308129730E0,1.302291870E-2,2.670596466E0,2.973795298E0
4.958262292E0,1.661544800E0,-3.338058472E-2,2.655028839E0,3.132255341E0
4.968195292E0,1.938319244E0,6.556365967E-2,2.462678833E0,3.134671772E0
4.978128292E0,2.237247620E0,2.279759216E-1,2.153871002E0,3.113905944E0
4.988061292E0,2.693648529E0,1.359173584E-1,1.753453674E0,3.216957524E0
4.997995292E0,3.065325623E0,-1.136137390E-1,1.274150391E0,3.321534054E0
5.007928292E0,3.578608246E0,-5.484594727E-1,8.208929443E-1,3.712291745E0
5.017861292E0,4.441114655E0,-1.543440399E0,5.824388123E-1,4.737609377E0
5.027794292E0,5.874833221E0,-3.103496246E0,4.270619202E-1,6.657907796E0
5.037728292E0,7.725883942E0,-5.595813446E0,1.592687988E-1,9.540847832E0
5.047661292E0,9.298813019E0,-8.758436737E0,-1.356179810E-1,1.277483972E1
5.057594292E0,1.107262436E1,-1.172032745E1,-4.261637878E-1,1.612918787E1
5.067527292E0,1.331451233E1,-1.422042847E1,-8.195457458E-1,1.949790962E1
5.077461292E0,1.560714478E1,-1.623868149E1,-1.284927979E0,2.255945000E1
5.087394292E0,1.720582031E1,-1.779619263E1,-1.623074799E0,2.480683568E1
5.097327292E0,1.848491043E1,-1.936732544E1,-1.211430817E0,2.680023830E1
5.107261292E0,1.981833755E1,-2.117945709E1,1.130149841E-1,2.900601108E1
5.117194292E0,2.078442856E1,-2.242831009E1,1.574875031E0,3.061865110E1
5.127127292E0,2.154559570E1,-2.271556274E1,2.822380829E0,3.143525598E1
5.137060292E0,2.223835510E1,-2.229658401E1,3.606450348E0,3.169682288E1
5.146994292E0,2.208028381E1,-2.114547775E1,3.848796387E0,3.081368846E1
5.156927292E0,2.070644073E1,-1.922976151E1,3.696862335E0,2.849924923E1
5.166860292E0,1.854598343E1,-1.673953995E1,3.464994507E0,2.522244806E1
5.176793292E0,1.617820724E1,-1.358514954E1,3.556753693E0,2.142291237E1
5.186727292E0,1.409858185E1,-9.955048370E0,3.825594635E0,1.767790068E1
5.196660292E0,1.236818024E1,-6.480623474E0,3.688779144E0,1.444221086E1
5.206593292E0,1.068493057E1,-3.518134003E0,3.085234222E0,1.166463366E1
5.216526292E0,8.703051910E0,-1.169667664E0,1.898502045E0,8.984183046E0
5.226460292E0,6.479575653E0,3.728746033E-1,2.722837830E-1,6.496004508E0
5.236393292E0,4.381239166E0,1.190175018E0,-1.530417480E0,4.791028164E0
5.246326292E0,2.579885101E0,1.576521606E0,-3.021766205E0,4.274610919E0
5.256259292E0,1.127305756E0,1.738185425E0,-3.893703003E0,4.410558912E0
5.266193292E0,2.243833923E-1,1.664388885E0,-4.439617767E0,4.746656106E0
5.276126292E0,-3.302133179E-1,1.481469269E0,-4.870571594E0,5.101593838E0
5.286059292E0,-4.722679138E-1,1.390757904E0,-4.969815216E0,5.182307190E0
5.295993292E0,-3.183879089E-1,1.404529266E0,-4.549938354E0,4.772422063E0
5.305926292E0,-3.854484558E-1,1.557810516E0,-3.827241211E0,4.150074626E0
5.315859292E0,-3.689826965E-1,1.596280518E0,-3.070415039E0,3.480187959E0
5.325792292E0,-1.833686829E-1,1.606908417E0,-2.280208282E0,2.795555141E0
5.335726292E0,4.640350342E-3,1.641336823E0,-1.560953979E0,2.265079562E0
5.345659292E0,3.451821899E-1,1.563348999E0,-9.427395630E-1,1.857947448E0
5.355592292E0,4.677772522E-1,1.449735260E0,-5.234614563E-1,1.610763725E0
5.365525292E0,7.391629028E-1,1.470991058E0,-2.562670898E-1,1.666088026E0
5.375459292E0,1.349144440E0,1.512903900E0,3.233276367E-2,2.027341692E0
5.385392292E0,1.910626831E0,1.517843628E0,3.644920349E-1,2.467224880E0
5.395325292E0,2.332749023E0,1.434916077E0,6.186634827E-1,2.807747613E0
5.405258292E0,2.675985260E0,1.228944397E0,7.906558228E-1,3.048989681E0
5.415192292E0,2.949765930E0,6.872209167E-1,8.653504944E-1,3.149956049E0
5.425125292E0,3.005001068E0,-1.046324158E-1,9.035211182E-1,3.139638478E0
5.435058292E0,3.460803223E0,-1.070424042E0,8.632548523E-1,3.723999935E0
5.444992292E0,4.421056366E0,-2.464924164E0,8.810678101E-1,5.137885850E0
5.454925292E0,5.807473297E0,-4.318818970E0,9.824070740E-1,7.303702284E0
5.464858292E0,7.515870667E0,-6.492149506E0,1.017434235E0,9.983560963E0
5.474791292E0,9.060807953E0,-8.776100006E0,1.017284546E0,1.265515863E1
5.484725292E0,1.083970871E1,-1.137439682E1,8.050259399E-1,1.573290357E1
5.494658292E0,1.265947449E1,-1.419019135E1,4.719685364E-1,1.902226535E1
5.504591292E0,1.377405670E1,-1.652937698E1,1.787283325E-1,2.151689767E1
5.514524292E0,1.464329910E1,-1.864866989E1,2.739303589E-2,2.371075384E1
5.524458292E0,1.602447693E1,-2.085328537E1,2.947370911E-1,2.630076504E1
5.534391292E0,1.726120514E1,-2.245854721E1,9.469308472E-1,2.834135183E1
5.544324292E0,1.817251007E1,-2.356714188E1,1.631307678E0,2.980455440E1
5.554257292E0,1.914713333E1,-2.414314407E1,2.520758057E0,3.091695880E1
5.564191292E0,1.982327728E1,-2.391037811E1,3.391497345E0,3.124373150E1
5.574124292E0,1.969334747E1,-2.281615356E1,3.997586975E0,3.040370865E1
5.584057292E0,1.869941437E1,-2.068578369E1,4.403842163E0,2.823054322E1
5.593990292E0,1.702080505E1,-1.746687744E1,4.952151947E0,2.488620946E1
5.603924292E0,1.524310181E1,-1.372585693E1,5.482349396E0,2.123222683E1
5.613857292E0,1.357721603E1,-9.854906616E0,5.440436554E0,1.763684579E1
5.623790292E0,1.174861862E1,-6.256838837E0,5.021008759E0,1.422633476E1
5.633723292E0,9.808802490E0,-3.288511505E0,4.120182037E0,1.113565509E1
5.643657292E0,7.725584564E0,-1.271755371E0,2.574346619E0,8.241922051E0
5.653590292E0,5.687872009E0,-4.939727783E-2,9.379495239E-1,5.764900467E0
5.663523292E0,3.927382965E0,8.434959412E-1,-3.164419556E-1,4.029386786E0
5.673456958E0,2.364483032E0,1.180594940E0,-1.278191986E0,2.935704204E0
5.683389958E0,7.647596741E-1,1.021176453E0,-2.227368164E0,2.566871178E0
5.693322958E0,-4.489164734E-1,8.102650452E-1,-3.084336090E0,3.220432356E0
5.703255958E0,-7.806266785E-1,8.984317017E-1,-3.673211517E0,3.861222654E0
5.713189958E0,-3.610491943E-1,1.093925171E0,-3.809278564E0,3.979652244E0
5.723122958E0,7.214996338E-2,1.403631134E0,-3.482508087E0,3.755429210E0
5.733055958E0,3.369493103E-1,1.782642975E0,-3.104993134E0,3.596155332E0
5.742988958E0,8.466394043E-1,1.966460724E0,-2.809806976E0,3.532531855E0
5.752922958E0,1.275198212E0,1.927541656E0,-2.507735138E0,3.410320049E0
5.762855958E0,1.516047363E0,1.865420837E0,-2.174228668E0,3.241213478E0
5.772788958E0,1.623374176E0,1.807790680E0,-1.803749084E0,3.026047194E0
5.782721958E0,1.803749084E0,1.712588654E0,-1.409019928E0,2.858637405E0
5.792655958E0,2.015858002E0,1.484912109E0,-9.928852844E-1,2.693412082E0
5.802588958E0,2.115700378E0,1.276695099E0,-5.798941040E-1,2.538191411E0
5.812521958E0,2.179467773E0,1.112336884E0,-2.206411743E-1,2.456838547E0
5.822455958E0,2.214494934E0,7.670050049E-1,-1.032852173E-2,2.343585110E0
5.832388958E0,2.339784393E0,2.944377136E-1,3.981719971E-2,2.358573718E0
5.842321958E0,2.724634094E0,-3.695814514E-1,4.715194702E-2,2.749989946E0
5.852254958E0,3.012784882E0,-1.280137939E0,1.110690308E-1,3.275356807E0
5.862188958E0,3.873495026E0,-2.564766541E0,1.110690308E-1,4.646969706E0
5.872121958E0,5.314099274E0,-4.587061157E0,-1.663041687E-1,7.021996741E0
5.882054958E0,6.913672943E0,-7.178172913E0,-3.677851868E-1,9.972978786E0
5.891987958E0,8.538544006E0,-1.014904495E1,-2.757266235E-1,1.326596670E1
5.901921958E0,9.830357666E0,-1.319176758E1,3.441343689E-1,1.645530590E1
5.911854958E0,1.112471603E1,-1.609138779E1,1.357227631E0,1.960954193E1
5.921787958E0,1.234961884E1,-1.844209946E1,2.197879486E0,2.230369458E1
5.931720958E0,1.374920837E1,-2.018133270E1,2.776276703E0,2.457711604E1
5.941654958E0,1.555565186E1,-2.142689255E1,3.333268433E0,2.668708878E1
5.951587958E0,1.725461884E1,-2.198717743E1,3.719465332E0,2.819560719E1
5.961520958E0,1.841231140E1,-2.206217148E1,4.015549622E0,2.901512123E1
5.971453958E0,1.913111664E1,-2.184212906E1,3.955225067E0,2.930395931E1
5.981387958E0,1.964020798E1,-2.183554276E1,3.711831207E0,2.960247266E1
5.991320958E0,1.918665115E1,-2.157328812E1,3.702849884E0,2.910748082E1
6.001253958E0,1.771146881E1,-2.011127838E1,4.096531219E0,2.710979922E1
6.011186958E0,1.571671692E1,-1.748409164E1,4.523742828E0,2.394102965E1
6.021120958E0,1.372525818E1,-1.405157959E1,4.797224121E0,2.021986549E1
6.031053958E0,1.199515594E1,-1.048464706E1,4.788542175E0,1.663555609E1
6.040986958E0,1.035486694E1,-7.260950775E0,4.252955933E0,1.334287487E1
6.050919958E0,8.714877319E0,-4.699926453E0,3.357068939E0,1.045506132E1
6.060853958E0,7.093598785E0,-3.004102936E0,2.200274506E0,8.011553287E0
6.070786958E0,5.442532196E0,-1.922901306E0,8.860075378E-1,5.839838653E0
6.080719958E0,4.231700134E0,-1.332079926E0,-1.133143616E-1,4.437855687E0
6.090653958E0,3.381019135E0,-9.011260986E-1,-6.382727051E-1,3.556783755E0
6.100586958E0,2.722837830E0,-4.279600525E-1,-6.738986206E-1,2.837452203E0
6.110519958E0,2.085163879E0,-1.038839722E-1,-6.677613831E-1,2.191941046E0
6.120452958E0,1.877395935E0,-8.696914673E-2,-7.668553162E-1,2.029838960E0
6.130386958E0,1.793570251E0,-3.098556519E-2,-7.517367554E-1,1.944983933E0
6.140319958E0,1.433419189E0,1.791773987E-1,-9.309141541E-1,1.718544813E0
6.150252958E0,1.019829254E0,4.328997803E-1,-1.338217163E0,1.737319517E0
6.160185958E0,6.988966370E-1,7.479945374E-1,-1.822609863E0,2.090420783E0
6.170119958E0,3.103047180E-1,1.121617584E0,-2.235002289E0,2.519831394E0
6.180052958E0,-1.862127686E-1,1.629062347E0,-2.483635254E0,2.976065087E0
6.189985958E0,-6.489006042E-1,2.251617737E0,-2.384990387E0,3.343506180E0
6.199918958E0,-1.064137115E0,2.758613434E0,-2.128573608E0,3.643235030E0
6.209852958E0,-1.277593231E0,3.149600372E0,-2.048190765E0,3.968288344E0
6.219785958E0,-1.390608215E0,3.276536407E0,-2.373614044E0,4.278261992E0
6.229718958E0,-1.620380402E0,2.846780090E0,-2.824476471E0,4.325211771E0
6.239652958E0,-1.689985657E0,1.616039429E0,-3.034789124E0,3.831132989E0
6.249585958E0,-1.269510040E0,2.824626160E-1,-2.908451843E0,3.185990112E0
6.259518958E0,-5.887257385E-1,-7.339237976E-1,-2.311493225E0,2.495644820E0
6.269451958E0,3.174897766E-1,-1.823657684E0,-1.366358643E0,2.300752713E0
6.279385958E0,1.845512238E0,-3.222049713E0,-3.704795837E-1,3.731591469E0
6.289318958E0,3.904779968E0,-5.073100433E0,4.564009094E-1,6.418096010E0
6.299251958E0,6.315067749E0,-7.253466339E0,1.153201904E0,9.686213359E0
6.309184958E0,8.890462189E0,-9.964029694E0,1.735790405E0,1.346607493E1
6.319118958E0,1.153621033E1,-1.281829422E1,2.230212250E0,1.738869351E1
6.329051958E0,1.455183929E1,-1.554098236E1,2.412832489E0,2.142661710E1
6.338984958E0,1.672232574E1,-1.821591980E1,2.370620270E0,2.484100950E1
6.348917958E0,1.770248749E1,-2.042577438E1,1.732197876E0,2.708488198E1
6.358851958E0,1.923739563E1,-2.247935394E1,1.231489105E0,2.961275586E1
6.368784958E0,2.078592545E1,-2.410572189E1,1.466350708E0,3.186362674E1
6.378717958E0,2.170800797E1,-2.491808258E1,2.419119415E0,3.313609192E1
6.388650958E0,2.307945602E1,-2.506732224E1,3.323838043E0,3.423565150E1
6.398584958E0,2.381876862E1,-2.462020203E1,3.635190582E0,3.444855145E1
6.408517958E0,2.301374268E1,-2.324471237E1,3.579656067E0,3.290536343E1
6.418450958E0,2.125699585E1,-2.069895630E1,3.642675018E0,2.989273734E1
6.428383958E0,1.887110733E1,-1.725357101E1,3.938908997E0,2.587120810E1
6.438317958E0,1.649988831E1,-1.319431229E1,3.980971527E0,2.149847262E1
6.448250958E0,1.424392960E1,-9.269923096E0,3.321443024E0,1.731626369E1
6.458183958E0,1.200458633E1,-5.766757965E0,2.226020966E0,1.350262048E1
6.468116958E0,9.985734558E0,-2.819387054E0,1.222507782E0,1.044788798E1
6.478050958E0,7.972870331E0,-4.834945679E-1,4.152365112E-1,7.998302924E0
6.487983958E0,5.984555054E0,1.065035248E0,-2.321672058E-1,6.083017416E0
6.497916958E0,4.168681183E0,1.832788696E0,-5.186714172E-1,4.583234365E0
6.507849958E0,2.631228333E0,2.175725555E0,-6.656657410E-1,3.478542095E0
6.517783958E0,1.763333130E0,2.165247345E0,-7.560777283E-1,2.892973094E0
6.527716958E0,1.416204987E0,1.830693054E0,-7.297325134E-1,2.426846341E0
6.537649958E0,1.321601715E0,1.408271484E0,-6.156697083E-1,2.027044365E0
6.547583958E0,1.457968140E0,1.046024780E0,-3.881428528E-1,1.835890468E0
6.557516958E0,1.720671844E0,7.235952759E-1,-2.225871277E-1,1.879852853E0
6.567449958E0,1.791624298E0,5.496569824E-1,-1.371148682E-1,1.879053195E0
6.577382958E0,1.865570526E0,3.616479492E-1,-5.074447632E-2,1.900978072E0
6.587316958E0,2.058369598E0,1.838177490E-1,7.035369873E-2,2.067758209E0
6.597249958E0,2.136058044E0,1.529818726E-1,7.110214233E-2,2.142709252E0
6.607182958E0,2.056124268E0,2.046244812E-1,-3.293151855E-2,2.066543652E0
6.617115958E0,1.958976288E0,4.367916870E-1,-2.450404358E-1,2.021984147E0
6.627049958E0,2.277962952E0,6.239025879E-1,-3.297642517E-1,2.384767098E0
6.636982958E0,2.667602692E0,9.491761780E-1,-2.863545227E-1,2.845880962E0
6.646915958E0,2.928959198E0,1.290167084E0,-2.459385681E-1,3.209956209E0
6.656848958E0,3.357518005E0,1.353784790E0,-3.230282593E-1,3.634557424E0
6.666782917E0,3.741918640E0,1.158890076E0,-3.347039795E-1,3.931540165E0
6.676715917E0,3.987707520E0,7.080276489E-1,-3.339555359E-1,4.063820950E0
6.686648917E0,3.976331177E0,4.101470947E-2,-4.173321533E-1,3.998381918E0
6.696582917E0,4.182602234E0,-7.403604126E-1,-5.686674500E-1,4.285519532E0
6.706515917E0,4.499792633E0,-1.733844452E0,-5.049000549E-1,4.848636343E0
6.716448917E0,4.848118286E0,-2.792293396E0,-3.603007507E-1,5.606333022E0
6.726381917E0,5.774242401E0,-3.943100281E0,-3.119512939E-1,6.999087708E0
6.736315917E0,7.097640381E0,-5.232967987E0,-1.546284485E-1,8.819544370E0
6.746248917E0,8.416847076E0,-6.583759003E0,4.340972900E-3,1.068593544E1
6.756181917E0,9.975106659E0,-8.228688354E0,7.349716187E-2,1.293133662E1
6.766114917E0,1.122201370E1,-1.001941452E1,3.664379883E-1,1.504847287E1
6.776048917E0,1.191342590E1,-1.173963730E1,1.006357269E0,1.675594090E1
6.785981917E0,1.230126938E1,-1.328173050E1,2.061063995E0,1.822014210E1
6.795914917E0,1.332798431E1,-1.481663864E1,3.212020569E0,2.018625826E1
6.805847917E0,1.508323425E1,-1.674223434E1,3.827390900E0,2.285728084E1
6.815781917E0,1.691751984E1,-1.911240555E1,3.995491333E0,2.583506288E1
6.825714917E0,1.788630524E1,-2.152658524E1,4.437222748E0,2.833730285E1
6.835647917E0,1.743424530E1,-2.210198868E1,5.335654449E0,2.865170189E1
6.845580917E0,1.680929489E1,-2.103949814E1,5.751489716E0,2.753711152E1
6.855514917E0,1.648027908E1,-1.963137634E1,5.470523987E0,2.620910469E1
6.865447917E0,1.528920593E1,-1.759007126E1,5.422773285E0,2.392857904E1
6.875380917E0,1.414109344E1,-1.496902176E1,5.342390442E0,2.127400460E1
6.885313917E0,1.330897385E1,-1.219813385E1,5.420078888E0,1.884941669E1
6.895247917E0,1.196342194E1,-9.370663605E0,5.485492859E0,1.615621963E1
6.905180917E0,1.039438477E1,-6.610403595E0,5.473966827E0,1.347979908E1
6.915113917E0,8.756191406E0,-4.055666199E0,5.610782318E0,1.116244572E1
6.925047917E0,7.373217316E0,-1.831890564E0,5.508993988E0,9.384517643E0
6.934980917E0,6.218967590E0,-2.826123047E-1,5.112169189E0,8.055414417E0
6.944913917E0,5.079387360E0,6.638694763E-1,4.482129364E0,6.806642511E0
6.954846917E0,4.168980560E0,1.257534943E0,3.341201935E0,5.488663172E0
6.964780917E0,3.699556732E0,1.260678406E0,1.923649750E0,4.356197702E0
6.974713917E0,3.450325012E0,7.942483521E-1,5.351371765E-1,3.580774348E0
6.984646917E0,3.201841736E0,2.809657288E-1,-6.580316162E-1,3.280813596E0
6.994579917E0,2.686463470E0,-7.634124756E-3,-1.742077332E0,3.201870967E0
7.004513917E0,2.360441437E0,-7.229965210E-2,-2.630928955E0,3.535349796E0
7.014446917E0,2.159708862E0,8.113128662E-2,-3.306025085E0,3.949775503E0
7.024379917E0,1.923200684E0,4.685256958E-1,-3.740721130E0,4.232163959E0
7.034312917E0,1.779349823E0,7.550299072E-1,-3.842958527E0,4.301684111E0
7.044246917E0,1.820963287E0,8.128097534E-1,-3.609593811E0,4.123800974E0
7.054179917E0,1.858385468E0,7.421566772E-1,-3.142115936E0,3.725222898E0
7.064112917E0,1.901495819E0,4.956193542E-1,-2.641706543E0,3.292406165E0
7.074045917E0,2.056573334E0,8.577163696E-2,-2.271526337E0,3.065400879E0
7.083979917E0,2.385439453E0,-3.417393494E-1,-1.860780487E0,3.044603618E0
7.093912917E0,2.453248444E0,-7.729925537E-1,-1.235830078E0,2.853633017E0
7.103845917E0,2.243235168E0,-1.107995911E0,-7.119195557E-1,2.601266694E0
7.113778917E0,2.227817230E0,-1.395248566E0,-4.342469788E-1,2.664293266E0
7.123712917E0,2.645149384E0,-1.682950287E0,-3.966751099E-1,3.160140515E0
7.133645917E0,3.483555908E0,-2.205962677E0,-4.764591980E-1,4.150716380E0
7.143578917E0,4.757706299E0,-3.256328430E0,-6.944059753E-1,5.807033987E0
7.153511917E0,6.214177551E0,-4.685706024E0,-1.009650421E0,7.848008509E0
7.163445917E0,7.603737946E0,-6.328090668E0,-1.140927429E0,9.958076001E0
7.173378917E0,8.806636505E0,-7.877518616E0,-1.183289337E0,1.187486083E1
7.183311917E0,1.023601410E1,-9.595795441E0,-1.299597473E0,1.409057232E1
7.193245917E0,1.118998032E1,-1.138921600E1,-1.096170502E0,1.600410855E1
7.203178917E0,1.185878952E1,-1.284748352E1,-5.501060486E-1,1.749260811E1
7.213111917E0,1.278685959E1,-1.383917130E1,2.619552612E-1,1.884396617E1
7.223044917E0,1.439496552E1,-1.483909195E1,8.409512329E-1,2.069108216E1
7.232978917E0,1.651261185E1,-1.652039566E1,1.118623810E0,2.338463474E1
7.242911917E0,1.899519928E1,-1.935699692E1,1.234333191E0,2.714837940E1
7.252844917E0,2.034359528E1,-2.225976059E1,1.827998657E0,3.021093162E1
7.262777917E0,1.946222809E1,-2.315938980E1,2.714754639E0,3.037277648E1
7.272711917E0,1.822669739E1,-2.222458374E1,3.386258240E0,2.894151629E1
7.282644917E0,1.795531174E1,-2.089489883E1,3.672912140E0,2.779352983E1
7.292577917E0,1.740670258E1,-1.833701797E1,3.950435028E0,2.558994841E1
7.302510917E0,1.666918625E1,-1.457728638E1,4.252955933E0,2.254876233E1
7.312444917E0,1.660077850E1,-1.095841187E1,4.324058075E0,2.035608302E1
7.322377917E0,1.616533401E1,-7.347021790E0,4.325105896E0,1.827575700E1
7.332310917E0,1.499880981E1,-3.791914673E0,4.633614349E0,1.614971500E1
7.342243917E0,1.333995941E1,-8.824150085E-1,4.910089417E0,1.424226637E1
7.352177917E0,1.138352783E1,1.268013153E0,5.038971405E0,1.251334472E1
7.362110917E0,9.501940613E0,2.443219299E0,4.627327423E0,1.084750455E1
7.372043917E0,7.712262268E0,2.587519226E0,3.459605713E0,8.839859542E0
7.381976917E0,6.351741486E0,1.890867920E0,1.864073639E0,6.884386096E0
7.391910917E0,5.088518372E0,7.213499451E-1,-2.273771667E-1,5.144420797E0
7.401843917E0,3.919299774E0,-6.502478027E-1,-2.359094238E0,4.620504145E0
7.411776917E0,2.458786926E0,-1.634900208E0,-4.061953125E0,5.021752187E0
7.421710917E0,9.196875000E-1,-1.784139862E0,-5.578000488E0,5.928159039E0
7.431643917E0,-3.457809448E-1,-1.514400787E0,-7.138954468E0,7.306000623E0
7.441576917E0,-3.132984924E-1,-1.153650970E0,-8.235873413E0,8.322179846E0
7.451509917E0,-1.646575928E-1,-7.535330200E-1,-8.489296417E0,8.524264062E0
7.461443917E0,-2.206411743E-1,-2.896476746E-1,-7.382498016E0,7.391471793E0
7.471376917E0,4.355941772E-2,2.353106689E-1,-5.482349396E0,5.487569902E0
7.481309917E0,6.007008362E-1,7.955955505E-1,-3.879632263E0,4.005666021E0
7.491242917E0,1.209484863E0,1.199006653E0,-2.709665222E0,3.200430628E0
7.501176917E0,1.935026093E0,1.353485413E0,-1.566043396E0,2.833503248E0
7.511109917E0,2.569706268E0,1.313069458E0,-5.930667114E-1,2.946060052E0
7.521042917E0,2.768941956E0,1.128503265E0,1.841171265E-2,2.990133469E0
7.530975917E0,2.866089935E0,7.195536804E-1,1.745370483E-1,2.960184487E0
7.540909917E0,2.944526825E0,2.619552612E-2,-4.056564331E-2,2.944922749E0
7.550842917E0,3.169958038E0,-8.295748901E-1,-3.701802063E-1,3.297553919E0
7.560775917E0,3.720363464E0,-1.764530640E0,-5.595364380E-1,4.155448677E0
7.570708917E0,4.707859955E0,-2.920726318E0,-6.587800598E-1,5.579299127E0
7.580642917E0,6.125561829E0,-4.461472321E0,-5.703140259E-1,7.599506633E0
7.590575917E0,7.737260284E0,-5.995632019E0,-2.098635864E-1,9.790650782E0
7.600508917E0,9.551038513E0,-7.633675690E0,2.475851440E-1,1.222933521E1
7.610441917E0,1.054332504E1,-9.405391388E0,8.068222046E-1,1.415182151E1
7.620375917E0,1.035890854E1,-1.087473587E1,1.110091553E0,1.505985291E1
7.630308917E0,9.984087982E0,-1.199395844E1,1.117426300E0,1.564562857E1
7.640241917E0,1.041354492E1,-1.337483688E1,6.909631348E-1,1.696483450E1
7.650174917E0,1.147064667E1,-1.538036636E1,1.513352966E-1,1.918734757E1
7.660108917E0,1.312171326E1,-1.747076935E1,-1.272354126E-1,2.185001898E1
7.670041917E0,1.493534180E1,-1.882904480E1,9.580078125E-3,2.403325726E1
7.679974917E0,1.667607193E1,-1.952389984E1,3.414399719E-1,2.567860240E1
7.689907917E0,1.802177353E1,-2.042801971E1,6.409671021E-1,2.724883758E1
7.699841917E0,1.835048996E1,-2.166549637E1,1.412313080E0,2.842760706E1
7.709774917E0,1.752345978E1,-2.241768219E1,2.973716125E0,2.860886410E1
7.719707917E0,1.647024994E1,-2.205633362E1,4.987029419E0,2.797537217E1
7.729641917E0,1.605022339E1,-2.030437683E1,6.878945160E0,2.678053913E1
7.739574917E0,1.598540817E1,-1.711615677E1,8.155041504E0,2.479920964E1
7.749507917E0,1.573348206E1,-1.284179535E1,8.815318451E0,2.213964780E1
7.759440917E0,1.551463715E1,-8.114176483E0,8.689430237E0,1.954609996E1
7.769374917E0,1.510419067E1,-3.835025024E0,7.865393829E0,1.745589909E1
7.779307917E0,1.448941910E1,-4.108955383E-1,6.728957062E0,1.598095629E1
7.789240917E0,1.353799759E1,2.154020691E0,5.315446472E0,1.470276012E1
7.799173917E0,1.170565796E1,3.520079956E0,3.306324463E0,1.266274744E1
7.809107917E0,9.270521851E0,3.447630615E0,8.988807678E-1,9.931602030E0
7.819040917E0,7.096891937E0,2.434986420E0,-1.356179810E0,7.624582461E0
7.828973917E0,5.571264496E0,1.186432800E0,-3.104544067E0,6.487280227E0
7.838906917E0,3.685785370E0,5.807922363E-2,-4.343667297E0,5.697002069E0
7.848840917E0,1.894460449E0,-8.997789001E-1,-5.079087982E0,5.495062984E0
7.858773917E0,1.334175568E0,-1.332978058E0,-5.170098724E0,5.503342236E0
7.868706917E0,1.488354950E0,-1.000818787E0,-4.400249634E0,4.751740264E0
7.878639917E0,1.729054413E0,-4.793032837E-1,-3.289110260E0,3.746679477E0
7.888573917E0,2.127974854E0,-2.207908630E-1,-2.188449097E0,3.060446868E0
7.898506917E0,2.565365295E0,-1.140628052E-1,-1.223405914E0,2.844438689E0
7.908439917E0,2.509531403E0,-1.296304321E-1,-5.634283447E-1,2.575267638E0
7.918372917E0,2.193688202E0,-3.902384949E-1,-4.417314148E-1,2.271493045E0
7.928306917E0,1.943258972E0,-6.068380737E-1,-8.216413879E-1,2.195359299E0
7.938239917E0,1.830693054E0,-5.504054260E-1,-1.377884674E0,2.356469683E0
7.948172917E0,1.857786713E0,-4.484674072E-1,-1.811981964E0,2.633585602E0
7.958105917E0,1.929637299E0,-3.585044861E-1,-2.010319519E0,2.809521336E0
7.968039917E0,2.001188507E0,-4.201762390E-1,-2.073937225E0,2.912476460E0
7.977972917E0,2.097737732E0,-7.598199463E-1,-2.066602478E0,3.041163551E0
7.987905917E0,2.485281830E0,-1.388063507E0,-2.107168121E0,3.541680895E0
7.997838917E0,3.125350800E0,-2.146386566E0,-2.047741699E0,4.309064745E0
8.007772917E0,4.096381531E0,-2.850971375E0,-1.886227570E0,5.335375701E0
8.017705917E0,5.559439087E0,-3.576811981E0,-1.790426788E0,6.848837492E0
8.027638917E0,6.928492126E0,-4.574636993E0,-1.821262665E0,8.499900262E0
8.037571917E0,7.848778381E0,-5.746849365E0,-1.782642975E0,9.889763176E0
8.047505917E0,8.547076263E0,-6.621330872E0,-1.598525848E0,1.092931014E1
8.057438917E0,9.428742828E0,-7.261250153E0,-1.206640778E0,1.196172760E1
8.067371917E0,1.066786606E1,-8.003855896E0,-8.491841125E-1,1.336361437E1
8.077305917E0,1.207239532E1,-9.284592590E0,-7.448510742E-1,1.524798975E1
8.087238917E0,1.316661987E1,-1.127515320E1,-9.065148926E-1,1.735830429E1
8.097171917E0,1.479119156E1,-1.410711411E1,-8.916957092E-1,2.045935330E1
8.107104917E0,1.674358154E1,-1.698682571E1,-3.847000122E-1,2.385472207E1
8.117038917E0,1.769425461E1,-1.908710815E1,2.706372070E-1,2.602839965E1
8.126971917E0,1.702320007E1,-1.985800507E1,6.574328613E-1,2.616413430E1
8.136904917E0,1.608495117E1,-1.974349319E1,1.048719177E0,2.548785965E1
8.146837917E0,1.606040222E1,-1.923724594E1,1.753603363E0,2.512137090E1
8.156771917E0,1.633313507E1,-1.789528656E1,2.880160675E0,2.439893251E1
8.166704917E0,1.672337357E1,-1.570474182E1,3.974534912E0,2.328319280E1
8.176637917E0,1.679866699E1,-1.310375061E1,4.579427032E0,2.179161868E1
8.186570917E0,1.589020615E1,-9.758357391E0,5.144202576E0,1.934391404E1
8.196504917E0,1.506796600E1,-6.243965607E0,5.488336945E0,1.720908331E1
8.206437917E0,1.453013443E1,-3.058589630E0,5.908064117E0,1.598076965E1
8.216370917E0,1.391446472E1,1.706451416E-2,6.591243439E0,1.539665905E1
8.226303917E0,1.329804657E1,2.838696899E0,7.045399017E0,1.531449934E1
8.236237917E0,1.249346970E1,4.719385986E0,7.027286682E0,1.509112810E1
8.246170917E0,1.129521149E1,5.024301910E0,6.341712341E0,1.389398171E1
8.256103917E0,9.744286652E0,3.705843658E0,4.621190186E0,1.140349939E1
8.266036917E0,7.866291962E0,1.634451141E0,2.274969177E0,8.350177514E0
8.275970917E0,6.028713226E0,-1.222956848E-1,-7.140151978E-2,6.030376238E0
8.285903917E0,4.429289246E0,-1.266665955E0,-2.076781311E0,5.053322321E0
8.295836917E0,3.074756012E0,-1.876797180E0,-3.817212067E0,5.248580775E0
8.305769917E0,2.306254120E0,-2.199076996E0,-5.365592194E0,6.240539022E0
8.315703917E0,2.235451355E0,-1.901795197E0,-6.036347351E0,6.712045670E0
8.325636917E0,2.511028290E0,-1.014590149E0,-5.471871185E0,6.105409938E0
8.335569917E0,2.797532501E0,-6.032455444E-2,-3.919898529E0,4.816163580E0
8.345503917E0,3.088527374E0,5.242098999E-1,-2.117496643E0,3.781215333E0
8.355436917E0,3.329526215E0,6.201603699E-1,-7.280859375E-1,3.464166975E0
8.365369917E0,3.521726532E0,4.776567078E-1,2.314187622E-1,3.561498047E0
8.375302917E0,3.595822449E0,1.893562317E-1,7.795788574E-1,3.684228286E0
8.385236917E0,3.576811981E0,-3.344046021E-1,8.414002991E-1,3.689629365E0
8.395169917E0,3.485950928E0,-1.035995636E0,4.948709106E-1,3.670155044E0
8.405102917E0,3.573518829E0,-1.924248505E0,-2.486329651E-1,4.066274398E0
8.415035917E0,4.114793243E0,-2.897524567E0,-9.963281250E-1,5.130286715E0
8.424969917E0,5.070555725E0,-3.845203857E0,-1.521136780E0,6.542933988E0
8.434902917E0,6.214327240E0,-4.674030304E0,-1.861528931E0,7.995605811E0
8.444835917E0,7.350015564E0,-5.373226318E0,-2.005230103E0,9.322834205E0
8.454768917E0,7.989036713E0,-5.985453186E0,-2.063459015E0,1.019353818E1
8.464702917E0,8.106692047E0,-6.728507996E0,-2.026635590E0,1.072839818E1
8.474635917E0,8.095016327E0,-8.001161499E0,-2.061962128E0,1.156717608E1
8.484568917E0,7.778125305E0,-9.733209686E0,-2.054926758E0,1.262764143E1
8.494501917E0,7.749834137E0,-1.107726471E1,-2.189047852E0,1.369516897E1
8.504435917E0,8.421487427E0,-1.224708206E1,-2.842738495E0,1.513253553E1
8.514368917E0,1.058074722E1,-1.438763077E1,-3.362308044E0,1.817309127E1
8.524301917E0,1.347123642E1,-1.648372192E1,-2.805466003E0,2.147225975E1
8.534234917E0,1.587478821E1,-1.727632370E1,-1.830243988E0,2.353359416E1
8.544168917E0,1.760698608E1,-1.728665222E1,-7.411088562E-1,2.468569518E1
8.554101917E0,1.842383743E1,-1.726075607E1,5.792953491E-1,2.525286259E1
8.564034917E0,1.834839432E1,-1.713591568E1,1.855092316E0,2.517428346E1
8.573967917E0,1.766027527E1,-1.652653290E1,3.200943604E0,2.439790262E1
8.583901917E0,1.664209259E1,-1.516137177E1,4.381388855E0,2.293519147E1
8.593834917E0,1.569875427E1,-1.279554153E1,5.148393860E0,2.089695500E1
8.603767917E0,1.497426086E1,-9.685758362E0,5.664071503E0,1.871160360E1
8.613700917E0,1.425979660E1,-6.471642151E0,6.163582764E0,1.682895433E1
8.623634917E0,1.357946136E1,-3.273093567E0,6.811585236E0,1.554067585E1
8.633567917E0,1.297217422E1,-3.240760803E-1,7.485932922E0,1.498070496E1
8.643500917E0,1.216879486E1,1.853445740E0,7.569159851E0,1.445015607E1
8.653433917E0,1.140957367E1,3.105891266E0,7.081773376E0,1.378319433E1
8.663367917E0,1.058104660E1,3.209176483E0,5.741310883E0,1.245873234E1
8.673301667E0,9.360335083E0,2.311642914E0,3.636837158E0,1.030466644E1
8.683234667E0,7.979007568E0,7.970924377E-1,1.333277435E0,8.128809682E0
8.693167667E0,6.485263824E0,-5.513035583E-1,-8.196954346E-1,6.560067308E0
8.703101667E0,5.094505920E0,-1.447489929E0,-2.797831879E0,5.989747982E0
8.713034667E0,4.255800018E0,-1.822011108E0,-4.200864258E0,6.251305367E0
8.722967667E0,4.204905853E0,-1.892813873E0,-4.577032013E0,6.497168586E0
8.732900667E0,4.457580414E0,-1.701212311E0,-4.008214874E0,6.231366861E0
8.742834667E0,4.602329407E0,-1.334025879E0,-2.805016937E0,5.552403176E0
8.752767667E0,4.485123138E0,-1.070424042E0,-1.629960480E0,4.890696102E0
8.762700667E0,4.065994720E0,-1.199455719E0,-1.244062958E0,4.417997253E0
8.772633667E0,3.261866913E0,-1.530716858E0,-1.681453400E0,3.976198611E0
8.782567667E0,2.588866425E0,-1.901495819E0,-2.443668365E0,4.036016699E0
8.792500667E0,2.379002838E0,-2.135908356E0,-3.114722900E0,4.463547665E0
8.802433667E0,2.490371246E0,-2.154918823E0,-3.396736450E0,4.731114308E0
8.812366667E0,2.600093079E0,-2.171683960E0,-3.276386719E0,4.712897747E0
8.822300667E0,2.806364136E0,-2.279160461E0,-2.703378296E0,4.514255895E0
8.832233667E0,3.302881622E0,-2.686313782E0,-1.960173798E0,4.686959575E0
8.842166667E0,4.253704376E0,-3.472179565E0,-1.445394287E0,5.677957071E0
8.852100667E0,5.484894104E0,-4.275858307E0,-1.172511749E0,7.052787491E0
8.862033667E0,6.296356659E0,-4.777315521E0,-6.975494385E-1,7.934319504E0
8.871966667E0,6.788383484E0,-5.200186157E0,-3.215313721E-1,8.557304997E0
8.881899667E0,7.168892212E0,-5.999823303E0,-1.721420288E-1,9.349894550E0
8.891833667E0,7.433242493E0,-7.136409760E0,-1.827699280E-1,1.030605856E1
8.901766667E0,7.673343201E0,-8.519533539E0,-3.498225403E-1,1.147105154E1
8.911699667E0,7.969726868E0,-1.001447479E1,-3.394940186E-1,1.280318351E1
8.921632667E0,8.642427979E0,-1.113264954E1,-1.978884888E-1,1.409491422E1
8.931566667E0,9.963281250E0,-1.241009308E1,-3.061134338E-1,1.591763453E1
8.941499667E0,1.273581573E1,-1.468057159E1,-1.740879822E-1,1.943580437E1
8.951432667E0,1.584485046E1,-1.676109512E1,7.738906860E-1,2.307796574E1
8.961365667E0,1.798584824E1,-1.786519913E1,1.895059204E0,2.542139504E1
8.971299667E0,1.856364670E1,-1.764276169E1,3.167113953E0,2.580516672E1
8.981232667E0,1.791324921E1,-1.646411270E1,4.032015381E0,2.466188663E1
8.991165667E0,1.694281723E1,-1.525612473E1,4.416116638E0,2.322305931E1
9.001098667E0,1.593047241E1,-1.399844009E1,4.768334198E0,2.173645066E1
9.011032667E0,1.485660553E1,-1.213107330E1,5.337750092E0,1.990912463E1
9.020965667E0,1.372241409E1,-9.794432373E0,5.926326141E0,1.787055946E1
9.030898667E0,1.262579453E1,-7.208709412E0,6.479725342E0,1.591738104E1
9.040831667E0,1.190160049E1,-4.667743378E0,6.822063446E0,1.449056494E1
9.050765667E0,1.152513336E1,-2.550246735E0,7.116201782E0,1.378306153E1
9.060698667E0,1.150342850E1,-8.144563293E-1,7.395670624E0,1.369993249E1
9.070631667E0,1.164937500E1,6.896159363E-1,7.410040741E0,1.382361066E1
9.080564667E0,1.194486053E1,1.756447449E0,7.001540222E0,1.395658863E1
9.090498667E0,1.208422073E1,2.282154236E0,6.174510040E0,1.376085727E1
9.100431667E0,1.184711380E1,2.151475983E0,4.717589722E0,1.293207667E1
9.110364667E0,1.096514786E1,1.573677521E0,2.868634644E0,1.144290143E1
9.120297667E0,9.738748169E0,9.017248535E-1,1.073417816E0,9.839133570E0
9.130231667E0,8.146658936E0,1.478924561E-1,-7.524851990E-1,8.182674255E0
9.140164667E0,6.355932770E0,-5.511538696E-1,-2.579585724E0,6.881563374E0
9.150097667E0,5.023403778E0,-9.315129089E-1,-4.202361145E0,6.615295988E0
9.160030667E0,4.303401031E0,-9.505233765E-1,-5.325325928E0,6.912441780E0
9.169964667E0,3.916755066E0,-6.798861694E-1,-5.685476990E0,6.937424886E0
9.179897667E0,3.642824707E0,-8.337661743E-2,-5.126688995E0,6.289679130E0
9.189830667E0,3.386557617E0,5.592370605E-1,-3.963308258E0,5.243026887E0
9.199763667E0,3.220552826E0,9.279203796E-1,-2.737357635E0,4.327369127E0
9.209697667E0,2.964734802E0,8.958869934E-1,-1.906136169E0,3.636704696E0
9.219630667E0,2.228116608E0,5.054988098E-1,-1.672621765E0,2.831553678E0
9.229563667E0,1.692829742E0,-2.122586060E-1,-2.027683411E0,2.649948352E0
9.239496667E0,2.258054352E0,-1.003213806E0,-2.366878052E0,3.421601834E0
9.249430667E0,3.045566711E0,-1.651365967E0,-2.157762909E0,4.081473621E0
9.259363667E0,3.638932800E0,-1.956581268E0,-1.543440399E0,4.410470547E0
9.269296667E0,4.209546204E0,-2.038760376E0,-9.888436890E-1,4.780652147E0
9.279229667E0,4.819677429E0,-2.380948792E0,-8.219407654E-1,5.438179318E0
9.289163667E0,5.456752625E0,-2.894530792E0,-7.629634094E-1,6.223871052E0
9.299096667E0,6.444847870E0,-3.457510071E0,-6.601272583E-1,7.343446599E0
9.309029667E0,7.833360443E0,-4.217030640E0,-3.278182983E-1,8.902378788E0
9.318962667E0,9.246122589E0,-5.015619965E0,2.435435486E-1,1.052171754E1
9.328896667E0,1.039513321E1,-5.829327850E0,7.704478455E-1,1.194292458E1
9.338829667E0,1.127515320E1,-6.627019043E0,1.033450928E0,1.311924090E1
9.348762667E0,1.251801865E1,-8.087980957E0,7.611671448E-1,1.492298905E1
9.358695667E0,1.490121277E1,-1.082473984E1,5.197192383E-1,1.842528813E1
9.368629667E0,1.753199203E1,-1.344069992E1,1.069675598E0,2.211712832E1
9.378562667E0,1.868758896E1,-1.510987885E1,1.692829742E0,2.409149419E1
9.388495667E0,1.807132050E1,-1.588766144E1,2.467917938E0,2.418844826E1
9.398428667E0,1.662877029E1,-1.575892914E1,3.420087891E0,2.316369682E1
9.408362667E0,1.540356812E1,-1.539204208E1,4.376149750E0,2.221115839E1
9.418295667E0,1.412178360E1,-1.486408997E1,5.350174255E0,2.118939138E1
9.428228667E0,1.265453476E1,-1.388826920E1,6.419550476E0,1.985527385E1
9.438161667E0,1.113609238E1,-1.235949829E1,7.380252686E0,1.819994179E1
9.448095667E0,1.022164398E1,-1.076875626E1,8.012537842E0,1.687154052E1
9.458028667E0,9.734257507E0,-8.937464447E0,8.652157745E0,1.579537507E1
9.467961667E0,9.151968384E0,-6.829398193E0,9.194929047E0,1.466103425E1
9.477894667E0,8.880133667E0,-4.968917084E0,9.600435791E0,1.398982767E1
9.487828667E0,8.890611877E0,-3.448528748E0,9.837542725E0,1.370082395E1
9.497761667E0,8.801696777E0,-2.087708588E0,9.926457825E0,1.342992771E1
9.507694667E0,9.015452271E0,-7.908055115E-1,9.306297455E0,1.298117581E1
9.517628667E0,9.221573639E0,2.972817993E-1,7.770042114E0,1.206231119E1
9.527561667E0,9.093290405E0,9.765692139E-1,5.670208740E0,1.076071025E1
9.537494667E0,8.273295593E0,1.169368286E0,3.065774689E0,8.900214413E0
9.547427667E0,6.862778778E0,9.889933777E-1,2.290237427E-1,6.937455754E0
9.557361667E0,5.662574615E0,6.062393188E-1,-2.255958710E0,6.125489947E0
9.567294667E0,4.721331940E0,3.197351074E-1,-4.062402191E0,6.236691221E0
9.577227667E0,3.885320435E0,1.929487610E-1,-5.260660400E0,6.542743458E0
9.587160667E0,3.351231079E0,1.037342834E-1,-6.001320190E0,6.874398488E0
9.597094667E0,3.276087341E0,1.288819885E-1,-5.799689484E0,6.662263650E0
9.607027667E0,3.546275482E0,4.965174866E-1,-4.564458160E0,5.801454792E0
9.616960667E0,3.731590118E0,9.780661011E-1,-2.996169434E0,4.884507077E0
9.626893667E0,3.665128326E0,1.052461395E0,-1.724264374E0,4.184964548E0
9.636827667E0,3.316054230E0,7.129673767E-1,-1.098116455E0,3.565164496E0
9.646760667E0,2.928659821E0,5.927673340E-2,-1.037193146E0,3.107463869E0
9.656693667E0,2.734363861E0,-7.033872986E-1,-1.185534668E0,3.062187431E0
9.666626667E0,2.675685883E0,-1.426234131E0,-1.425785065E0,3.350567383E0
9.676560083E0,3.068469086E0,-2.106719055E0,-1.738035736E0,4.107862696E0
9.686493083E0,3.735931091E0,-3.043471069E0,-2.124532013E0,5.266263718E0
9.696426083E0,4.535418549E0,-4.092339935E0,-2.453398132E0,6.583041087E0
9.706359083E0,5.280119934E0,-5.271587677E0,-2.595153351E0,7.899628097E0
9.716293083E0,5.869594116E0,-6.510411530E0,-2.344275055E0,9.073765420E0
9.726226083E0,6.168821869E0,-7.481442261E0,-1.807191925E0,9.863685123E0
9.736159083E0,6.519542542E0,-8.334518280E0,-1.430425415E0,1.067776881E1
9.746092083E0,7.216193848E0,-9.405092010E0,-1.185384979E0,1.191362023E1
9.756026083E0,8.200696564E0,-1.060080551E1,-9.505233765E-2,1.340289284E1
9.765959083E0,9.473649445E0,-1.248478775E1,5.513035583E-1,1.568196080E1
9.775892083E0,1.159443924E1,-1.519265671E1,-8.048762512E-1,1.912839943E1
9.785825083E0,1.406894348E1,-1.773392212E1,-2.161505127E-1,2.263788606E1
9.795759083E0,1.618299728E1,-1.931403625E1,9.370513916E-1,2.521506420E1
9.805692083E0,1.731194962E1,-2.013178574E1,1.468596039E0,2.659227652E1
9.815625083E0,1.795905396E1,-2.069281906E1,2.148332520E0,2.748337156E1
9.825558083E0,1.789513687E1,-2.065060684E1,3.495830383E0,2.754821803E1
9.835492083E0,1.725596603E1,-1.956566299E1,5.427713013E0,2.664664333E1
9.845425083E0,1.696916245E1,-1.747181717E1,7.390132141E0,2.545252291E1
9.855358083E0,1.736613693E1,-1.463267120E1,8.632249146E0,2.429431011E1
9.865291083E0,1.758632904E1,-1.097757202E1,9.351204071E0,2.274271475E1
9.875225083E0,1.738469833E1,-7.207960968E0,9.388326874E0,2.103147924E1
9.885158083E0,1.719624023E1,-3.627855835E0,9.099876709E0,1.979090125E1
9.895091083E0,1.676723236E1,-4.587959290E-1,8.559051361E0,1.883103648E1
9.905024083E0,1.586595657E1,1.905238037E0,7.435338135E0,1.762506066E1
9.914958083E0,1.412642395E1,3.655548248E0,5.699248352E0,1.566525833E1
9.924891083E0,1.140059235E1,4.698130188E0,3.104244690E0,1.271543425E1
9.934824083E0,8.501121826E0,4.553381195E0,7.634124756E-2,9.644074896E0
9.944757083E0,5.646557922E0,3.312461700E0,-2.667303314E0,7.068983368E0
9.954691083E0,2.937641144E0,1.672172699E0,-4.332889709E0,5.495437222E0
9.964624083E0,1.468446350E0,4.281097412E-1,-4.978048096E0,5.207741879E0
9.974557083E0,8.969348145E-1,-1.306782532E-1,-5.042563934E0,5.123379734E0
9.984490083E0,5.694158936E-1,-1.225950623E-1,-4.743036804E0,4.778667402E0
9.994424083E0,2.980302429E-1,8.951385498E-2,-4.489464111E0,4.500235856E0
1.000435708E1,8.397537231E-2,3.198847961E-1,-4.330943756E0,4.343552919E0
1.001429008E1,1.549278259E-1,5.125341797E-1,-4.183799744E0,4.217922974E0
1.002422308E1,7.547305298E-1,6.487509155E-1,-3.856280823E0,3.982637029E0
1.003415708E1,1.412911835E0,7.102729797E-1,-3.128194885E0,3.505197683E0
1.004409008E1,2.351609802E0,6.414161682E-1,-2.141746216E0,3.244774294E0
1.005402308E1,3.512595520E0,4.363426208E-1,-8.345146179E-1,3.636638120E0
1.006395608E1,4.394411774E0,3.788621521E-1,6.200106812E-1,4.454077302E0
1.007389008E1,5.188360748E0,1.664538574E-1,1.981579285E0,5.556388270E0
1.008382308E1,5.315147095E0,-6.011499023E-1,4.685855713E0,7.111217449E0
1.009375608E1,6.087840271E0,-1.377734985E0,5.383405151E0,8.242633310E0
1.010368908E1,7.372019806E0,-2.562371521E0,4.408332825E0,8.963583107E0
1.011362308E1,8.040529633E0,-4.290677490E0,4.793930969E0,1.029766013E1
1.012355608E1,9.188642120E0,-5.799240417E0,4.623585205E0,1.180846618E1
1.013348908E1,1.073567505E1,-7.333699493E0,3.804787903E0,1.354674418E1
1.014342208E1,1.213286957E1,-9.309141541E0,2.773432617E0,1.554215457E1
1.015335608E1,1.336016739E1,-1.134311188E1,1.331032104E0,1.757645886E1
1.016328908E1,1.363215179E1,-1.286948776E1,4.155358887E-1,1.875185185E1
1.017322208E1,1.311572571E1,-1.378004425E1,6.939569092E-1,1.903663459E1
1.018315508E1,1.328143112E1,-1.518936356E1,1.536105652E0,2.023543423E1
1.019308908E1,1.420995026E1,-1.721914261E1,2.153122559E0,2.242894325E1
1.020302208E1,1.508024048E1,-1.913530792E1,2.812950439E0,2.452521870E1
1.021295508E1,1.542033325E1,-2.075613739E1,4.010759583E0,2.616658383E1
1.022288808E1,1.577778992E1,-2.202953934E1,5.484295349E0,2.764627920E1
1.023282208E1,1.621039032E1,-2.241902939E1,7.001091156E0,2.853778040E1
1.024275508E1,1.589858871E1,-2.121762772E1,8.196654968E0,2.775136036E1
1.025268808E1,1.521660690E1,-1.866977600E1,8.820108490E0,2.564956092E1
1.026262108E1,1.449076630E1,-1.551194275E1,9.106912079E0,2.309845283E1
1.027255508E1,1.363948654E1,-1.222283249E1,9.031169586E0,2.042046158E1
1.028248808E1,1.271186554E1,-9.221873016E0,8.927285614E0,1.806463107E1
1.029242108E1,1.167018173E1,-6.723268890E0,8.747210083E0,1.605955076E1
1.030235408E1,1.033959869E1,-5.011877747E0,8.055947571E0,1.403297940E1
1.031228808E1,8.129893799E0,-3.883075104E0,6.992708588E0,1.140488574E1
1.032222108E1,5.996081085E0,-2.980751495E0,5.763315125E0,8.834798757E0
1.033215408E1,4.612657928E0,-2.495610352E0,3.965104523E0,6.574704409E0
1.034208708E1,3.730991364E0,-2.361788635E0,1.765129395E0,4.755420475E0
1.035202108E1,3.149450684E0,-2.098186798E0,-3.761677551E-1,3.803015860E0
1.036195408E1,2.976560211E0,-1.692380676E0,-2.053579559E0,3.992649753E0
1.037188708E1,3.068469086E0,-1.276994476E0,-3.117866364E0,4.557116203E0
1.038182008E1,3.855382690E0,-5.563929749E-1,-3.816014557E0,5.453028143E0
1.039175408E1,4.565955048E0,2.977308655E-1,-4.194427643E0,6.207238711E0
1.040168708E1,4.514611816E0,1.421893158E0,-4.187691650E0,6.319830802E0
1.041162008E1,3.962260437E0,2.511028290E0,-4.144281921E0,6.259380440E0
1.042155308E1,3.222049713E0,2.966381378E0,-4.274660797E0,6.119946713E0
1.043148708E1,2.621199188E0,2.739153900E0,-4.491559753E0,5.877734112E0
1.044142008E1,2.241887970E0,2.151925049E0,-4.759352875E0,5.684037550E0
1.045135308E1,1.842668152E0,1.461261292E0,-4.931794281E0,5.463817833E0
1.046128608E1,1.398242340E0,8.184979248E-1,-5.042563934E0,5.296458395E0
1.047122008E1,1.458117828E0,4.321513367E-1,-4.335584106E0,4.594578536E0
1.048115308E1,1.910028076E0,2.692900085E-1,-3.051105194E0,3.609704595E0
1.049108608E1,2.345472565E0,2.020797729E-2,-1.803749084E0,2.958912076E0
1.050101908E1,2.422711945E0,-3.851490784E-1,-1.088087311E0,2.683618262E0
1.051095308E1,2.728975067E0,-8.773255920E-1,-4.481680298E-1,2.901354803E0
1.052088608E1,3.338357849E0,-1.439406738E0,-5.254074097E-2,3.635833524E0
1.053081908E1,4.032165070E0,-2.210153961E0,1.535806274E-1,4.600730669E0
1.054075208E1,5.184917908E0,-3.329226837E0,1.139131165E-1,6.162799789E0
1.055068608E1,6.397396545E0,-4.808750153E0,1.139131165E-1,8.003982558E0
1.056061908E1,7.501650238E0,-6.531517639E0,2.874023438E-1,9.950782837E0
1.057055208E1,8.700956268E0,-8.329129486E0,7.482939148E-1,1.206818055E1
1.058048508E1,9.916129303E0,-1.003992188E1,1.370998993E0,1.417777450E1
1.059041908E1,1.103475311E1,-1.151480484E1,2.179916840E0,1.609684889E1
1.060035208E1,1.205488174E1,-1.288505539E1,3.103945312E0,1.791589525E1
1.061028508E1,1.331406326E1,-1.423419983E1,3.888763275E0,1.987458692E1
1.062021808E1,1.476784012E1,-1.568183945E1,4.618196411E0,2.203036378E1
1.063015208E1,1.595008163E1,-1.708023148E1,5.440137177E0,2.399446819E1
1.064008508E1,1.722932144E1,-1.869881561E1,6.249653778E0,2.618307459E1
1.065001808E1,1.814975739E1,-2.018761963E1,7.081473999E0,2.805531952E1
1.065995108E1,1.787073761E1,-2.048190765E1,7.949069824E0,2.832065527E1
1.066988508E1,1.697619781E1,-1.984513184E1,8.485404510E0,2.745947267E1
1.067981854E1,1.590098373E1,-1.855571320E1,8.879534912E0,2.600003685E1
1.068975154E1,1.497800308E1,-1.632804565E1,8.981023865E0,2.390825048E1
1.069968454E1,1.423195450E1,-1.349503693E1,8.758736115E0,2.147975812E1
1.070961854E1,1.314820816E1,-1.058389069E1,7.998916168E0,1.867824349E1
1.071955154E1,1.195518906E1,-8.078251190E0,6.975045319E0,1.602610199E1
1.072948454E1,1.014784744E1,-5.964796143E0,6.024821320E0,1.322331549E1
1.073941754E1,8.064030762E0,-3.941004639E0,4.683311005E0,1.012390792E1
1.074935154E1,6.217919769E0,-2.289788361E0,3.017574921E0,7.280893860E0
1.075928454E1,4.572391663E0,-1.056053925E0,1.132245483E0,4.827421179E0
1.076921754E1,3.169958038E0,-8.292755127E-2,-9.756710815E-1,3.317746977E0
1.077915054E1,2.353705444E0,5.664221191E-1,-2.741099854E0,3.657101549E0
1.078908454E1,1.813927917E0,9.921368408E-1,-3.716920624E0,4.253253922E0
1.079901754E1,1.421893158E0,1.280437317E0,-3.899690552E0,4.343833132E0
1.080895054E1,1.495090942E0,1.264720001E0,-3.687881012E0,4.175557444E0
1.081888354E1,1.935924225E0,1.057401123E0,-3.352428589E0,4.013063317E0
1.082881754E1,2.141297150E0,7.744894409E-1,-2.618205414E0,3.469868436E0
1.083875054E1,1.971400452E0,5.384303284E-1,-1.658401337E0,2.631847631E0
1.084868354E1,1.741478577E0,3.023712158E-1,-7.876620483E-1,1.935093664E0
1.085861654E1,1.907183990E0,1.389111328E-1,-1.118174744E-1,1.915502603E0
1.086855054E1,2.133064270E0,9.894424438E-2,2.203417969E-1,2.146695985E0
1.087848354E1,2.168091431E0,3.293151855E-2,4.251159668E-1,2.209621805E0
1.088841654E1,2.269580383E0,-1.269360352E-1,4.590953064E-1,2.319024876E0
1.089834954E1,2.546504517E0,-2.781216431E-1,2.811154175E-1,2.577025956E0
1.090828354E1,2.678679657E0,-4.444258118E-1,7.424560547E-2,2.716312099E0
1.091821654E1,2.800376587E0,-7.391629028E-1,-6.316864014E-2,2.896974474E0
1.092814954E1,3.022664337E0,-1.109792175E0,-1.077758789E-1,3.221762562E0
1.093808254E1,3.220552826E0,-1.448238373E0,-8.681945801E-3,3.531208046E0
1.094801654E1,3.607797546E0,-1.756896515E0,1.224453735E-1,4.014708130E0
1.095794954E1,4.548441467E0,-2.351609802E0,1.582209778E-1,5.122833427E0
1.096788254E1,5.892795868E0,-3.572021942E0,1.269360352E-1,6.892060407E0
1.097781554E1,7.350015564E0,-4.995262299E0,2.252815247E-1,8.889663997E0
1.098774954E1,8.945098572E0,-6.601122894E0,3.935316467E-1,1.112404958E1
1.099768254E1,1.070888077E1,-8.705147552E0,5.691165161E-1,1.381244420E1
1.100761554E1,1.228689926E1,-1.095856155E1,8.086184692E-1,1.648368371E1
1.101754854E1,1.302576279E1,-1.302845718E1,1.108894043E0,1.845645792E1
1.102748154E1,1.335672455E1,-1.467757782E1,1.335522766E0,1.989012324E1
1.103741554E1,1.361149475E1,-1.592238922E1,1.538201294E0,2.100384087E1
1.104734854E1,1.444526093E1,-1.694176941E1,1.805545349E0,2.233716875E1
1.105728154E1,1.598091751E1,-1.795920364E1,2.450254669E0,2.416457051E1
1.106721454E1,1.772778488E1,-1.854538467E1,3.463347931E0,2.588822953E1
1.107714854E1,1.923410248E1,-1.847278564E1,4.590054932E0,2.706036053E1
1.108708154E1,1.951342163E1,-1.780427582E1,5.534740448E0,2.698887202E1
1.109701454E1,1.888083710E1,-1.660871201E1,6.450536041E0,2.596044567E1
1.110694754E1,1.794378571E1,-1.493668900E1,7.507488098E0,2.452440623E1
1.111688154E1,1.672666672E1,-1.269090912E1,8.507857819E0,2.265445207E1
1.112681454E1,1.541883636E1,-9.991123352E0,9.015901337E0,2.046581388E1
1.113674754E1,1.445154785E1,-7.204518127E0,8.733438721E0,1.835824797E1
1.114668054E1,1.360969849E1,-4.357288971E0,7.727081451E0,1.624554240E1
1.115661454E1,1.212703171E1,-1.663191376E0,5.807622986E0,1.354841645E1
1.116654754E1,1.042686722E1,2.990780640E-1,3.028502197E0,1.086189823E1
1.117648054E1,8.554111633E0,1.556762695E0,1.273851013E-1,8.695548452E0
1.118641354E1,6.461163940E0,2.174528046E0,-2.226769409E0,7.171730174E0
1.119634754E1,4.462819519E0,2.529290314E0,-4.109254761E0,6.572673903E0
1.120628054E1,3.043620758E0,2.817890167E0,-5.301375732E0,6.731175007E0
1.121621354E1,2.025737457E0,2.808759155E0,-5.821244659E0,6.773450348E0
1.122614654E1,1.283580780E0,2.483036499E0,-6.114484863E0,6.723092668E0
1.123608054E1,1.024020538E0,1.958527222E0,-6.067332916E0,6.457319541E0
1.124601354E1,9.939331055E-1,1.520088959E0,-5.473218384E0,5.766688212E0
1.125594654E1,1.190773773E0,1.363364868E0,-4.235142975E0,4.605772678E0
1.126587954E1,1.496587830E0,1.253643036E0,-2.810405731E0,3.421955050E0
1.127581354E1,1.885030060E0,1.181343384E0,-1.658850403E0,2.775012644E0
1.128574654E1,2.315534821E0,1.070424042E0,-9.830058289E-1,2.733826914E0
1.129567954E1,2.592309265E0,8.918453979E-1,-7.189549255E-1,2.834140386E0
1.130561254E1,2.583178253E0,8.110134888E-1,-8.828640747E-1,2.847806479E0
1.131554654E1,2.601290588E0,7.530839539E-1,-1.169068909E0,2.949672911E0
1.132547954E1,2.585423584E0,5.830375671E-1,-1.299896851E0,2.951962015E0
1.133541254E1,2.580633545E0,1.447489929E-1,-1.313219147E0,2.899166482E0
1.134534554E1,2.825075226E0,-4.989125061E-1,-1.169218597E0,3.097908302E0
1.135527954E1,3.455414429E0,-1.276994476E0,-6.207591248E-1,3.735765739E0
1.136521254E1,4.537364502E0,-2.153272247E0,1.526824951E-1,5.024696005E0
1.137514554E1,6.122568054E0,-3.255280609E0,8.309220886E-1,6.983775694E0
1.138507854E1,8.114026794E0,-4.449197845E0,1.564097443E0,9.385051577E0
1.139501254E1,1.013213013E1,-5.615123291E0,2.216740265E0,1.179421926E1
1.140494554E1,1.180041092E1,-6.830296326E0,2.506986694E0,1.386317525E1
1.141487854E1,1.313653244E1,-8.156688080E0,2.314337311E0,1.563509521E1
1.142481154E1,1.363080460E1,-9.783654785E0,1.820065155E0,1.687694795E1
1.143474554E1,1.354129074E1,-1.169068909E1,1.149908752E0,1.792654614E1
1.144467854E1,1.355835526E1,-1.382914215E1,7.060816956E-1,1.937969869E1
1.145461154E1,1.368095032E1,-1.595547043E1,4.403842163E-1,2.102235421E1
1.146454454E1,1.382210678E1,-1.794124100E1,3.415896606E-1,2.265072731E1
1.147447854E1,1.421039932E1,-1.969963440E1,6.512956238E-1,2.429887303E1
1.148441154E1,1.489896744E1,-2.084265747E1,1.446891174E0,2.566104236E1
1.149434454E1,1.556134003E1,-2.126403122E1,2.369722137E0,2.645618850E1
1.150427754E1,1.568737793E1,-2.089100693E1,3.517086182E0,2.636091599E1
1.151421154E1,1.510778320E1,-1.976055771E1,5.088967438E0,2.538941401E1
1.152414454E1,1.437296127E1,-1.811458054E1,6.831793213E0,2.411210157E1
1.153407754E1,1.395308441E1,-1.589275085E1,8.559500427E0,2.281519542E1
1.154401054E1,1.374845993E1,-1.314072372E1,9.905052338E0,2.144315351E1
1.155394454E1,1.356075027E1,-1.014994308E1,1.066696793E1,2.001747980E1
1.156387754E1,1.314476532E1,-7.163054352E0,1.053613998E1,1.830585832E1
1.157381054E1,1.277952484E1,-4.301604767E0,9.295669556E0,1.637771447E1
1.158374354E1,1.205892334E1,-1.770368500E0,6.953939209E0,1.403243055E1
1.159367754E1,1.067011139E1,2.185455322E-2,3.826642456E0,1.133556118E1
1.160361054E1,8.705746307E0,1.151255951E0,8.247848511E-2,8.781925286E0
1.161354354E1,6.802304535E0,1.850601654E0,-3.255430298E0,7.764914674E0
1.162347654E1,5.229674835E0,2.140997772E0,-5.767207031E0,8.074283082E0
1.163341054E1,3.942202148E0,1.921254730E0,-7.298372955E0,8.514600714E0
1.164334354E1,3.168461151E0,1.569037170E0,-7.926466827E0,8.679279928E0
1.165327654E1,3.109633484E0,1.468745728E0,-7.271279297E0,8.043540081E0
1.166320954E1,3.297642517E0,1.508562927E0,-5.698200531E0,6.754235528E0
1.167314321E1,3.411405945E0,1.558858337E0,-3.960314484E0,5.454522953E0
1.168307621E1,3.425626373E0,1.513352966E0,-2.398462372E0,4.447221042E0
1.169300921E1,3.461401978E0,1.413061523E0,-1.140777740E0,3.908889916E0
1.170294221E1,3.546724548E0,1.272952881E0,-2.603086853E-1,3.777224467E0
1.171287621E1,3.506607971E0,1.084943848E0,4.041595459E-1,3.692796712E0
1.172280921E1,3.214116211E0,9.027726746E-1,6.834786987E-1,3.407738935E0
1.173274221E1,3.126997375E0,7.155120850E-1,6.155200195E-1,3.266333575E0
1.174267521E1,3.041974182E0,4.948709106E-1,3.695814514E-1,3.104044876E0
1.175260821E1,2.734663239E0,1.944456482E-1,-9.924362183E-2,2.743363161E0
1.176254221E1,2.827619934E0,-2.462379456E-1,-4.367916870E-1,2.871733726E0
1.177247521E1,2.923720093E0,-8.524772644E-1,-5.010081482E-1,3.086400141E0
1.178240821E1,3.005899200E0,-1.476230164E0,-2.631527710E-1,3.359156870E0
1.179234221E1,3.455264740E0,-2.043849792E0,1.454974365E-1,4.017131551E0
1.180227521E1,4.251309357E0,-2.764002228E0,7.656578064E-1,5.128310778E0
1.181220821E1,5.451663208E0,-3.642225952E0,1.554367676E0,6.738137761E0
1.182214121E1,7.089856567E0,-4.659360809E0,2.187101898E0,8.761228453E0
1.183207421E1,8.482111359E0,-5.854924622E0,2.715952148E0,1.065845915E1
1.184200821E1,1.001926483E1,-7.097041626E0,2.860252075E0,1.260693101E1
1.185194121E1,1.168051025E1,-8.792865143E0,2.689756622E0,1.486551674E1
1.186187421E1,1.232686615E1,-1.063807800E1,2.661016388E0,1.649852542E1
1.187180721E1,1.217373459E1,-1.254301666E1,2.783312073E0,1.769954539E1
1.188174121E1,1.211565536E1,-1.469868393E1,3.112028503E0,1.930091023E1
1.189167421E1,1.229124023E1,-1.683114944E1,3.692970428E0,2.116601542E1
1.190160721E1,1.238090378E1,-1.878847916E1,4.453838196E0,2.293753261E1
1.191154021E1,1.290092239E1,-2.072575058E1,5.243446198E0,2.496966687E1
1.192147421E1,1.361059662E1,-2.244597336E1,6.152655487E0,2.696155095E1
1.193140721E1,1.368828506E1,-2.317435867E1,7.031627655E0,2.781840821E1
1.194134021E1,1.293984146E1,-2.237082962E1,7.775879974E0,2.698810524E1
1.195127321E1,1.221145615E1,-2.037547897E1,8.212821350E0,2.513424435E1
1.196120721E1,1.214005463E1,-1.815484680E1,8.288863220E0,2.335989388E1
1.197114021E1,1.216639984E1,-1.575623474E1,8.081544342E0,2.148468239E1
1.198107321E1,1.187256088E1,-1.318383408E1,7.649991760E0,1.932080632E1
1.199100621E1,1.128757736E1,-1.066846481E1,6.979835358E0,1.702773167E1
1.200094021E1,1.003423370E1,-8.139623566E0,6.033652954E0,1.425988379E1
1.201087321E1,8.389903107E0,-5.655389557E0,4.561464386E0,1.109868742E1
1.202080621E1,6.777156830E0,-3.709436188E0,2.692750397E0,8.181728193E0
1.203073921E1,5.299729156E0,-2.202370148E0,7.138655090E-1,5.783352606E0
1.204067321E1,3.987258453E0,-7.677534485E-1,-1.143172760E0,4.218355046E0
1.205060621E1,2.982547760E0,3.962260437E-1,-2.510579224E0,3.918621474E0
1.206053921E1,2.346221008E0,1.196312256E0,-3.309617615E0,4.229596292E0
1.207047221E1,2.004930725E0,1.503623199E0,-3.848646698E0,4.592680192E0
1.208040621E1,1.685195618E0,1.251846771E0,-4.167333984E0,4.666227293E0
1.209033921E1,1.521735535E0,8.684939575E-1,-4.182751923E0,4.534906221E0
1.210027221E1,1.870061188E0,7.367678833E-1,-3.858526154E0,4.350652806E0
1.211020521E1,2.492915955E0,8.110134888E-1,-3.262914734E0,4.185568706E0
1.212013921E1,3.091820526E0,8.264314270E-1,-2.565814362E0,4.101919844E0
1.213007221E1,3.585344238E0,7.714956665E-1,-1.828747101E0,4.098074527E0
1.214000521E1,3.804039459E0,7.658074951E-1,-1.155297546E0,4.048689880E0
1.214993821E1,3.575913849E0,7.872129822E-1,-6.737489319E-1,3.723009771E0
1.215987221E1,3.257975006E0,7.349716187E-1,-4.233197021E-1,3.366568578E0
1.216980521E1,3.097658386E0,5.123844910E-1,-4.614903259E-1,3.173483680E0
1.217973821E1,2.856958923E0,1.511856079E-1,-6.346801758E-1,2.930510246E0
1.218967121E1,2.547103271E0,-2.570155334E-1,-9.340576172E-1,2.725115721E0
1.219960521E1,2.435884552E0,-6.262976074E-1,-1.194665680E0,2.784422441E0
1.220953821E1,2.601739655E0,-1.030606842E0,-1.165626068E0,3.031482117E0
1.221947121E1,3.047512665E0,-1.518292694E0,-8.746311951E-1,3.515327278E0
1.222940421E1,3.634741516E0,-1.993554382E0,-6.285429382E-1,4.192931098E0
1.223933721E1,4.737348633E0,-2.786605225E0,-5.171745300E-1,5.520426636E0
1.224927121E1,6.026617584E0,-4.290677490E0,-4.867877197E-1,7.413972964E0
1.225920421E1,7.335196381E0,-6.336323547E0,-5.319937134E-1,9.707580510E0
1.226913721E1,8.545130310E0,-8.529712372E0,-3.779640198E-1,1.207965653E1
1.227907021E1,9.643845520E0,-1.098131424E1,-6.780899048E-2,1.461497920E1
1.228900421E1,1.019529877E1,-1.320673645E1,4.276606750E-1,1.668966441E1
1.229893721E1,1.041234741E1,-1.483624786E1,1.111738129E0,1.815949314E1
1.230887021E1,1.052985306E1,-1.617760849E1,2.009720764E0,1.940700388E1
1.231880321E1,1.109956833E1,-1.778182251E1,2.938239899E0,2.116664552E1
1.232873721E1,1.236189331E1,-1.988914032E1,3.961212616E0,2.375048451E1
1.233867021E1,1.409214523E1,-2.256108398E1,5.012177124E0,2.706867170E1
1.234860321E1,1.502784943E1,-2.454805206E1,6.262227631E0,2.945604545E1
1.235853621E1,1.505958344E1,-2.476944168E1,7.117399292E0,2.984918202E1
1.236847021E1,1.501602402E1,-2.423295731E1,6.902895355E0,2.933201598E1
1.237840321E1,1.493564117E1,-2.319905731E1,6.528224487E0,2.835290730E1
1.238833621E1,1.456082062E1,-2.108799728E1,6.743776245E0,2.649904988E1
1.239826921E1,1.423809174E1,-1.800156555E1,7.433242493E0,2.412535414E1
1.240820321E1,1.396236511E1,-1.435320236E1,7.805817719E0,2.149169253E1
1.241813621E1,1.310360092E1,-1.036339920E1,7.547754364E0,1.833229380E1
1.242806921E1,1.128847549E1,-6.515950012E0,6.343658295E0,1.449583679E1
1.243800221E1,9.323661346E0,-3.794908447E0,4.102219391E0,1.087015156E1
1.244793621E1,7.224576416E0,-2.261197815E0,1.263522491E0,7.674894725E0
1.245786921E1,5.194647675E0,-1.416204987E0,-1.386416931E0,5.559869867E0
1.246780221E1,3.714076538E0,-8.490344238E-1,-3.366948395E0,5.084443478E0
1.247773521E1,2.809208221E0,-3.971241760E-1,-4.471052399E0,5.295249569E0
1.248766921E1,2.070644073E0,2.918930054E-2,-4.780009918E0,5.209310291E0
1.249760221E1,1.636995850E0,5.218148804E-1,-4.523443451E0,4.838758811E0
1.250753521E1,1.939516754E0,1.085243225E0,-3.876788177E0,4.468664753E0
1.251746821E1,2.548300781E0,1.582209778E0,-3.006647644E0,4.247017154E0
1.252740221E1,2.678380280E0,1.945354614E0,-2.254461823E0,4.005087216E0
1.253733521E1,2.505489807E0,1.975891113E0,-1.904938660E0,3.716236828E0
1.254726821E1,2.346071320E0,1.599423981E0,-1.878593445E0,3.404602919E0
1.255720121E1,2.129022675E0,1.071322174E0,-1.991309052E0,3.105765685E0
1.256713421E1,1.858535156E0,5.312452698E-1,-2.053878937E0,2.820424286E0
1.257706821E1,1.666484528E0,2.606080627E-1,-1.844015350E0,2.499095808E0
1.258700121E1,1.660496979E0,2.748284912E-1,-1.397643585E0,2.187735932E0
1.259693421E1,1.912872162E0,4.082011414E-1,-7.882608032E-1,2.108806101E0
1.260686721E1,2.252515869E0,6.008505249E-1,-1.975891113E-1,2.339634705E0
1.261680121E1,2.622995453E0,6.721023560E-1,3.291654968E-1,2.727668720E0
1.262673421E1,3.013533325E0,6.481521606E-1,8.005352783E-1,3.184704234E0
1.263666721E1,3.091521149E0,4.879852295E-1,1.044078827E0,3.299353451E0
1.264660021E1,3.221301270E0,1.314266968E-1,1.045426025E0,3.389243340E0
1.265653421E1,3.894750824E0,-5.077441406E-1,9.584568787E-1,4.042960262E0
1.266646721E1,4.783752136E0,-1.632505188E0,8.283773804E-1,5.122066651E0
1.267639983E1,5.503455505E0,-3.143463135E0,7.494914246E-1,6.382093730E0
1.268633283E1,6.523883514E0,-5.099894714E0,5.752537537E-1,8.300656546E0
1.269626683E1,7.754923553E0,-7.494016113E0,3.014730835E-1,1.078841985E1
1.270619983E1,9.006620636E0,-1.016625916E1,-4.939727783E-2,1.358213829E1
1.271613283E1,1.051772827E1,-1.304971298E1,-4.849914551E-1,1.676761264E1
1.272606583E1,1.204470291E1,-1.614811981E1,-7.140151978E-1,2.015803709E1
1.273599983E1,1.247281265E1,-1.864387985E1,-2.206411743E-1,2.243243174E1
1.274593283E1,1.299896851E1,-2.057306808E1,9.282197571E-1,2.435335510E1
1.275586583E1,1.425470718E1,-2.234972351E1,2.138453064E0,2.659473255E1
1.276579883E1,1.580757797E1,-2.384047348E1,3.179388428E0,2.878117801E1
1.277573283E1,1.757255768E1,-2.448024307E1,4.633464661E0,3.048845813E1
1.278566583E1,1.892469589E1,-2.425720688E1,5.955665131E0,3.133729643E1
1.279559883E1,1.986489075E1,-2.364258499E1,6.578968964E0,3.157322508E1
1.280553183E1,1.987012985E1,-2.234822662E1,6.749165039E0,3.065642710E1
1.281546483E1,1.874581787E1,-2.010154861E1,6.848258972E0,2.832625276E1
1.282539883E1,1.684701645E1,-1.719414459E1,6.962172089E0,2.505857960E1
1.283533183E1,1.453417603E1,-1.397553772E1,6.697821808E0,2.124661724E1
1.284526483E1,1.224184296E1,-1.074375824E1,5.767356720E0,1.727869971E1
1.285519783E1,1.003812561E1,-7.513924713E0,4.355792084E0,1.327388244E1
1.286513183E1,7.729027405E0,-4.716242523E0,2.533032532E0,9.401971175E0
1.287506483E1,5.661227417E0,-2.648592224E0,4.312532043E-1,6.265023221E0
1.288499783E1,3.848347321E0,-1.046473846E0,-1.490600281E0,4.257554910E0
1.289493083E1,2.314187622E0,2.347119141E-1,-2.837798767E0,3.669285472E0
1.290486483E1,1.257984009E0,1.037043457E0,-3.600762177E0,3.952653685E0
1.291479783E1,3.382965088E-1,1.625918884E0,-4.017046509E0,4.346805655E0
1.292473083E1,-3.421884155E-1,1.976190491E0,-4.464915161E0,4.894679679E0
1.293466383E1,-4.499642944E-1,2.154769135E0,-4.653972015E0,5.148296166E0
1.294459783E1,-2.633024597E-1,2.277214508E0,-4.501289520E0,5.051399949E0
1.295453083E1,-7.349716187E-2,2.194286957E0,-4.023183746E0,4.583263525E0
1.296446383E1,1.067280579E-1,1.999092865E0,-3.303330688E0,3.862610102E0
1.297439683E1,3.517684937E-1,1.732197876E0,-2.423011322E0,2.999205632E0
1.298433083E1,4.778063965E-1,1.461111603E0,-1.674118652E0,2.272843886E0
1.299426383E1,4.212240601E-1,1.094972992E0,-1.119821320E0,1.621849361E0
1.300419683E1,5.032534790E-1,7.102729797E-1,-6.761439514E-1,1.102235189E0
1.301412983E1,6.975494385E-1,3.915856934E-1,-2.962339783E-1,8.530352538E-1
1.302406383E1,8.424481201E-1,2.258802795E-1,9.744735718E-2,8.776313139E-1
1.303399683E1,9.889933777E-1,2.112107849E-1,3.975732422E-1,1.086638109E0
1.304392983E1,1.306632843E0,1.853146362E-1,6.866221619E-1,1.487642731E0
1.305386283E1,1.540596313E0,1.228944397E-1,9.011260986E-1,1.789013217E0
1.306379683E1,1.633852386E0,3.173400879E-2,9.681866455E-1,1.899438351E0
1.307372983E1,1.899100800E0,-3.637435913E-2,8.437953186E-1,2.078436307E0
1.308366283E1,2.380200348E0,-3.668870544E-1,6.345304871E-1,2.490499698E0
1.309359583E1,2.755170593E0,-1.175804901E0,5.554948425E-1,3.046646793E0
1.310352983E1,3.464695129E0,-2.374961243E0,6.393205261E-1,4.248915624E0
1.311346283E1,4.696333923E0,-4.107308807E0,8.152047729E-1,6.292066177E0
1.312339583E1,6.268514557E0,-6.255341949E0,8.152047729E-1,8.893151099E0
1.313332883E1,8.252189484E0,-8.888965302E0,5.218148804E-1,1.214020701E1
1.314326283E1,1.018766464E1,-1.199770065E1,2.112107849E-1,1.574096381E1
1.315319583E1,1.206146805E1,-1.504626114E1,4.715194702E-2,1.928396248E1
1.316312883E1,1.362526611E1,-1.762060776E1,4.004173279E-1,2.227765761E1
1.317306183E1,1.475616440E1,-1.952614517E1,1.450334015E0,2.451771200E1
1.318299483E1,1.591864700E1,-2.107437561E1,2.727178802E0,2.655127368E1
1.319292883E1,1.701257217E1,-2.261871414E1,3.749403076E0,2.854981374E1
1.320286183E1,1.765009644E1,-2.328048798E1,4.442761230E0,2.955072168E1
1.321279483E1,1.851604568E1,-2.292782135E1,4.947661285E0,2.988324433E1
1.322272783E1,1.954455688E1,-2.211141907E1,4.957091675E0,2.992452698E1
1.323266183E1,1.996458344E1,-2.108410538E1,4.376299438E0,2.936453793E1
1.324259483E1,1.944426544E1,-1.977253281E1,3.525169373E0,2.795459410E1
1.325252783E1,1.805201065E1,-1.807476334E1,2.818339233E0,2.570049016E1
1.326246083E1,1.607132950E1,-1.589589432E1,2.778072968E0,2.277465208E1
1.327239483E1,1.370654709E1,-1.299522629E1,3.059936829E0,1.913396333E1
1.328232783E1,1.152932465E1,-9.679321747E0,3.348386993E0,1.542161768E1
1.329226083E1,9.705217896E0,-6.478078766E0,3.379971313E0,1.214829062E1
1.330219383E1,8.193062439E0,-3.711831207E0,3.066074066E0,9.502882364E0
1.331212783E1,6.632108459E0,-1.644031219E0,2.381547546E0,7.235984383E0
1.332206083E1,4.766537933E0,-2.444416809E-1,1.458716583E0,4.990740394E0
1.333199383E1,3.078647919E0,6.457571411E-1,5.734574890E-1,3.197487887E0
1.334192683E1,1.664388885E0,1.198707275E0,-4.819976807E-2,2.051685335E0
1.335186083E1,3.373983765E-1,1.592987366E0,-5.198689270E-1,1.709301060E0
1.336179383E1,-6.845265198E-1,1.742376709E0,-1.121767273E0,2.182387447E0
1.337172683E1,-1.065783691E0,1.579216003E0,-1.661993866E0,2.528248736E0
1.338165983E1,-1.025667114E0,1.419498138E0,-2.012864227E0,2.668068663E0
1.339159383E1,-7.896080017E-1,1.331481171E0,-1.962568817E0,2.499599821E0
1.340152683E1,-3.212319946E-1,1.253942413E0,-1.469943237E0,1.958646137E0
1.341145983E1,3.697311401E-1,1.153800659E0,-7.313790894E-1,1.415228762E0
1.342139283E1,1.012344818E0,1.125958557E0,-6.316864014E-2,1.515458670E0
1.343132583E1,1.557960205E0,1.144220581E0,4.037104797E-1,1.974705773E0
1.344125983E1,2.015558624E0,1.105600891E0,7.879614258E-1,2.430167300E0
1.345119283E1,2.321672058E0,9.518705750E-1,1.091230774E0,2.736238904E0
1.346112583E1,2.394121399E0,7.264393616E-1,1.130898285E0,2.745626040E0
1.347105883E1,2.345771942E0,3.173400879E-1,7.634124756E-1,2.487197086E0
1.348099283E1,2.405198364E0,-8.816665649E-2,2.356100464E-1,2.418318553E0
1.349092583E1,2.572400665E0,-2.529739380E-1,-1.787283325E-1,2.590981438E0
1.350085883E1,2.846181335E0,-1.929487610E-1,-3.655398560E-1,2.876038387E0
1.351079183E1,3.127745819E0,-1.104702759E-1,-2.814147949E-1,3.142322688E0
1.352072583E1,3.515439606E0,-2.139051819E-1,-3.128494263E-2,3.522080322E0
1.353065883E1,4.306245117E0,-8.979826355E-1,2.363584900E-1,4.405222487E0
1.354059183E1,5.828729095E0,-2.296374664E0,3.421884155E-1,6.274114470E0
1.355052483E1,7.211553497E0,-4.305945740E0,2.965333557E-1,8.404499068E0
1.356045883E1,8.484057312E0,-6.891968079E0,9.984237671E-2,1.093107593E1
1.357039183E1,9.924661560E0,-1.011716125E1,-5.478607178E-2,1.417246840E1
1.358032483E1,1.134221375E1,-1.408975021E1,-7.349716187E-2,1.808790412E1
1.359025783E1,1.294343399E1,-1.862022903E1,4.291575623E-1,2.268104030E1
1.360019183E1,1.365640137E1,-2.194182175E1,1.695224762E0,2.590008932E1
1.361012483E1,1.367690872E1,-2.350397324E1,3.134182434E0,2.737366781E1
1.362005783E1,1.389485550E1,-2.410272812E1,3.752696228E0,2.807296281E1
1.362999083E1,1.522738449E1,-2.442590607E1,3.581901398E0,2.900565709E1
1.363992383E1,1.719369553E1,-2.494323029E1,3.213667145E0,3.046498908E1
1.364985783E1,1.842099335E1,-2.507690231E1,3.527564392E0,3.131497623E1
1.365979083E1,1.835423218E1,-2.470238113E1,4.240531769E0,3.106553689E1
1.366972383E1,1.681977310E1,-2.345936600E1,4.752317505E0,2.925459181E1
1.367965767E1,1.463102463E1,-2.110595993E1,5.143304443E0,2.619125821E1
1.368959167E1,1.263717087E1,-1.753453674E1,5.426515503E0,2.228463903E1
1.369952467E1,1.127350662E1,-1.361718292E1,5.747747498E0,1.858914263E1
1.370945767E1,1.044408142E1,-9.584269409E0,6.105802917E0,1.543430873E1
1.371939067E1,1.010368927E1,-5.907465363E0,6.039640503E0,1.317041918E1
1.372932467E1,9.968520355E0,-2.986888733E0,5.202880554E0,1.163455493E1
1.373925767E1,9.290879517E0,-8.307723999E-1,3.735182648E0,1.004799554E1
1.374919067E1,8.030350800E0,6.436614990E-1,1.850302277E0,8.265860669E0
1.375912367E1,6.276897125E0,1.500779114E0,-1.809736633E-1,6.456355546E0
1.376905767E1,4.146227875E0,1.939067688E0,-2.271526337E0,5.109894420E0
1.377899067E1,2.292033691E0,2.112856293E0,-3.938160553E0,5.022617714E0
1.378892367E1,8.638536072E-1,2.157762909E0,-4.613556061E0,5.165954254E0
1.379885667E1,-9.056167603E-2,2.170636139E0,-4.344415741E0,4.857346065E0
1.380879067E1,-2.942880249E-1,2.217039642E0,-3.413052521E0,4.080538902E0
1.381872367E1,-2.978805542E-2,2.342778168E0,-2.205663300E0,3.217832728E0
1.382865667E1,3.221301270E-1,2.507435760E0,-1.194515991E0,2.796045487E0
1.383858967E1,6.592291260E-1,2.499502258E0,-4.864883423E-1,2.630354631E0
1.384852367E1,9.427395630E-1,2.315983887E0,-7.783813477E-2,2.501719013E0
1.385845667E1,1.109043732E0,1.929487610E0,6.421646118E-2,2.226437556E0
1.386838967E1,1.219514008E0,1.402583313E0,7.708969116E-2,1.860214285E0
1.387832267E1,1.485510864E0,9.132508850E-1,3.697311401E-1,1.782546163E0
1.388825567E1,1.623673553E0,3.722758484E-1,7.780819702E-1,1.838563751E0
1.389818967E1,1.591789856E0,-1.046324158E-1,1.229543152E0,2.014080249E0
1.390812267E1,1.449735260E0,-4.996609497E-1,1.534159698E0,2.169110271E0
1.391805567E1,1.896855469E0,-8.170010376E-1,1.808090057E0,2.744948273E0
1.392798867E1,2.593357086E0,-1.094074860E0,2.101629639E0,3.512740798E0
1.393792267E1,3.198398895E0,-1.333277435E0,2.308349762E0,4.163635771E0
1.394785567E1,3.897894287E0,-1.692530365E0,2.344275055E0,4.853232371E0
1.395778867E1,4.785548401E0,-2.609224091E0,2.357747040E0,5.938728396E0
1.396772167E1,5.924978943E0,-4.221970367E0,2.330503693E0,7.639480134E0
1.397765567E1,7.552095337E0,-6.719826050E0,2.219284973E0,1.034965854E1
1.398758867E1,9.128167877E0,-9.997410278E0,1.916764069E0,1.367280679E1
1.399752167E1,1.061128372E1,-1.322844131E1,1.448238373E0,1.702023491E1
1.400745467E1,1.221280334E1,-1.561148575E1,1.263073425E0,1.986117840E1
1.401738867E1,1.290436523E1,-1.693817688E1,1.515747986E0,2.134764554E1
1.402732167E1,1.284823196E1,-1.781026337E1,1.723665619E0,2.202847178E1
1.403725467E1,1.308548859E1,-1.890733200E1,1.610051880E0,2.305015145E1
1.404718767E1,1.385967865E1,-2.018088364E1,1.873504028E0,2.455338620E1
1.405712167E1,1.483100876E1,-2.110730713E1,2.702180786E0,2.593798404E1
1.406705467E1,1.573048828E1,-2.192221252E1,3.236569519E0,2.717548612E1
1.407698767E1,1.703158264E1,-2.313035019E1,3.429667969E0,2.892836894E1
1.408692067E1,1.704909622E1,-2.436498276E1,3.720363464E0,2.996940392E1
1.409685367E1,1.532632874E1,-2.419433762E1,4.774172058E0,2.903541017E1
1.410678767E1,1.350461700E1,-2.266137543E1,6.739285583E0,2.722738671E1
1.411672067E1,1.156884247E1,-1.946716782E1,9.052724762E0,2.438771339E1
1.412665367E1,1.047536636E1,-1.528546371E1,1.071067703E1,2.140320779E1
1.413658667E1,9.856253815E0,-1.118264557E1,1.130269592E1,1.870690344E1
1.414652067E1,9.104067993E0,-6.336024170E0,1.037028488E1,1.518459959E1
1.415645367E1,9.984537048E0,-1.495540009E0,6.631659393E0,1.207917738E1
1.416638667E1,1.054706726E1,1.399439850E0,9.559121704E-1,1.068236059E1
1.417631967E1,1.022852966E1,2.621947632E0,-5.385800171E0,1.185344979E1
1.418625367E1,8.809929657E0,2.653382263E0,-9.286987610E0,1.307300413E1
1.419618667E1,5.385650482E0,2.067500610E0,-8.349038086E0,1.014821299E1
1.420611967E1,2.211501160E0,2.049837341E0,-4.999303894E0,5.838288271E0
1.421605267E1,1.265169067E0,2.673141174E0,-2.447111206E0,3.838579133E0
1.422598667E1,1.494043121E0,2.666405182E0,-1.103954315E0,3.249707152E0
1.423591967E1,1.867516479E0,2.409838715E0,-5.701643372E-1,3.101616966E0
1.424585267E1,2.275717621E0,2.235301666E0,-4.954696655E-1,3.228150309E0
1.425578567E1,2.630779266E0,1.918111267E0,-2.576142883E-1,3.265963181E0
1.426571867E1,2.605781250E0,1.522933044E0,1.422042847E-1,3.021529917E0
1.427565267E1,2.411335602E0,1.157692566E0,4.284091187E-1,2.708934446E0
1.428558567E1,1.951791229E0,7.405101013E-1,4.282594299E-1,2.131020965E0
1.429551867E1,1.597178650E0,5.050497437E-1,3.276686096E-1,1.706874805E0
1.430545167E1,1.328038330E0,3.857478333E-1,3.701802063E-1,1.431614677E0
1.431538567E1,1.255139923E0,3.495231628E-1,4.596940613E-1,1.381615467E0
1.432531867E1,1.295106812E0,3.923341370E-1,5.408253479E-1,1.457298798E0
1.433525167E1,1.198108521E0,2.918930054E-1,5.261558533E-1,1.340710832E0
1.434518467E1,1.033301239E0,6.825805664E-2,2.392025757E-1,1.062821003E0
1.435511867E1,1.169517975E0,-1.904040527E-1,-9.116043091E-2,1.188417528E0
1.436505167E1,1.455423431E0,-6.107299805E-1,-3.517684937E-1,1.617092931E0
1.437498467E1,1.858684845E0,-1.219364319E0,-5.659730530E-1,2.293879725E0
1.438491767E1,2.731220398E0,-2.080673218E0,-7.602690125E-1,3.516642557E0
1.439485167E1,4.114643555E0,-3.496728516E0,-9.294172668E-1,5.479162194E0
1.440478467E1,5.761668549E0,-5.642216949E0,-8.692424011E-1,8.110919733E0
1.441471767E1,7.948321381E0,-8.345146179E0,-4.793032837E-1,1.153460052E1
1.442465067E1,1.084809128E1,-1.199934723E1,5.737568665E-1,1.618624772E1
1.443458467E1,1.317560120E1,-1.559726532E1,2.197879486E0,2.053537987E1
1.444451767E1,1.459884155E1,-1.736344254E1,3.783831482E0,2.299853674E1
1.445445067E1,1.563887878E1,-1.782493286E1,4.499792633E0,2.413609113E1
1.446438367E1,1.628343842E1,-1.867187164E1,4.125870209E0,2.511597026E1
1.447431667E1,1.693712906E1,-1.983465363E1,3.511996765E0,2.631755966E1
1.448425067E1,1.802177353E1,-2.076571747E1,3.517684937E0,2.771954997E1
1.449418367E1,1.886601791E1,-2.079311050E1,3.518583069E0,2.829594500E1
1.450411667E1,1.936747513E1,-2.010334488E1,2.959346008E0,2.807136080E1
1.451404967E1,1.909803543E1,-1.919907532E1,2.156864777E0,2.716599926E1
1.452398367E1,1.798105820E1,-1.782717819E1,2.108365631E0,2.540810780E1
1.453391667E1,1.593885498E1,-1.575159439E1,2.751428375E0,2.257720492E1
1.454384967E1,1.338456665E1,-1.354443420E1,3.489543457E0,1.935911248E1
1.455378267E1,1.080917221E1,-1.097472794E1,4.159550171E0,1.595571104E1
1.456371667E1,8.356522522E0,-8.097261658E0,4.597689056E0,1.251142916E1
1.457364967E1,6.091881866E0,-5.442981262E0,4.468956757E0,9.311747644E0
1.458358267E1,4.199666748E0,-3.432212677E0,3.614533539E0,6.517832259E0
1.459351567E1,2.658022614E0,-2.039508820E0,2.094444580E0,3.951123706E0
1.460344967E1,1.586850128E0,-1.005908203E0,4.483177185E-1,1.931562430E0
1.461338267E1,9.602531433E-1,-1.698966980E-1,-6.237528992E-1,1.157591753E0
1.462331567E1,6.481521606E-1,5.075944519E-1,-1.025068359E0,1.314731338E0
1.463324867E1,6.021977234E-1,9.060658264E-1,-1.271455994E0,1.673379133E0
1.464318167E1,7.584727478E-1,1.043480072E0,-1.474134521E0,1.958878291E0
1.465311567E1,9.274713135E-1,9.415420532E-1,-1.643432465E0,2.108927391E0
1.466304867E1,1.177601166E0,7.412585449E-1,-1.819017334E0,2.290203658E0
1.467298167E1,1.635049896E0,8.476872253E-1,-1.761087799E0,2.548213498E0
1.468291442E1,2.187251587E0,1.088985443E0,-1.554068298E0,2.895701482E0
1.469284842E1,2.832859039E0,1.347946930E0,-1.368753662E0,3.422796788E0
1.470278142E1,3.287912750E0,1.462758179E0,-1.374741211E0,3.852264936E0
1.471271442E1,3.494183807E0,1.489702148E0,-1.642234955E0,4.138292959E0
1.472264742E1,3.740571442E0,1.479972382E0,-2.011816406E0,4.497732564E0
1.473258142E1,3.940854950E0,1.332229614E0,-2.255809021E0,4.732213839E0
1.474251442E1,4.183350677E0,1.088237000E0,-2.325264587E0,4.908313158E0
1.475244742E1,4.268373871E0,6.914122009E-1,-2.252066803E0,4.875332934E0
1.476238042E1,3.980372772E0,1.330732727E-1,-1.997446289E0,4.455431245E0
1.477231442E1,4.111350403E0,-5.852828979E-1,-1.527723083E0,4.424895030E0
1.478224742E1,4.534221039E0,-1.667382660E0,-8.339158630E-1,4.902523945E0
1.479218042E1,5.292095032E0,-2.974464569E0,-1.384620667E-1,6.072304426E0
1.480211342E1,6.236930237E0,-4.289030914E0,5.635780334E-1,7.590303364E0
1.481204742E1,7.679181061E0,-5.752537537E0,1.268312531E0,9.678332839E0
1.482198042E1,9.245673523E0,-7.351512451E0,1.790576477E0,1.194710753E1
1.483191342E1,1.039797729E1,-9.079668732E0,2.076332245E0,1.395956560E1
1.484184642E1,1.069106781E1,-1.109971802E1,2.015558624E0,1.554236621E1
1.485177942E1,1.069825287E1,-1.340791809E1,1.612746277E0,1.722863409E1
1.486171342E1,1.085976700E1,-1.537497757E1,1.530716858E0,1.888564451E1
1.487164642E1,1.133338211E1,-1.690075470E1,1.850302277E0,2.043293121E1
1.488157942E1,1.263537460E1,-1.861738495E1,2.128723297E0,2.260068974E1
1.489151242E1,1.472472977E1,-2.052636520E1,2.271825714E0,2.536356693E1
1.490144642E1,1.652084473E1,-2.187042023E1,2.534080353E0,2.752589971E1
1.491137942E1,1.792028458E1,-2.209615082E1,3.098107452E0,2.861773489E1
1.492131242E1,1.884491180E1,-2.141072617E1,3.377576294E0,2.872208066E1
1.493124542E1,1.868115234E1,-2.013328262E1,3.131188660E0,2.764306178E1
1.494117942E1,1.756073227E1,-1.807311676E1,2.994373169E0,2.537682285E1
1.495111242E1,1.596984055E1,-1.544024185E1,3.181633759E0,2.244013522E1
1.496104542E1,1.434886139E1,-1.235620514E1,3.782334595E0,1.930988564E1
1.497097842E1,1.279030243E1,-9.001980286E0,4.580474854E0,1.629749168E1
1.498091142E1,1.111393845E1,-5.574258270E0,5.118306427E0,1.344578163E1
1.499084542E1,9.421857147E0,-2.723586273E0,5.198389893E0,1.110011584E1
1.500077842E1,7.888745270E0,-7.213499451E-1,4.748874664E0,9.236041265E0
1.501071142E1,6.231391754E0,3.508703613E-1,3.733236694E0,7.272579282E0
1.502064442E1,4.512665863E0,6.944059753E-1,2.410587158E0,5.163069174E0
1.503057842E1,2.896476746E0,6.309379578E-1,1.013392639E0,3.132830172E0
1.504051142E1,1.485361176E0,5.327421570E-1,-2.520758057E-1,1.598015719E0
1.505044442E1,4.189787292E-1,4.011657715E-1,-1.316063232E0,1.438227932E0
1.506037742E1,-7.050338745E-2,1.290316772E-1,-2.231559448E0,2.236398326E0
1.507031142E1,2.050735474E-1,-1.348695374E-1,-2.666105804E0,2.677380270E0
1.508024442E1,8.725355530E-1,-1.312770081E-1,-2.474204865E0,2.626831105E0
1.509017742E1,1.550475769E0,4.879852295E-2,-1.960473175E0,2.499962295E0
1.510011042E1,2.064506836E0,2.924917603E-1,-1.473984833E0,2.553501751E0
1.511004442E1,2.514770508E0,4.076023865E-1,-1.045126648E0,2.753633985E0
1.511997742E1,2.426603851E0,5.099894714E-1,-9.687854004E-1,2.662149632E0
1.512991042E1,2.080373840E0,6.565347290E-1,-1.287622375E0,2.533172822E0
1.513984342E1,2.292632446E0,7.116201782E-1,-1.615440674E0,2.893478077E0
1.514977742E1,2.487676849E0,7.276368713E-1,-1.798959045E0,3.155034892E0
1.515971042E1,2.404449921E0,7.586224365E-1,-1.779798889E0,3.086190452E0
1.516964342E1,2.449057159E0,6.589297485E-1,-1.442849579E0,2.917856112E0
1.517957642E1,2.577639771E0,1.740879822E-1,-9.270222473E-1,2.744795741E0
1.518950942E1,2.703527985E0,-5.162763977E-1,-3.213816833E-1,2.771081209E0
1.519944342E1,2.975512390E0,-1.260977783E0,5.062472534E-1,3.271089304E0
1.520937642E1,3.535348206E0,-2.255359955E0,1.260828094E0,4.378929429E0
1.521930942E1,4.332740021E0,-3.629951477E0,1.773811340E0,5.924153145E0
1.522924242E1,5.483546906E0,-5.343138885E0,2.191742249E0,7.963802729E0
1.523917642E1,6.945257263E0,-7.014413452E0,2.441572723E0,1.016857276E1
1.524910942E1,8.439599762E0,-8.779692535E0,2.557431793E0,1.244388615E1
1.525904242E1,9.671238556E0,-1.081845291E1,2.475552063E0,1.472073832E1
1.526897542E1,1.069735474E1,-1.277982422E1,2.451452179E0,1.684538285E1
1.527890942E1,1.140313705E1,-1.464943634E1,2.315983887E0,1.870832171E1
1.528884242E1,1.200129318E1,-1.664523605E1,2.204765167E0,2.063869935E1
1.529877542E1,1.293265640E1,-1.872276581E1,2.399659882E0,2.288130085E1
1.530870842E1,1.446501984E1,-2.075958023E1,2.831062775E0,2.546000563E1
1.531864142E1,1.625245285E1,-2.248968246E1,3.308869171E0,2.794417034E1
1.532857542E1,1.790247162E1,-2.312166824E1,3.754193115E0,2.948226583E1
1.533850842E1,1.917452637E1,-2.239388168E1,4.112098846E0,2.976672228E1
1.534844142E1,1.933364548E1,-2.086885300E1,4.075574799E0,2.873863572E1
1.535837442E1,1.843341751E1,-1.914892960E1,3.936813354E0,2.686951591E1
1.536830842E1,1.704490494E1,-1.724054810E1,4.035458221E0,2.457743286E1
1.537824142E1,1.518831573E1,-1.466814743E1,4.383035431E0,2.156502918E1
1.538817442E1,1.311572571E1,-1.159743301E1,4.620292053E0,1.810717571E1
1.539810742E1,1.115914444E1,-8.535849609E0,4.495002594E0,1.475100951E1
1.540804142E1,9.023385773E0,-5.550757141E0,4.008663940E0,1.132703766E1
1.541797442E1,6.871610413E0,-2.949765930E0,2.980152740E0,8.049935345E0
1.542790742E1,4.866080933E0,-1.095721436E0,1.554517365E0,5.224545276E0
1.543784042E1,3.043920135E0,1.363664246E-1,5.927673340E-2,3.047549725E0
1.544777442E1,1.577120361E0,9.888436890E-1,-1.023421783E0,2.124267550E0
1.545770742E1,7.954458618E-1,1.739233246E0,-1.453776855E0,2.402318369E0
1.546764042E1,4.125421143E-1,2.348616028E0,-1.477427673E0,2.805170364E0
1.547757342E1,5.234614563E-1,2.586471405E0,-1.498982849E0,3.034929292E0
1.548750642E1,1.211730194E0,2.302511902E0,-1.538350983E0,3.022643688E0
1.549744042E1,1.585802307E0,1.940714264E0,-1.366658020E0,2.854626938E0
1.550737342E1,1.207688599E0,1.733395386E0,-1.468596039E0,2.572925502E0
1.551730642E1,6.953041077E-1,1.189127197E0,-2.069296875E0,2.485852138E0
1.552723942E1,7.499404907E-1,5.683680725E-1,-2.550995178E0,2.719012579E0
1.553717342E1,9.090596008E-1,3.188369751E-1,-2.340233459E0,2.530758586E0
1.554710642E1,1.029708710E0,5.602848816E-1,-1.443448334E0,1.859505920E0
1.555703942E1,1.251996460E0,1.061293030E0,-2.935395813E-1,1.667334255E0
1.556697242E1,1.529968414E0,1.210083618E0,7.441026306E-1,2.087772602E0
1.557690642E1,1.556313629E0,1.139430542E0,1.368304596E0,2.364882986E0
1.558683942E1,1.306782532E0,1.151255951E0,1.567091217E0,2.342828575E0
1.559677242E1,9.234297180E-1,9.222322083E-1,1.275796967E0,1.825073311E0
1.560670542E1,4.926255798E-1,3.245251465E-1,6.704557800E-1,8.930327461E-1
1.561663842E1,2.257305908E-1,-3.785627747E-1,8.352630615E-2,4.485986155E-1
1.562657242E1,4.102967834E-1,-1.280587006E0,-3.620970154E-1,1.392609341E0
1.563650542E1,9.734257507E-1,-2.450104980E0,-4.451742554E-1,2.673715061E0
1.564643842E1,2.311792603E0,-4.004472656E0,-4.742138672E-1,4.648124900E0
1.565637142E1,4.336931305E0,-6.351591797E0,-6.520440674E-1,7.718604340E0
1.566630542E1,6.658004608E0,-9.574988708E0,-1.016685791E0,1.170654023E1
1.567623854E1,8.985813904E0,-1.374651398E1,-1.065933380E0,1.645745156E1
1.568617154E1,1.040052200E1,-1.797222656E1,-3.607498169E-1,2.076780985E1
1.569610454E1,1.076995377E1,-2.055824890E1,7.852670288E-1,2.322176019E1
1.570603854E1,1.138292908E1,-2.132270920E1,1.870809631E0,2.424312130E1
1.571597154E1,1.398811157E1,-2.179033676E1,2.721041565E0,2.603632287E1
1.572590454E1,1.680091232E1,-2.257904663E1,3.089575195E0,2.831306194E1
1.573583754E1,1.882006348E1,-2.329575623E1,2.892135773E0,3.008739764E1
1.574577154E1,2.036679703E1,-2.369722137E1,2.613415375E0,3.135593504E1
1.575570454E1,2.131717072E1,-2.358510452E1,2.341580658E0,3.187729478E1
1.576563754E1,2.142075531E1,-2.332210144E1,2.193388824E0,3.174240268E1
1.577557054E1,2.040047699E1,-2.229703308E1,2.603236542E0,3.033338072E1
1.578550354E1,1.842039459E1,-1.988779312E1,3.541784821E0,2.733824230E1
1.579543754E1,1.624901001E1,-1.632400406E1,4.477638702E0,2.346385908E1
1.580537054E1,1.450049606E1,-1.232013016E1,4.774920502E0,1.961759055E1
1.581530354E1,1.289418640E1,-8.651109924E0,4.395908661E0,1.613771232E1
1.582523654E1,1.110929810E1,-5.626649323E0,3.296744385E0,1.288193349E1
1.583517054E1,9.012159119E0,-3.297792206E0,1.725461884E0,9.750469944E0
1.584510354E1,6.828799438E0,-1.793270874E0,1.225950623E-1,7.061398710E0
1.585503654E1,4.637506256E0,-7.732919312E-1,-1.367256775E0,4.896308382E0
1.586496954E1,2.303110657E0,-1.437011719E-2,-2.819387054E0,3.640531357E0
1.587490354E1,6.137237549E-2,2.266287231E-1,-4.179458771E0,4.186048586E0
1.588483654E1,-1.799408112E0,3.764671326E-1,-5.062322845E0,5.385787746E0
1.589476954E1,-3.112178192E0,1.092877350E0,-5.528603210E0,6.437816979E0
1.590470254E1,-3.585493927E0,1.929487610E0,-5.509293365E0,6.850620594E0
1.591463654E1,-3.322191467E0,2.265688477E0,-4.923112335E0,6.356676449E0
1.592456954E1,-2.630479889E0,1.971849518E0,-4.000880127E0,5.178287049E0
1.593450254E1,-1.756746826E0,1.474284210E0,-2.945724335E0,3.733224504E0
1.594443554E1,-9.623487854E-1,1.181343384E0,-2.038610687E0,2.545117072E0
1.595436854E1,-2.561174011E-1,1.009051666E0,-1.295406189E0,1.661884046E0
1.596430254E1,1.383123779E-1,9.074130249E-1,-6.089337158E-1,1.101512134E0
1.597423554E1,3.201841736E-1,9.096583557E-1,1.212478638E-2,9.644393395E-1
1.598416854E1,2.968327332E-1,8.208929443E-1,4.255650330E-1,9.711233160E-1
1.599410154E1,1.236428833E-1,3.267704773E-1,5.192701721E-1,6.258658156E-1
1.600403554E1,3.269201660E-1,-2.308200073E-1,5.694158936E-1,6.959806970E-1
1.601396854E1,7.569758606E-1,-5.553451538E-1,7.071295166E-1,1.175352222E0
1.602390154E1,1.234482880E0,-8.131091309E-1,1.074615326E0,1.827537288E0
1.603383454E1,1.851350098E0,-9.319619751E-1,1.431622925E0,2.519046349E0
1.604376854E1,2.515818329E0,-1.160087585E0,1.496438141E0,3.148725485E0
1.605370154E1,3.129392395E0,-1.602567444E0,1.399589539E0,3.784200054E0
1.606363454E1,4.206253052E0,-2.375410309E0,1.118474121E0,4.958439596E0
1.607356754E1,5.653593292E0,-3.821403351E0,7.247927856E-1,6.862329434E0
1.608350054E1,7.680228882E0,-5.919290771E0,2.360591125E-1,9.699466110E0
1.609343454E1,9.997859344E0,-8.736731873E0,-2.095642090E-3,1.327733707E1
1.610336754E1,1.172227341E1,-1.192046127E1,-1.246907043E-1,1.671899036E1
1.611330054E1,1.340657089E1,-1.522169632E1,-2.171983337E-1,2.028505255E1
1.612323354E1,1.479867599E1,-1.816622314E1,-1.064286804E-1,2.343125694E1
1.613316754E1,1.599274292E1,-2.051109695E1,3.912863159E-1,2.601203624E1
1.614310054E1,1.711735428E1,-2.212548981E1,1.166973267E0,2.799826679E1
1.615303354E1,1.802087540E1,-2.314142715E1,1.805245972E0,2.938599180E1
1.616296654E1,1.923305466E1,-2.440405151E1,1.860930176E0,3.112765945E1
1.617290054E1,1.980276993E1,-2.566068832E1,1.614991608E0,3.245348702E1
1.618283354E1,1.921688828E1,-2.606484787E1,1.858235779E0,3.243637048E1
1.619276654E1,1.817056412E1,-2.510339722E1,2.821931763E0,3.111773210E1
1.620269954E1,1.735026993E1,-2.261302597E1,4.089196472E0,2.879413721E1
1.621263254E1,1.616503464E1,-1.906719955E1,5.380261688E0,2.556978020E1
1.622256654E1,1.475811035E1,-1.508158768E1,6.560257874E0,2.209735485E1
1.623249954E1,1.332154770E1,-1.135972733E1,7.121440887E0,1.890031635E1
1.624243254E1,1.154459290E1,-8.251590729E0,6.719676361E0,1.570096892E1
1.625236554E1,9.571695557E0,-5.670957184E0,5.463787994E0,1.239476061E1
1.626229954E1,7.398514709E0,-3.733536072E0,3.625311127E0,9.045451469E0
1.627223254E1,5.489534454E0,-2.408341827E0,1.557211761E0,6.193545620E0
1.628216554E1,3.626658325E0,-1.257834320E0,-4.284091187E-1,3.862425683E0
1.629209854E1,2.077080688E0,-4.592449951E-1,-1.867516479E0,2.830686834E0
1.630203254E1,1.075663147E0,-1.197509766E-2,-2.689606934E0,2.896753366E0
1.631196554E1,7.330256653E-1,4.070036316E-1,-3.017425232E0,3.131746096E0
1.632189854E1,7.840695190E-1,8.339158630E-1,-2.840193787E0,3.062169398E0
1.633183154E1,8.077203369E-1,9.851014709E-1,-2.530936890E0,2.833457003E0
1.634176554E1,5.158273315E-1,8.551716614E-1,-2.506387939E0,2.698032044E0
1.635169854E1,3.882925415E-1,5.969586182E-1,-2.710114288E0,2.802115298E0
1.636163154E1,4.799020386E-1,4.293072510E-1,-3.050356750E0,3.117577102E0
1.637156454E1,5.538482666E-1,3.992198181E-1,-3.290906525E0,3.360980529E0
1.638149754E1,5.804928589E-1,5.730084229E-1,-3.222947845E0,3.324560637E0
1.639143154E1,5.780978394E-1,8.592132568E-1,-2.982398071E0,3.157078204E0
1.640136454E1,5.427713013E-1,1.155147858E0,-2.681523743E0,2.969770503E0
1.641129754E1,6.457571411E-1,1.396895142E0,-2.350561981E0,2.809530201E0
1.642123054E1,1.016087036E0,1.579216003E0,-1.905986481E0,2.675657025E0
1.643116454E1,1.419198761E0,1.650617523E0,-1.388662262E0,2.582062394E0
1.644109754E1,1.636696472E0,1.509011993E0,-7.987390137E-1,2.365137744E0
1.645103054E1,1.772913208E0,1.105301514E0,-4.040098572E-1,2.127941880E0
1.646096354E1,2.195634155E0,3.897894287E-1,-2.245330811E-1,2.241240783E0
1.647089754E1,2.567311249E0,-4.999603271E-1,2.495310974E-1,2.627415678E0
1.648083054E1,2.914439392E0,-1.525477753E0,8.523275757E-1,3.398161509E0
1.649076354E1,3.296295319E0,-2.610720978E0,1.426234131E0,4.440221914E0
1.650069654E1,4.082909546E0,-4.004772034E0,1.926793213E0,6.034971540E0
1.651062954E1,5.616919556E0,-6.032305756E0,2.108365631E0,8.507861286E0
1.652056354E1,7.658823395E0,-8.619076538E0,2.091899872E0,1.171845132E1
1.653049654E1,9.605824585E0,-1.136451736E1,1.838626556E0,1.499348754E1
1.654042954E1,1.115764755E1,-1.403137161E1,1.507066040E0,1.799010106E1
1.655036254E1,1.172272247E1,-1.650033737E1,1.751507721E0,2.031627758E1
1.656029654E1,1.187465652E1,-1.860091919E1,2.275867310E0,2.218515797E1
1.657022954E1,1.285930893E1,-2.104548569E1,2.691852264E0,2.480968284E1
