"Time (s)","Acceleration x (m/s^2)","Acceleration y (m/s^2)","Acceleration z (m/s^2)","Absolute acceleration (m/s^2)"
-1.229749992E-3,-4.177063751E0,5.200335846E0,6.744824066E0,9.485989995E0
8.703249972E-3,-3.976181488E0,5.031187592E0,6.474635925E0,9.112835902E0
1.863724994E-2,-3.805236969E0,5.040168915E0,6.545289001E0,9.095270155E0
2.857025003E-2,-4.004173279E0,5.131329346E0,6.951244812E0,9.522801528E0
3.850425000E-2,-4.185895386E0,5.375321960E0,7.237000580E0,9.939315054E0
4.843724996E-2,-4.432432709E0,5.432353363E0,7.064858551E0,9.953348639E0
5.837025004E-2,-4.365072784E0,5.536686401E0,6.585255890E0,9.647504955E0
6.830425002E-2,-3.100502472E0,5.536237335E0,5.839656372E0,8.623492677E0
7.823724998E-2,-2.725981293E0,5.189857635E0,5.883964233E0,8.305819128E0
8.817124995E-2,-3.328628082E0,5.185816040E0,6.203699341E0,8.744045884E0
9.810425004E-2,-3.605851593E0,5.126539307E0,6.873256989E0,9.301894033E0
1.080382500E-1,-3.162174225E0,4.787344666E0,6.846313019E0,8.932525775E0
1.179712500E-1,-2.336790619E0,4.971461792E0,7.270680542E0,9.112563761E0
1.279052499E-1,-2.658920746E0,4.896467743E0,7.265441437E0,9.155975926E0
1.378389583E-1,-3.172802124E0,4.455035706E0,6.839726715E0,8.757618283E0
1.477729583E-1,-3.176394653E0,4.064647522E0,6.463858337E0,8.269964152E0
1.577059584E-1,-2.917882233E0,3.662433929E0,5.947132874E0,7.569402118E0
1.676389583E-1,-2.988834686E0,2.885699158E0,5.489384766E0,6.884310969E0
1.775729583E-1,-3.201392670E0,2.033371582E0,5.546715546E0,6.719342852E0
1.875059584E-1,-4.014352112E0,1.113983459E0,7.269782410E0,8.378885267E0
1.974399583E-1,-5.174439697E0,3.938310242E-1,1.244062958E1,1.347958432E1
2.073729583E-1,-4.839436340E0,8.961863708E-1,1.537407944E1,1.614266436E1
2.173069583E-1,-4.426744537E0,2.061962128E0,1.504117172E1,1.581406342E1
2.272399584E-1,-5.432503052E0,2.722239075E0,1.374831024E1,1.503125775E1
2.371739583E-1,-6.608607330E0,1.937570801E0,1.126602219E1,1.320420870E1
2.471069583E-1,-6.925198975E0,1.209335175E0,9.169631653E0,1.155435057E1
2.570409583E-1,-6.458768921E0,9.095086670E-1,8.532107391E0,1.073963493E1
2.669739584E-1,-5.993686066E0,9.053173828E-1,8.267906799E0,1.025193421E1
2.769069583E-1,-7.841892700E0,7.126679993E-1,7.653434601E0,1.098081226E1
2.868409583E-1,-7.388186188E0,1.834285583E0,5.943839722E0,9.658112102E0
2.967739584E-1,-4.515060883E0,2.537523193E0,2.945574646E0,5.958289077E0
3.067079583E-1,1.254241791E0,4.336033173E0,-1.766775970E0,4.847246999E0
3.166409583E-1,3.042722626E0,3.632496185E0,4.281247101E0,6.386099455E0
3.265749583E-1,6.270460510E-1,1.009351044E0,1.148217270E1,1.154349454E1
3.365079584E-1,-6.348298645E-1,1.062490540E0,1.462368988E1,1.467597359E1
3.464419583E-1,3.420536957E0,2.058070221E0,1.367241806E1,1.424327005E1
3.563749583E-1,7.311844940E0,3.102598114E0,1.130808472E1,1.381889907E1
3.663079584E-1,7.907156982E0,2.674039307E0,9.407187653E0,1.257651769E1
3.762419584E-1,6.409221954E0,1.609153748E0,7.347770233E0,9.882167234E0
3.861749583E-1,4.902155914E0,8.279283142E-1,5.860762482E0,7.685384491E0
3.961089583E-1,3.857777710E0,6.002517700E-2,4.915029144E0,6.248484886E0
4.060419584E-1,3.281476135E0,-9.857002258E-1,3.481759644E0,4.884909495E0
4.159759583E-1,2.323767700E0,-1.897753601E0,1.808389435E0,3.503089694E0
4.259089583E-1,1.918560333E0,-2.506687317E0,9.363029480E-1,3.292570161E0
4.358429583E-1,2.910846863E0,-2.753074951E0,1.008003845E0,4.131406891E0
4.457759584E-1,3.946543121E0,-3.010539551E0,2.090702362E0,5.386054898E0
4.557099583E-1,3.140169983E0,-3.638932800E0,3.011587372E0,5.672050594E0
4.656429583E-1,1.450334015E0,-4.938230896E0,3.478466492E0,6.212030447E0
4.755769583E-1,-1.152603149E-1,-6.582262115E0,2.807112579E0,7.156768861E0
4.855099584E-1,-2.580633545E0,-7.137307892E0,2.009421387E0,7.851025904E0
4.954429583E-1,-4.184548187E0,-8.396190033E0,1.639241180E0,9.523316767E0
5.053769583E-1,-4.558620300E0,-1.006447083E1,2.420466614E0,1.131075818E1
5.153099584E-1,-4.996160431E0,-1.103834564E1,3.400029602E0,1.258439092E1
5.252439583E-1,-5.741161194E0,-1.127934448E1,4.674479370E0,1.349204585E1
5.351769583E-1,-6.458020477E0,-1.158560760E1,6.500981140E0,1.477142809E1
5.451109583E-1,-7.727380829E0,-1.184127594E1,8.221203918E0,1.635592933E1
5.550439584E-1,-9.319320374E0,-1.246592697E1,9.141939240E0,1.805059890E1
5.649779583E-1,-1.050575317E1,-1.297367111E1,9.383087769E0,1.915017827E1
5.749109583E-1,-1.142035126E1,-1.377959518E1,8.916058960E0,1.999494370E1
5.848439584E-1,-1.223989700E1,-1.445394287E1,8.329578552E0,2.069090191E1
5.947779584E-1,-1.304836578E1,-1.480137039E1,9.044940948E0,2.170602156E1
6.047109583E-1,-1.305061111E1,-1.491752884E1,1.026146118E1,2.231924512E1
6.146449583E-1,-1.287083496E1,-1.489866806E1,1.076187057E1,2.243761487E1
6.245779584E-1,-1.318054092E1,-1.472562790E1,1.073507629E1,2.249027877E1
6.345119583E-1,-1.370984024E1,-1.486034775E1,1.041803558E1,2.274478226E1
6.444449583E-1,-1.386910904E1,-1.513831970E1,9.912985840E0,2.279886395E1
6.543789583E-1,-1.351374802E1,-1.515373764E1,9.677525482E0,2.249247984E1
6.643119584E-1,-1.348126556E1,-1.515703079E1,9.989476776E0,2.261127484E1
6.742459583E-1,-1.363140335E1,-1.485615646E1,1.122725281E1,2.307751607E1
6.841789583E-1,-1.331556015E1,-1.373513763E1,1.297456924E1,2.311487822E1
6.941119584E-1,-1.259570709E1,-1.234677475E1,1.430904419E1,2.271218681E1
7.040459584E-1,-1.238644226E1,-1.121138580E1,1.532153870E1,2.266867159E1
7.139789583E-1,-1.263462616E1,-1.015278717E1,1.550685333E1,2.243157074E1
7.239129583E-1,-1.196222443E1,-9.561367035E0,1.445708633E1,2.105995959E1
7.338459584E-1,-8.800798645E0,-9.078920288E0,1.299657349E1,1.813261627E1
7.437799583E-1,-5.331463165E0,-7.865543518E0,1.295570847E1,1.606678736E1
7.537129583E-1,-4.264182587E0,-8.055199127E0,1.371702530E1,1.646894864E1
7.636469583E-1,-5.784570923E0,-8.250842285E0,1.432476151E1,1.751389310E1
7.735799584E-1,-7.360493774E0,-7.402705994E0,1.396356262E1,1.743439146E1
7.835139583E-1,-7.918084259E0,-6.371500397E0,1.275841873E1,1.631163156E1
7.934469583E-1,-4.992118835E0,-7.361391907E0,1.158830200E1,1.460821976E1
8.033799584E-1,3.416345673E0,-8.509953461E0,1.480960327E1,1.741881381E1
8.133139584E-1,3.215613098E0,-6.683002625E0,1.657697800E1,1.816036594E1
8.232469583E-1,-4.324507141E-1,-4.550537109E0,7.350015564E0,8.655468237E0
8.331809583E-1,-5.821843414E0,-6.054908752E0,3.716920624E0,9.185384024E0
8.431139584E-1,-8.872798920E0,-6.845564575E0,2.349514160E0,1.145026339E1
8.530479583E-1,-7.333250427E0,-8.306077423E0,1.018482056E0,1.112676007E1
8.629809583E-1,-5.035079498E0,-1.055215668E1,-9.030720520E-1,1.172670351E1
8.729149583E-1,-5.521118774E0,-1.118129837E1,-2.795287170E0,1.277958591E1
8.828479584E-1,-7.904761963E0,-1.148935776E1,-2.416574707E0,1.415381350E1
8.927819583E-1,-9.442514191E0,-1.036070480E1,3.736230469E-1,1.402301225E1
9.027149583E-1,-5.697003021E0,-6.489305420E0,3.366649017E0,9.268292931E0
9.126479584E-1,-6.261479187E-1,-3.295546875E0,4.741390228E0,5.808052317E0
9.225819584E-1,-7.203021240E-1,-2.552791443E0,4.478387146E0,5.204952519E0
9.325149583E-1,-4.936434631E0,-1.905088348E0,4.151616669E0,6.725598074E0
9.424489583E-1,-9.217981110E0,-2.912194061E0,3.084336090E0,1.014717592E1
9.523819584E-1,-1.087802902E1,-3.697311401E0,2.181713104E0,1.169450722E1
9.623159583E-1,-9.649833069E0,-3.898642731E0,1.389710083E0,1.049999941E1
9.722489583E-1,-8.675359497E0,-2.335144043E0,2.062261505E0,9.217791635E0
9.821829583E-1,-8.290809174E0,-3.192561035E0,2.735112305E0,9.295741070E0
9.921159584E-1,-6.828649750E0,-3.988755341E0,1.871558075E0,8.126706356E0
1.002049958E0,-6.821913757E0,-3.717669067E0,1.093176727E0,7.845674347E0
1.011982958E0,-7.471263428E0,-3.068319397E0,2.122735748E0,8.351069883E0
1.021915958E0,-7.449259186E0,-3.276237030E0,1.973645782E0,8.373796580E0
1.031849958E0,-7.612868958E0,-4.410877533E0,7.777825928E-1,8.832698350E0
1.041782958E0,-8.729546814E0,-4.265679474E0,-4.640350342E-3,9.716019271E0
1.051716958E0,-8.234526215E0,-3.203937378E0,4.234693909E-1,8.846013963E0
1.061649958E0,-4.844226379E0,-1.122366028E0,5.454656982E-1,5.002376190E0
1.071583958E0,-1.011521530E1,-5.080285492E0,-2.483186188E0,1.158848976E1
1.081516958E0,-1.152842651E1,-7.510781250E0,-4.432283020E-1,1.376636859E1
1.091450958E0,-7.964188385E0,-5.242997131E0,2.348017273E0,9.819903292E0
1.101383958E0,-8.926986237E0,-5.328768768E0,4.949008484E0,1.151431912E1
1.111317958E0,-9.366322632E0,-6.292614441E0,5.059179382E0,1.236609446E1
1.121250958E0,-9.525741119E0,-7.911198578E0,4.522096252E0,1.318241864E1
1.131183333E0,-7.736960907E0,-8.217461700E0,4.045936432E0,1.198986416E1
1.141117333E0,-6.794670410E0,-8.576265564E0,3.130589905E0,1.138070605E1
1.151050333E0,-5.697601776E0,-8.026009827E0,1.760788422E0,9.998993730E0
1.160984333E0,-6.045328674E0,-7.978857880E0,2.541714478E-1,1.001362946E1
1.170917333E0,-6.832990723E0,-6.501879272E0,1.137634277E-2,9.432090209E0
1.180851333E0,-5.995632019E0,-4.941973114E0,-2.903961182E-2,7.769912797E0
1.190784333E0,-5.108576660E0,-4.577930145E0,1.204994202E-1,6.860722995E0
1.200718333E0,-5.524262238E0,-5.582790527E0,7.140151978E-1,7.886370588E0
1.210651333E0,-6.960525513E0,-6.056555328E0,1.298849030E0,9.317606273E0
1.220585333E0,-6.548432465E0,-4.667593689E0,5.653742981E-1,8.061516401E0
1.230518333E0,-4.961282959E0,-3.408861237E0,6.346801758E-2,6.019858114E0
1.240451333E0,-3.495680695E0,-2.684367828E0,1.092727661E-1,4.408804225E0
1.250385333E0,-3.394640808E0,-2.620301056E0,9.131011963E-2,4.289277489E0
1.260318333E0,-4.115391998E0,-2.699636078E0,5.424719238E-1,4.951642358E0
1.270252333E0,-5.254523163E0,-2.805915070E0,3.146456909E-1,5.965079627E0
1.280185333E0,-6.676865387E0,-3.609893188E0,-5.743556213E-1,7.611947491E0
1.290119333E0,-7.379055176E0,-4.983287201E0,-8.267308044E-1,8.942432020E0
1.300052333E0,-7.295229492E0,-6.367458801E0,-1.079854431E0,9.743253590E0
1.309986333E0,-6.688840485E0,-8.047115936E0,-1.117126923E0,1.052352766E1
1.319919333E0,-5.880521393E0,-1.013542328E1,-3.841012573E-1,1.172411492E1
1.329853333E0,-5.220693512E0,-1.097517700E1,-6.456074524E-1,1.217074196E1
1.339786333E0,-4.296066284E0,-9.830207977E0,-2.033072205E0,1.091890823E1
1.349719333E0,-3.983815613E0,-7.550598450E0,-3.482358398E0,9.220040336E0
1.359653333E0,-3.904031525E0,-6.844516754E0,-4.188140717E0,8.923530378E0
1.369586333E0,-3.801345062E0,-7.190896454E0,-4.220024414E0,9.163395776E0
1.379520333E0,-3.865411835E0,-7.307803345E0,-3.087479553E0,8.824847215E0
1.389453333E0,-3.678001556E0,-7.032974854E0,-8.599617004E-1,7.983104964E0
1.399387333E0,-3.620371399E0,-6.699169006E0,-5.677693176E-1,7.635988243E0
1.409320333E0,-3.814367981E0,-7.336842957E0,-6.390211487E-1,8.293793806E0
1.419254333E0,-4.025878143E0,-9.413025513E0,-3.787124634E-1,1.024481172E1
1.429187333E0,-4.195924530E0,-1.361763199E1,-2.771786041E0,1.451648999E1
1.439121333E0,-3.520079956E0,-1.572914108E1,-5.078788605E0,1.689943596E1
1.449054333E0,-1.952240295E0,-1.582179840E1,-6.313720551E0,1.714653359E1
1.458987333E0,-5.304968262E-1,-1.546673676E1,-6.171216888E0,1.666089105E1
1.468921333E0,2.239343262E-1,-1.508967087E1,-5.262756042E0,1.598264417E1
1.478854333E0,1.226848755E0,-1.335417984E1,-4.831951904E0,1.425436902E1
1.488788333E0,1.543290710E0,-1.172257278E1,-3.255130920E0,1.226361840E1
1.498721333E0,1.501976624E0,-1.083117645E1,-8.752299500E-1,1.096979237E1
1.508655333E0,1.587897949E0,-1.042507095E1,3.269201660E-1,1.055037445E1
1.518588333E0,2.572700043E0,-9.929002533E0,1.441502380E-1,1.025790700E1
1.528522333E0,3.265309753E0,-1.002480331E1,3.957769775E-1,1.055061935E1
1.538455333E0,4.133504333E0,-9.663903809E0,-9.222322083E-1,1.055118037E1
1.548389333E0,4.316274261E0,-9.075627136E0,-2.139500885E0,1.027495477E1
1.558322333E0,3.873794403E0,-8.550968170E0,-1.352437592E0,9.484430777E0
1.568255333E0,3.111579437E0,-8.229586487E0,1.088686066E0,8.865283847E0
1.578189333E0,1.361119537E0,-8.956774292E0,3.433110809E0,9.688276521E0
1.588122333E0,1.898052979E-1,-1.014575180E1,3.315156097E0,1.067532508E1
1.598056333E0,-2.335144043E-1,-9.851314087E0,9.639953613E-1,9.901121415E0
1.607989333E0,-1.265767822E0,-9.995314636E0,-1.582359467E0,1.019864424E1
1.617923333E0,-2.516566772E0,-1.068418213E1,-2.697690125E0,1.130320256E1
1.627856333E0,-3.198099518E0,-1.102232895E1,-1.140328674E0,1.153342644E1
1.637790333E0,-4.403542786E0,-1.112651230E1,1.092428284E0,1.201598371E1
1.647723333E0,-5.477409668E0,-1.139864639E1,1.110091553E0,1.269501711E1
1.657656333E0,-6.015241241E0,-1.254316635E1,-2.848576355E-1,1.391385256E1
1.667590333E0,-5.757926331E0,-1.386282211E1,-1.535806274E-1,1.501183332E1
1.677523333E0,-5.945336609E0,-1.519505173E1,1.005908203E0,1.634773610E1
1.687457333E0,-6.167175293E0,-1.579814758E1,1.688488770E0,1.704307814E1
1.697390333E0,-6.775959320E0,-1.684566925E1,1.434017944E0,1.821391239E1
1.707324333E0,-7.604935455E0,-1.806308762E1,8.783734131E-1,1.961840252E1
1.717257333E0,-5.795049133E0,-1.663909882E1,7.315287781E-1,1.763454956E1
1.727191333E0,-2.377805328E0,-1.300286041E1,2.202220459E0,1.340067581E1
1.737124333E0,1.335223389E-1,-9.913135529E0,4.356091461E0,1.082883267E1
1.747058333E0,2.111509094E0,-9.265881500E0,3.635939026E0,1.017521908E1
1.756991333E0,3.206931152E0,-1.189980423E1,1.043929138E0,1.236848965E1
1.766924333E0,5.419629822E0,-1.331660797E1,-4.694238281E-1,1.438488074E1
1.776858333E0,6.752907257E0,-1.165326691E1,-2.829116821E-1,1.347146707E1
1.786791333E0,6.666536865E0,-1.195114746E1,-4.351451111E-1,1.369167596E1
1.796725333E0,5.820496216E0,-1.260019775E1,-2.599793701E0,1.412098038E1
1.806658333E0,3.087928619E0,-1.499297195E1,-7.178621979E0,1.690730980E1
1.816592333E0,1.265917511E0,-1.628777939E1,-1.386521713E1,2.142751854E1
1.826525333E0,6.673123169E-1,-1.715821930E1,-8.573870544E0,1.919273434E1
1.836459333E0,-1.536704407E0,-1.596115860E1,6.713688812E0,1.738371829E1
1.846392333E0,-3.698059845E0,-1.369172791E1,1.421129745E1,2.007735129E1
1.856326333E0,-1.295106812E0,-1.326242065E1,6.507417755E0,1.482955121E1
1.866259333E0,-8.490344238E-1,-1.312395859E1,-5.104385376E-2,1.315149246E1
1.876192333E0,-2.269281006E0,-1.197330139E1,-1.358425140E0,1.226192894E1
1.886126333E0,-1.825753326E0,-1.097936829E1,3.507206726E-1,1.113565931E1
1.896059333E0,9.360035706E-1,-1.023571472E1,9.262738037E-1,1.032007469E1
1.905993333E0,1.122216339E0,-9.663454742E0,6.824308777E-1,9.752304290E0
1.915926333E0,-2.733016663E0,-8.292156372E0,1.202898560E0,8.813410368E0
1.925860333E0,-5.915548553E0,-6.714886322E0,1.065634003E0,9.012157834E0
1.935793333E0,-7.840096436E0,-5.514532471E0,9.711804199E-1,9.634332976E0
1.945727333E0,-5.992488556E0,-5.309458923E0,6.750961304E-1,8.034676592E0
1.955660333E0,-5.156626740E0,-5.611231384E0,5.059478760E-1,7.637584712E0
1.965594333E0,-3.102298737E0,-5.575605469E0,-1.293310547E-1,6.381877491E0
1.975527333E0,-3.263064423E0,-5.057532806E0,-4.462220764E-1,6.035341055E0
1.985460333E0,-2.274520111E0,-5.520969086E0,-2.754272461E-1,5.977491242E0
1.995394333E0,-2.686463470E0,-6.202501831E0,-4.619393921E-1,6.775064793E0
2.005327333E0,-3.870201874E0,-7.017407227E0,-2.269281006E-1,8.017104408E0
2.015261333E0,-2.509681091E0,-5.901178436E0,7.948471069E-2,6.413168011E0
2.025194333E0,7.529342651E-2,-5.488486633E0,-5.209167480E-2,5.489250237E0
2.035128333E0,7.095245361E-2,-6.016887817E0,-8.647517395E-1,6.079125663E0
2.045061333E0,-5.104385376E-2,-6.320306854E0,-7.987390137E-1,6.370782387E0
2.054995333E0,4.631369019E-1,-6.223458252E0,-2.345622253E-1,6.245073886E0
2.064928333E0,6.384223938E-1,-6.022575989E0,2.079176331E-1,6.059887329E0
2.074861333E0,3.230282593E-1,-5.720504150E0,5.210664368E-1,5.753262137E0
2.084795333E0,-3.746708679E-1,-5.493276672E0,8.152047729E-1,5.566060158E0
2.094728333E0,-7.420069885E-1,-4.967120819E0,1.188977509E0,5.161059108E0
2.104662333E0,-1.697769470E0,-4.657265167E0,1.406175842E0,5.152656646E0
2.114595333E0,-2.441123657E0,-4.630919952E0,1.855840759E0,5.554156033E0
2.124529333E0,-2.888842621E0,-5.121749268E0,2.759960632E0,6.495776315E0
2.134463333E0,-3.978576508E0,-6.283333740E0,3.732937317E0,8.321308487E0
2.144397333E0,-4.541555786E0,-7.299720154E0,4.717889099E0,9.806636571E0
2.154330333E0,-4.441264343E0,-8.076903992E0,4.502936096E0,1.025853988E1
2.164264333E0,-4.313280487E0,-9.460476837E0,3.057541809E0,1.083759994E1
2.174197333E0,-2.726130981E0,-1.046907944E1,8.652157745E0,1.385255385E1
2.184131333E0,-2.899470520E0,-1.104762634E1,1.356628876E1,1.773418077E1
2.194064333E0,-3.925437012E0,-1.146406036E1,1.303055283E1,1.779407325E1
2.203997333E0,-3.123554535E0,-1.147124542E1,1.122934845E1,1.635372530E1
2.213931333E0,-1.862427063E0,-1.109657455E1,1.042312500E1,1.533767049E1
2.223864333E0,-1.716181183E0,-1.031894165E1,1.032792297E1,1.470006216E1
2.233798333E0,-2.896027679E0,-9.880952454E0,1.083821182E1,1.494948271E1
2.243731333E0,-5.083878021E0,-9.239087219E0,1.124072479E1,1.541299589E1
2.253665333E0,-7.022047577E0,-8.480315094E0,9.095236359E0,1.428104410E1
2.263598333E0,-7.628137207E0,-7.798632660E0,6.353388062E0,1.262428962E1
2.273532333E0,-7.241640930E0,-7.409891052E0,3.425776062E0,1.091255197E1
2.283465333E0,-6.531367950E0,-8.866511993E0,1.804946594E0,1.115937429E1
2.293398333E0,-5.811963959E0,-1.154159912E1,1.757944336E0,1.304138810E1
2.303332333E0,-4.945116577E0,-1.546868271E1,1.041234741E0,1.627324468E1
2.313265333E0,-5.431604919E0,-2.007011398E1,2.622247009E0,2.095681242E1
2.323199333E0,-5.327571259E0,-1.958138031E1,3.843706970E0,2.065399607E1
2.333132333E0,-3.868854675E0,-1.073432785E1,-2.585273895E0,1.169946460E1
2.343066333E0,-6.577322388E-1,-5.453160095E0,-5.642965393E0,7.874809531E0
2.352999333E0,1.708247681E0,-6.167474670E0,-2.607727203E0,6.910578494E0
2.362933333E0,1.532962189E0,-7.736661530E0,1.200204163E0,7.977869059E0
2.372866333E0,1.356179810E0,-6.974296875E0,2.068398743E0,7.399886076E0
2.382800333E0,1.365161133E0,-6.136788483E0,-4.809498596E-1,6.305168560E0
2.392733333E0,1.508113861E0,-6.494095459E0,-3.132386169E0,7.366106595E0
2.402666333E0,1.882635040E0,-6.862778778E0,-4.471501465E0,8.404544759E0
2.412600333E0,2.749632111E0,-6.948550415E0,-3.737278290E0,8.355242584E0
2.422533333E0,2.518063660E0,-7.012018433E0,-2.411036224E0,7.830845597E0
2.432467333E0,2.465822296E0,-8.009394379E0,-6.870712280E-1,8.408492420E0
2.442400333E0,1.075962524E0,-9.835596771E0,2.121089172E-1,9.896547347E0
2.452334333E0,-7.860154724E-1,-1.153740784E1,-1.661544800E-2,1.156416344E1
2.462267333E0,-2.127076721E0,-1.243060043E1,-2.104623413E-1,1.261303203E1
2.472201333E0,-2.833457794E0,-1.215696945E1,1.251397705E-1,1.248343099E1
2.482134333E0,-3.655697937E0,-1.156225616E1,3.965254211E-1,1.213289444E1
2.492068333E0,-5.298082581E0,-1.173784103E1,1.294807434E-1,1.287879484E1
2.502001333E0,-7.567812653E0,-1.214229996E1,-5.373825073E-1,1.431768195E1
2.511934333E0,-8.247998199E0,-1.212299011E1,-4.776567078E-1,1.467053235E1
2.521868333E0,-6.791227570E0,-1.145492935E1,-7.370672607E-1,1.333714537E1
2.531801333E0,-1.680854645E0,-1.084389999E1,-6.110293579E-1,1.099039564E1
2.541735333E0,2.322121124E0,-1.038315811E1,1.662293243E0,1.076872498E1
2.551668333E0,2.662812653E0,-9.530381470E0,4.407285004E0,1.083249294E1
2.561602333E0,1.591191101E0,-7.901468811E0,5.292993164E0,9.642659132E0
2.571535333E0,9.098080444E-1,-6.253246307E0,4.708758087E0,7.880561070E0
2.581469333E0,1.047222290E0,-5.442981262E0,3.540287933E0,6.576956606E0
2.591402333E0,1.249601440E0,-5.703289948E0,2.365231476E0,6.299471400E0
2.601336333E0,1.022224274E0,-6.095773773E0,1.474733276E0,6.354387350E0
2.611269333E0,-3.534150696E-1,-6.852599945E0,5.544470215E-1,6.884071449E0
2.621202333E0,-1.176104279E0,-7.327711945E0,-9.442364502E-1,7.481321146E0
2.631136333E0,-1.983225861E0,-7.829767914E0,-2.032024384E0,8.328719799E0
2.641069333E0,-3.033292236E0,-8.379125519E0,-2.801125031E0,9.341140599E0
2.651003333E0,-3.441792755E0,-8.449928284E0,-3.182831268E0,9.663210660E0
2.660936333E0,-2.824775848E0,-7.679929504E0,-2.780767365E0,8.642531048E0
2.670870333E0,-2.111359406E0,-6.916217651E0,-1.923649750E0,7.482802516E0
2.680803333E0,-1.760788422E0,-6.854994965E0,-1.288071442E0,7.193779248E0
2.690737333E0,-1.432371368E0,-7.522456970E0,-5.779481506E-1,7.679392598E0
2.700670333E0,-1.155896301E0,-8.565487976E0,-1.736389160E-1,8.644873105E0
2.710604333E0,-6.584806824E-1,-9.085207214E0,1.642085266E-1,9.110518722E0
2.720537333E0,-3.610491943E-1,-9.414522400E0,3.171903992E-1,9.426780908E0
2.730470333E0,-6.602769470E-1,-1.004426285E1,5.007087708E-1,1.007838733E1
2.740404333E0,-1.400487671E0,-1.107876160E1,4.221221924E-1,1.117490543E1
2.750337333E0,-2.180964661E0,-1.215098190E1,5.598358154E-1,1.235784707E1
2.760271333E0,-3.096011810E0,-1.271920029E1,9.705816650E-1,1.312651415E1
2.770204333E0,-3.940256195E0,-1.257924133E1,2.033371582E0,1.333782334E1
2.780138333E0,-4.196373596E0,-1.122321121E1,2.867586823E0,1.232043325E1
2.790071333E0,-4.358187103E0,-9.961484985E0,3.066074066E0,1.129715841E1
2.800005333E0,-5.395080872E0,-9.943222961E0,2.255060577E0,1.153515837E1
2.809938333E0,-6.296206970E0,-1.050949539E1,7.818241882E-1,1.227611358E1
2.819872333E0,-5.962850189E0,-1.098430801E1,-2.769241333E-1,1.250149159E1
2.829805333E0,-5.119503937E0,-1.169847290E1,-1.137634277E-2,1.276964049E1
2.839738333E0,-3.715124359E0,-1.259525803E1,1.774859161E0,1.325114330E1
2.849672333E0,-2.440225525E0,-1.361089600E1,3.242407379E0,1.420297138E1
2.859605333E0,-2.054926758E0,-1.379022308E1,3.500171356E0,1.437512352E1
2.869539333E0,-3.020119629E0,-1.397583710E1,2.874472504E0,1.458450333E1
2.879472333E0,-5.986501007E0,-1.427072388E1,2.468816071E0,1.567120950E1
2.889406333E0,-8.303682404E0,-1.406834473E1,3.242706757E0,1.665486751E1
2.899339333E0,-8.391849060E0,-1.413450714E1,3.479813690E0,1.680227741E1
2.909273333E0,-7.636220398E0,-1.463626373E1,3.071612549E0,1.679186951E1
2.919206333E0,-5.314847717E0,-1.365071320E1,3.276686096E0,1.501087102E1
2.929139333E0,-3.186124420E0,-1.323936859E1,6.926845551E0,1.527787481E1
2.939073333E0,-2.128573608E-1,-1.359023895E1,1.071382050E1,1.730681521E1
2.949006333E0,2.044747925E0,-1.356718689E1,6.563401337E0,1.520946387E1
2.958940333E0,1.585203552E0,-1.404409515E1,-3.166964264E0,1.448375440E1
2.968873333E0,1.251846771E0,-1.379770752E1,-9.250313873E0,1.665869622E1
2.978807333E0,3.252735901E-1,-1.370490051E1,-8.664282532E0,1.621727143E1
2.988740333E0,-1.534608765E0,-1.359951965E1,-5.035378876E0,1.458276377E1
2.998674333E0,-3.204386444E0,-1.322260345E1,-3.741918640E0,1.411053825E1
3.008607333E0,-3.010988617E0,-1.340178085E1,-3.886218567E0,1.427502985E1
3.018541333E0,-1.834734650E0,-1.428569275E1,8.294252014E-1,1.442689207E1
3.028474333E0,-6.306385803E-1,-1.520747589E1,6.421945496E0,1.651987930E1
3.038407333E0,-5.542973328E-1,-1.498893036E1,5.837261353E0,1.609499608E1
3.048341333E0,-1.152902527E0,-1.466230957E1,1.525627441E0,1.478648184E1
3.058274333E0,-2.657274170E0,-1.324041641E1,3.782633972E-1,1.350973042E1
3.068208333E0,-3.943399658E0,-1.103894440E1,8.587641907E-1,1.175355989E1
3.078141333E0,-3.901037750E0,-9.768985291E0,6.200106812E-1,1.053734228E1
3.088075333E0,-2.649490356E0,-8.793912964E0,4.415817261E-2,9.184478990E0
3.098008333E0,-2.094743958E0,-7.927514648E0,7.053332520E-1,8.229880664E0
3.107942333E0,-1.716929626E0,-7.160659332E0,4.802014160E-1,7.379260316E0
3.117875333E0,-1.603315887E0,-6.167025604E0,-3.691323853E-1,6.382717709E0
3.127808333E0,-2.553539886E0,-5.155878296E0,-6.869215393E-1,5.794437691E0
3.137741958E0,-7.340285797E0,-4.204307098E0,-1.393302612E0,8.573055811E0
3.147674958E0,-1.024739044E1,-2.904260559E0,-1.466500397E0,1.075148193E1
3.157608958E0,-5.422174530E0,-3.563339996E0,-1.616189117E0,6.686511484E0
3.167541958E0,-3.918551331E0,-4.600682831E0,-2.065704346E0,6.386584493E0
3.177475958E0,-1.414408722E0,-3.767665100E0,-1.827250214E0,4.419807200E0
3.187408958E0,-1.337768097E0,-3.411256256E0,-1.895957336E0,4.125645034E0
3.197342958E0,-1.024469604E0,-3.467988281E0,-2.092049561E0,4.177696980E0
3.207275958E0,2.866239624E0,-1.248403931E0,-2.757715302E0,4.168793068E0
3.217209958E0,2.754122772E0,-1.630708923E0,-3.263214111E0,4.570882866E0
3.227142958E0,2.017803955E-1,-3.777095490E0,-2.019151154E0,4.287672684E0
3.237076958E0,3.420387268E-1,-4.913232880E0,-3.532653809E-2,4.925250835E0
3.247009958E0,9.771679688E-1,-5.031786346E0,1.042881317E0,5.230806106E0
3.256942958E0,8.379574585E-1,-5.236410828E0,1.779349823E0,5.593590694E0
3.266876958E0,-6.122268677E-2,-5.672603760E0,2.767894135E0,6.312164413E0
3.276809958E0,-1.665736084E0,-6.031557312E0,3.870052185E0,7.357422390E0
3.286743958E0,-4.013903046E0,-6.052813110E0,4.693190460E0,8.647196130E0
3.296676958E0,-4.804858246E0,-6.393654327E0,6.285579071E0,1.017221621E1
3.306610958E0,-5.395380249E0,-7.678432617E0,7.719297638E0,1.215137900E1
3.316543958E0,-6.190975800E0,-8.852590942E0,9.345665588E0,1.428418752E1
3.326477958E0,-7.986342316E0,-9.989776154E0,9.235195312E0,1.577549123E1
3.336410958E0,-9.185648346E0,-1.147917892E1,4.214186554E0,1.529402016E1
3.346343958E0,-6.756799164E0,-1.302127213E1,7.601342926E0,1.652235688E1
3.356277958E0,-5.777984619E0,-1.222777222E1,1.056847275E1,1.716380307E1
3.366210958E0,-5.069507904E0,-1.122874969E1,9.818981323E0,1.575427321E1
3.376144958E0,-3.790866852E0,-9.850715332E0,1.015383499E1,1.464607897E1
3.386077958E0,-3.837569733E0,-8.709338837E0,8.582851868E0,1.281580550E1
3.396011958E0,-4.347559204E0,-6.955286407E0,8.574319611E0,1.186575901E1
3.405944958E0,-6.124364319E0,-6.075865173E0,7.181915131E0,1.122514503E1
3.415878958E0,-8.869056702E0,-5.319787445E0,3.157533875E0,1.081343264E1
3.425811958E0,-9.112001495E0,-6.116131439E0,2.207160187E0,1.119406946E1
3.435745958E0,-9.217681732E0,-8.148904266E0,5.155429230E0,1.333974317E1
3.445678958E0,-9.413923645E0,-1.089075256E1,5.563780060E0,1.543327892E1
3.455611958E0,-6.747219086E0,-1.860660736E1,1.955982513E0,1.988860655E1
3.465545958E0,-2.821333008E0,-2.707509705E1,1.542242889E0,2.726535005E1
3.475478958E0,-1.051712952E0,-2.398971313E1,1.344653778E0,2.405037485E1
3.485412958E0,1.094523926E0,-1.105675735E1,-8.681945801E-1,1.114466813E1
3.495345958E0,1.993404694E0,-6.556665344E0,-6.800358582E-1,6.886651688E0
3.505279958E0,1.593885498E0,-6.220165100E0,-4.290078735E-1,6.435446574E0
3.515212958E0,1.567390594E0,-7.491920471E0,-4.478686523E-1,7.667214093E0
3.525146958E0,3.546275482E0,-8.479566650E0,-2.184706879E0,9.447331079E0
3.535079958E0,3.557651825E0,-7.020850067E0,-3.705244904E0,8.699313879E0
3.545013958E0,5.870791626E-1,-5.622458038E0,-4.461172943E0,7.201302685E0
3.554946958E0,-1.467248840E0,-6.854994965E0,-4.375700684E0,8.263808541E0
3.564879958E0,-3.297642517E-1,-8.189020844E0,-3.764072571E0,9.018705514E0
3.574813958E0,-1.633103943E-1,-9.314829712E0,-2.768941956E0,9.719041228E0
3.584746958E0,-8.671467590E-1,-1.071262299E1,-1.561103668E0,1.086044564E1
3.594680958E0,-1.545086975E0,-1.150492538E1,-6.631210327E-1,1.162713771E1
3.604613958E0,-3.853586426E0,-1.113459549E1,-1.950444031E-1,1.178420075E1
3.614547958E0,-5.565875702E0,-1.037267990E1,-1.675016785E-1,1.177282963E1
3.624480958E0,-6.419700165E0,-9.472302246E0,-5.568420410E-1,1.145631412E1
3.634414958E0,-6.393504639E0,-9.310937805E0,-3.059637451E-1,1.129885296E1
3.644347958E0,-5.387446747E0,-9.612560577E0,7.164102173E-1,1.104260598E1
3.654281958E0,-3.849544830E0,-1.063089294E1,1.773511963E0,1.144465923E1
3.664214958E0,-1.490899658E0,-1.173050629E1,2.292333069E0,1.204501351E1
3.674147958E0,1.639540558E0,-1.142978165E1,2.468217316E0,1.180762882E1
3.684081958E0,2.713407440E0,-1.049946625E1,2.097288666E0,1.104536062E1
3.694014958E0,2.877615967E0,-9.216633911E0,2.167642365E0,9.895740888E0
3.703948958E0,2.725083160E0,-8.322992249E0,2.372715912E0,9.073481085E0
3.713881958E0,2.328557739E0,-7.964487762E0,2.844534760E0,8.771922507E0
3.723815958E0,1.580413513E0,-7.364984436E0,3.430865479E0,8.277169839E0
3.733748958E0,3.338058472E-1,-6.793622589E0,3.283571777E0,7.552918498E0
3.743682958E0,-1.083896027E0,-6.305936737E0,2.373015289E0,6.824285332E0
3.753615958E0,-1.946103058E0,-5.967939606E0,9.455836487E-1,6.348050778E0
3.763549958E0,-2.646496582E0,-5.776338043E0,-1.323547668E0,6.490131261E0
3.773482958E0,-4.035308533E0,-6.568790131E0,-3.639531555E0,8.525192589E0
3.783415958E0,-4.584516449E0,-7.100783844E0,-4.727768555E0,9.684560794E0
3.793349958E0,-3.983366547E0,-6.980134735E0,-4.708159332E0,9.314303745E0
3.803282958E0,-3.042722626E0,-6.927593994E0,-3.755839691E0,8.447251110E0
3.813216958E0,-2.810106354E0,-7.472011871E0,-2.042801971E0,8.240188045E0
3.823149958E0,-2.916535034E0,-8.135282593E0,-7.334747314E-1,8.673349102E0
3.833083958E0,-3.231480103E0,-8.599018250E0,-3.631448364E-1,9.193337407E0
3.843016958E0,-3.345692596E0,-8.706794128E0,1.827699280E-1,9.329272629E0
3.852950958E0,-3.469784546E0,-8.708291016E0,1.066083069E0,9.434525442E0
3.862883958E0,-3.919898529E0,-9.240284729E0,1.972298584E0,1.022929265E1
3.872817958E0,-4.282444611E0,-9.724677429E0,2.648891602E0,1.095104149E1
3.882750958E0,-4.313430176E0,-1.000624191E1,2.873574371E0,1.126889466E1
3.892683958E0,-4.971761169E0,-9.983638916E0,1.733844452E0,1.128705771E1
3.902617958E0,-5.759572906E0,-1.067400330E1,6.741979980E-1,1.214749231E1
3.912550958E0,-5.990243225E0,-1.146600632E1,6.388714600E-1,1.295223809E1
3.922484958E0,-5.972280579E0,-1.119821320E1,1.110540619E0,1.273975724E1
3.932417958E0,-6.207591248E0,-1.081590820E1,1.095122681E0,1.251868016E1
3.942351958E0,-6.114784241E0,-1.112321915E1,9.568103027E-1,1.272918208E1
3.952284958E0,-6.433770905E0,-1.200593353E1,1.353036346E0,1.368819036E1
3.962218958E0,-6.359974365E0,-1.252071304E1,1.312021637E0,1.410457124E1
3.972151958E0,-5.957910461E0,-1.288101379E1,1.587598572E0,1.428067515E1
3.982084958E0,-5.345384216E0,-1.298429901E1,2.471360779E0,1.425737624E1
3.992018958E0,-5.830076294E0,-1.341944412E1,2.388732605E0,1.482488832E1
4.001951958E0,-8.528365173E0,-1.403661072E1,1.795516205E0,1.652220722E1
4.011885958E0,-9.842931519E0,-1.367705841E1,1.378333740E0,1.690695217E1
4.021818958E0,-8.536598053E0,-1.345372284E1,8.786727905E-1,1.595770129E1
4.031752958E0,-6.748416595E0,-1.398122589E1,1.603465576E0,1.560727093E1
4.041685958E0,-4.833149414E0,-1.399754196E1,4.312382355E0,1.542359089E1
4.051619958E0,-2.795137482E0,-1.430994232E1,6.462660828E0,1.594845534E1
4.061552958E0,-2.439926147E-1,-1.616772903E1,7.349267120E0,1.776138288E1
4.071486958E0,3.294349365E0,-1.793091248E1,3.858825531E0,1.863493747E1
4.081419958E0,5.789510651E0,-1.802042633E1,-2.667902069E0,1.911470377E1
4.091352958E0,3.762126617E0,-1.899175644E1,-7.561974792E0,2.078518396E1
4.101286958E0,1.751358032E0,-1.760713577E1,-1.171658524E1,2.122161291E1
4.111219958E0,-4.969665527E-2,-1.410920975E1,-1.294807434E1,1.915006263E1
4.121153958E0,-1.910327454E0,-1.238135284E1,-8.308173065E0,1.503239798E1
4.131086458E0,-2.355052643E0,-1.202703964E1,1.600771179E0,1.235954788E1
4.141020458E0,-2.830763397E0,-1.246682510E1,9.565708008E0,1.596676922E1
4.150953458E0,-1.517693939E0,-1.309611649E1,8.676557007E0,1.578272167E1
4.160887458E0,-7.837701416E-1,-1.352422623E1,4.234095154E0,1.419318683E1
4.170820458E0,-2.100731506E0,-1.282233582E1,3.781137085E-1,1.299878220E1
4.180754458E0,-1.907932434E0,-1.174263107E1,-2.133663025E0,1.208644317E1
4.190687458E0,-2.579885101E0,-1.090182953E1,1.139430542E0,1.126072805E1
4.200620458E0,-5.337600403E0,-9.243278503E0,2.533631287E0,1.097029913E1
4.210554458E0,-6.191724243E0,-7.535629578E0,1.229842529E0,9.830344596E0
4.220487458E0,-5.716312866E0,-6.602021027E0,4.005670166E-1,8.742046005E0
4.230421458E0,-4.916675720E0,-6.371650085E0,-4.517605591E-1,8.060751364E0
4.240354458E0,-3.922143860E0,-6.291566620E0,-1.276994476E0,7.523146807E0
4.250288458E0,-4.148772583E0,-5.654341736E0,-1.625769196E0,7.199098547E0
4.260221458E0,-5.261408844E0,-4.500840454E0,-1.635798340E0,7.114479884E0
4.270155458E0,-3.900289307E0,-4.210893402E0,-1.565594330E0,5.949366817E0
4.280088458E0,-2.861748962E0,-4.188889160E0,-1.399140472E0,5.262508298E0
4.290022458E0,-3.172652435E0,-3.977079620E0,-1.660197601E0,5.351555088E0
4.299955458E0,-4.432582397E0,-4.386777649E0,-1.946252747E0,6.532955273E0
4.309888458E0,-4.237388306E0,-4.951403503E0,-2.042203217E0,6.829527823E0
4.319822458E0,-1.668280792E0,-4.837340698E0,-2.647394714E0,5.761225964E0
4.329755458E0,-8.331674194E-1,-4.733756104E0,-2.800226898E0,5.562722847E0
4.339689458E0,-1.728755035E0,-4.418661346E0,-2.599344635E0,5.410152918E0
4.349622458E0,-2.022294617E-1,-3.406765594E0,-1.682950287E0,3.805163628E0
4.359556458E0,1.583407288E0,-2.772684174E0,-1.269809418E0,3.436185694E0
4.369489458E0,2.990930328E0,-2.560724945E0,-2.844085693E-1,3.947640397E0
4.379423458E0,3.506907349E0,-2.382295990E0,1.042881317E0,4.365928856E0
4.389356458E0,1.943857727E0,-2.678829346E0,2.222428436E0,3.986715149E0
4.399290458E0,-2.074236603E0,-3.830684052E0,2.727927246E0,5.139862337E0
4.409223458E0,-3.501219177E0,-4.024980011E0,3.439846802E0,6.347562196E0
4.419156458E0,-3.526217194E0,-5.346581726E0,4.706662445E0,7.948132814E0
4.429090458E0,-4.068240051E0,-7.937244415E0,6.984775085E0,1.132861461E1
4.439023458E0,-5.696553955E0,-9.275461578E0,9.841434631E0,1.467442503E1
4.448957458E0,-7.186854858E0,-9.218280487E0,9.868528290E0,1.529756283E1
4.458890458E0,-8.656648407E0,-1.026146118E1,1.162557449E1,1.775919845E1
4.468824458E0,-8.583300934E0,-1.166539169E1,8.046966248E0,1.656828549E1
4.478757458E0,-6.582262115E0,-1.252310806E1,4.489613800E0,1.484287850E1
4.488691458E0,-3.163521423E0,-1.107831253E1,8.131390686E0,1.410164497E1
4.498624458E0,-1.075962524E0,-9.151519318E0,1.184007843E1,1.500318161E1
4.508558458E0,-1.845811615E0,-7.143594818E0,1.148202301E1,1.364825336E1
4.518491458E0,-2.780617676E0,-7.390431519E0,1.044093796E1,1.309058815E1
4.528424458E0,-7.416926422E0,-7.041956177E0,1.012255005E1,1.438978679E1
4.538358458E0,-9.913734283E0,-6.803951111E0,4.612807617E0,1.287842662E1
4.548291458E0,-8.977581024E0,-7.010072479E0,-8.387059021E-1,1.142109911E1
4.558225458E0,-7.890391846E0,-9.553433533E0,-9.746232605E-1,1.242884815E1
4.568158458E0,-7.719746704E0,-1.450753143E1,2.007475433E0,1.655575172E1
4.578092458E0,-9.474846954E0,-1.768916519E1,5.657485199E0,2.084913496E1
4.588025458E0,-1.086246140E1,-2.388852356E1,8.655450897E0,2.763279674E1
4.597959458E0,-9.103169861E0,-2.684831863E1,3.804937592E0,2.860380158E1
4.607892458E0,-1.615740051E0,-1.416923492E1,-4.585264893E0,1.498006971E1
4.617825458E0,3.176095276E0,-3.236419830E0,-3.395988007E0,5.665221007E0
4.627759458E0,3.154540100E0,-4.679568787E0,-5.599855042E-1,5.671249513E0
4.637692458E0,9.297166443E-1,-7.801177368E0,1.777553558E0,8.054963564E0
4.647626458E0,-3.677851868E-1,-7.105723572E0,2.394720154E0,7.507413538E0
4.657559458E0,-1.379231873E0,-5.533243561E0,-8.994795227E-1,5.773051903E0
4.667493458E0,-3.279679871E-1,-6.151308289E0,-4.057761841E0,7.376421071E0
4.677426458E0,3.891906738E-2,-7.848778381E0,-5.582191772E0,9.631495302E0
4.687360458E0,7.644602966E-1,-8.162525940E0,-4.998705139E0,9.601993665E0
4.697293458E0,5.602848816E-1,-8.224347382E0,-2.938090210E0,8.751353214E0
4.707227458E0,-8.666976929E-2,-8.796757050E0,-1.300196228E0,8.892747408E0
4.717160458E0,-2.564167786E-1,-9.621242523E0,-1.003213806E0,9.676801909E0
4.727093458E0,-5.358856201E-1,-1.049572403E1,-7.360194397E-1,1.053513744E1
4.737027458E0,-1.759141846E0,-1.116827545E1,4.773573303E-1,1.131604289E1
4.746960458E0,-3.348836060E0,-1.146750320E1,1.455872498E0,1.203486175E1
4.756894458E0,-3.971990204E0,-1.089793762E1,1.214274902E0,1.166259894E1
4.766827458E0,-4.865332489E0,-1.028062134E1,4.683760071E-1,1.138340948E1
4.776761458E0,-4.583768005E0,-9.855655060E0,1.146615601E-1,1.087005120E1
4.786694458E0,-4.567451935E0,-1.002106110E1,-2.805166626E-1,1.101644100E1
4.796628458E0,-4.384682007E0,-1.029259644E1,5.180726624E-1,1.119961504E1
4.806561458E0,-3.784729614E0,-9.475445709E0,1.269210663E0,1.028198159E1
4.816495458E0,-2.931803284E0,-8.100854187E0,1.773811340E0,8.795778290E0
4.826428458E0,-1.986818390E0,-6.825506287E0,2.584375763E0,7.563992429E0
4.836361458E0,-1.844314728E0,-6.392157440E0,2.761906586E0,7.203422905E0
4.846295458E0,-2.373015289E0,-6.508615265E0,2.473606110E0,7.356086012E0
4.856228458E0,-2.700683899E0,-6.368806000E0,1.812580719E0,7.151281860E0
4.866162458E0,-3.034789124E0,-5.869594116E0,4.544549561E-1,6.623338238E0
4.876095458E0,-3.298241272E0,-5.735173645E0,-1.099164276E0,6.706621678E0
4.886029458E0,-3.363655243E0,-6.261329498E0,-2.480342102E0,7.527982507E0
4.895962458E0,-2.890788574E0,-7.162455597E0,-3.106190643E0,8.325013458E0
4.905896458E0,-1.960323486E0,-8.071066132E0,-3.435056763E0,8.988024902E0
4.915829458E0,-1.007554779E0,-8.004754028E0,-3.145708466E0,8.659488174E0
4.925763458E0,-8.303233337E-1,-7.979306946E0,-1.967358856E0,8.260101515E0
4.935696458E0,-1.029708710E0,-8.315208435E0,-9.636959839E-1,8.433961186E0
4.945629458E0,-1.065933380E0,-8.419990540E0,-4.394860840E-1,8.498564742E0
4.955563458E0,-8.619076538E-1,-8.429420929E0,1.025367737E-1,8.473991727E0
4.965496458E0,-5.507048035E-1,-8.440348206E0,6.351292419E-1,8.482107213E0
4.975430458E0,-5.918692017E-1,-8.743168488E0,1.257984009E0,8.853012375E0
4.985363458E0,-8.818162537E-1,-9.154962158E0,1.754351807E0,9.363155573E0
4.995297458E0,-1.407223663E0,-9.708061981E0,2.065704346E0,1.002466360E1
5.005230458E0,-1.966760101E0,-1.057161621E1,2.187550964E0,1.097326724E1
5.015164458E0,-3.086431732E0,-1.147708328E1,1.920506287E0,1.203901349E1
5.025097458E0,-4.819378052E0,-1.186522614E1,9.771679688E-1,1.284386442E1
5.035031458E0,-6.503226471E0,-1.088895630E1,-2.414479065E-1,1.268540976E1
5.044964458E0,-7.983198853E0,-9.879455566E0,-1.015188904E0,1.274228059E1
5.054897458E0,-9.142687683E0,-9.339678040E0,-1.221010895E0,1.312665957E1
5.064831458E0,-9.704170074E0,-9.460776215E0,-1.160386963E0,1.360234176E1
5.074764458E0,-9.541458435E0,-1.025233017E1,-1.901046753E-2,1.400535842E1
5.084698458E0,-8.495583344E0,-1.133697464E1,1.763033752E0,1.427621162E1
5.094631458E0,-7.248676300E0,-1.230920288E1,2.705923004E0,1.453897531E1
5.104565458E0,-5.684728546E0,-1.263223114E1,2.558928680E0,1.408678523E1
5.114498458E0,-4.206851807E0,-1.249212250E1,2.296524353E0,1.338001311E1
5.124432458E0,-4.460873566E0,-1.287921753E1,1.643282776E0,1.372858388E1
5.134365750E0,-7.080426178E0,-1.342632980E1,1.844913483E0,1.529060079E1
5.144298750E0,-8.071515198E0,-1.292367508E1,3.083587646E0,1.554603641E1
5.154232750E0,-7.848778381E0,-1.323577606E1,2.835553436E0,1.564702698E1
5.164165750E0,-6.497238922E0,-1.361598541E1,2.406545563E0,1.527745509E1
5.174099750E0,-5.040767670E0,-1.504072266E1,5.173092499E0,1.668512999E1
5.184032750E0,-3.418740692E0,-1.651021683E1,7.499853973E0,1.845326143E1
5.193966750E0,-1.135688324E0,-1.772538986E1,5.327870636E0,1.854360912E1
5.203899750E0,3.345542908E-1,-1.855571320E1,-4.435276794E-1,1.856402800E1
5.213833750E0,4.242178345E-1,-1.807057205E1,-6.136638794E0,1.908884152E1
5.223766750E0,-2.544708252E-2,-1.699655548E1,-9.178762665E0,1.931665680E1
5.233700750E0,-7.575746155E-1,-1.587763229E1,-8.994196472E0,1.826386314E1
5.243633750E0,-2.055226135E0,-1.477577362E1,-5.259462891E0,1.581800842E1
5.253566750E0,-3.326831818E0,-1.379621063E1,3.790118408E-1,1.419672102E1
5.263500750E0,-2.707868958E0,-1.241578125E1,3.097658386E0,1.307974257E1
5.273433750E0,-7.945477295E-1,-1.251607269E1,4.182901611E0,1.322044052E1
5.283367750E0,2.035018158E0,-1.170969955E1,-2.430944824E-1,1.188770194E1
5.293300750E0,3.782633972E0,-1.240350677E1,-1.500883896E1,1.983483166E1
5.303234750E0,3.020868073E0,-1.428554306E1,-7.643255768E0,1.648095092E1
5.313167750E0,-3.028951263E0,-1.012464569E1,7.053332520E0,1.270560883E1
5.323101750E0,-5.066514130E0,-9.309291229E0,-7.736811218E0,1.312214603E1
5.333034750E0,3.330574036E-1,-6.335575104E0,-2.712658997E0,6.899924490E0
5.342968750E0,1.074914703E0,-5.800886993E0,9.303603058E0,1.101647681E1
5.352901750E0,1.068777466E0,-6.717580719E0,6.660699005E0,9.520141135E0
5.362834750E0,-9.283694458E-1,-5.983507233E0,2.620001678E0,6.597623620E0
5.372768750E0,-2.567460938E0,-5.169050903E0,2.704276428E0,6.373700174E0
5.382701750E0,-3.312910767E0,-5.431155853E0,2.505789185E0,6.837529604E0
5.392635750E0,-3.871998138E0,-5.567821655E0,-7.783813477E-2,6.782261153E0
5.402568750E0,-4.847220154E0,-4.940925293E0,-2.021695862E0,7.210793308E0
5.412502750E0,-6.488556976E0,-4.445156250E0,-2.937790833E0,8.395915715E0
5.422435750E0,-7.727081451E0,-4.543501740E0,-3.027154999E0,9.461229476E0
5.432369750E0,-7.791597290E0,-3.563489685E0,-3.467389526E0,9.242847894E0
5.442302750E0,-6.858138428E0,-4.315974884E0,-3.001258850E0,8.641137459E0
5.452236750E0,-3.574716339E0,-5.154082031E0,-2.831811218E0,6.882028281E0
5.462169750E0,-1.485810242E0,-4.491709442E0,-2.783312073E0,5.489072042E0
5.472102750E0,-9.855505371E-1,-4.153263245E0,-2.355950775E0,4.875593245E0
5.482036750E0,9.789642334E-1,-3.686982880E0,-1.953737183E0,4.285942452E0
5.491969750E0,2.402653656E0,-3.561543732E0,-1.016685791E0,4.414859946E0
5.501903750E0,3.016826477E0,-3.328628082E0,-2.034269714E-1,4.496931113E0
5.511836750E0,3.320245514E0,-2.972967682E0,9.948312378E-1,4.566427083E0
5.521770750E0,2.517015839E0,-2.836451569E0,2.048041077E0,4.309907016E0
5.531703750E0,7.520361328E-1,-3.043620758E0,3.175646210E0,4.462500926E0
5.541637750E0,-2.057920532E0,-4.163591766E0,4.913981323E0,6.761489907E0
5.551570750E0,-4.943769379E0,-6.279142456E0,7.931256866E0,1.125936593E1
5.561504750E0,-9.305549011E0,-1.050829788E1,1.235934860E1,1.870216738E1
5.571437750E0,-1.426368851E1,-1.523067764E1,1.551119431E1,2.600045192E1
5.581370750E0,-1.279464340E1,-1.519924301E1,1.289777893E1,2.368697088E1
5.591304750E0,-6.981781311E0,-1.387000717E1,7.646099854E0,1.730853004E1
5.601237750E0,-6.372997284E0,-1.283221527E1,-1.243913269E0,1.438152159E1
5.611171750E0,-5.133724365E0,-1.236743179E1,-2.944377136E-1,1.339384891E1
5.621104750E0,1.630858612E0,-9.475146332E0,1.492142075E1,1.775068717E1
5.631038750E0,2.730771332E0,-8.767118683E0,1.439751022E1,1.707652724E1
5.640971750E0,-1.138083344E0,-9.510921936E0,1.404424484E1,1.699981420E1
5.650905750E0,-5.344935150E0,-8.657097473E0,1.280167877E1,1.635226736E1
5.660838750E0,-8.202642517E0,-7.358996887E0,7.371570740E0,1.325813843E1
5.670771750E0,-8.373137970E0,-8.166717224E0,1.799258423E0,1.183393597E1
5.680705750E0,-6.787036285E0,-1.061053528E1,1.924996948E-1,1.259699871E1
5.690638750E0,-6.198909302E0,-1.365385666E1,9.404942322E-1,1.502460674E1
5.700572750E0,-5.445076904E0,-1.930236053E1,1.007854156E0,2.008097992E1
5.710505750E0,-8.181087341E0,-2.491463974E1,6.592590637E0,2.703944738E1
5.720439750E0,-8.601562958E0,-2.098531082E1,6.137836304E0,2.349559938E1
5.730372750E0,-2.995121613E0,-6.672225037E0,-3.938609619E0,8.306743414E0
5.740306750E0,1.220112762E0,-3.163671112E0,-6.272107086E0,7.129994205E0
5.750239750E0,2.312990112E0,-6.546636200E0,-3.265908508E0,7.672973816E0
5.760173750E0,7.135661316E-1,-7.980055389E0,7.774832153E-1,8.049530470E0
5.770106750E0,-2.306403809E0,-5.871091003E0,1.219364319E0,6.424644538E0
5.780039750E0,-1.622176666E0,-4.406536560E0,-2.061962128E0,5.128421727E0
5.789973750E0,1.247655487E0,-4.436474304E0,-5.158123627E0,6.917021600E0
5.799906750E0,2.579136658E0,-5.630840607E0,-6.361022186E0,8.878114388E0
5.809840750E0,2.980751495E0,-6.347250824E0,-6.665189667E0,9.674565923E0
5.819773750E0,2.622546387E0,-7.119644623E0,-6.394253082E0,9.922376811E0
5.829707750E0,2.135159912E0,-8.891510010E0,-3.457809448E0,9.776211142E0
5.839640750E0,1.078058167E0,-1.092428284E1,-2.643502808E-1,1.098053031E1
5.849574750E0,-5.102888489E-1,-1.279164963E1,5.102888489E-1,1.281199007E1
5.859507750E0,-1.949545898E0,-1.417103119E1,-2.616558838E-1,1.430689757E1
5.869441750E0,-3.028202820E0,-1.437640411E1,-1.766326904E-1,1.469293050E1
5.879374750E0,-3.849245453E0,-1.321691528E1,-2.814147949E-2,1.376605725E1
5.889307750E0,-4.143234100E0,-1.156584869E1,-1.342707825E-1,1.228630430E1
5.899241750E0,-4.062402191E0,-1.054631882E1,-3.221301270E-1,1.130626906E1
5.909174750E0,-4.065695343E0,-9.946516113E0,-4.867877197E-1,1.075639455E1
5.919108750E0,-4.421954498E0,-9.285939789E0,-5.927673340E-1,1.030212272E1
5.929041750E0,-4.502487030E0,-8.782686310E0,1.389111328E-1,9.870525040E0
5.938975750E0,-4.444557495E0,-8.587641907E0,7.032376099E-1,9.695165186E0
5.948908750E0,-4.186045074E0,-8.171058197E0,5.665718079E-1,9.198378609E0
5.958842750E0,-3.694317627E0,-7.441625061E0,-3.056643677E-1,8.313795582E0
5.968775750E0,-3.318449249E0,-7.282655640E0,-1.395697632E0,8.123863026E0
5.978709750E0,-3.155288544E0,-7.468569031E0,-1.935774536E0,8.335621885E0
5.988642750E0,-2.721790009E0,-7.521109772E0,-1.857187958E0,8.211234996E0
5.998575750E0,-2.083217926E0,-7.448660431E0,-1.514700165E0,7.881412039E0
6.008509750E0,-1.379980316E0,-7.627538452E0,-5.060975647E-1,7.767871218E0
6.018442750E0,-8.318202209E-1,-7.941884766E0,8.503816223E-1,8.030479899E0
6.028376750E0,-3.236270142E-1,-8.573122101E0,1.415007477E0,8.695136753E0
6.038309750E0,-4.490661621E-3,-8.171956329E0,1.334474945E0,8.280200106E0
6.048243750E0,-3.408412170E-1,-7.639812927E0,8.418493652E-1,7.693609338E0
6.058176750E0,-1.116228790E0,-7.459737396E0,3.933819580E-1,7.553038998E0
6.068110750E0,-2.166594543E0,-7.588769073E0,-5.972579956E-2,7.892218645E0
6.078043750E0,-3.118465118E0,-8.152796173E0,-6.506968689E-1,8.753074691E0
6.087977750E0,-3.366798706E0,-8.411158905E0,-8.767268372E-1,9.102284197E0
6.097910750E0,-3.186124420E0,-8.340206451E0,-6.730004883E-1,8.953399473E0
6.107843750E0,-3.043321381E0,-8.641829224E0,-1.374142456E-1,9.163072630E0
6.117777750E0,-2.599644012E0,-9.008267212E0,8.506809998E-1,9.414387145E0
6.127710750E0,-2.373913422E0,-1.003722748E1,1.797761536E0,1.046963929E1
6.137644000E0,-2.699785767E0,-1.084554657E1,1.635648651E0,1.129557746E1
6.147577000E0,-4.063150635E0,-1.045381119E1,3.996688843E-1,1.122279362E1
6.157511000E0,-5.880072327E0,-9.885293427E0,-1.037193146E0,1.154859499E1
6.167444000E0,-7.745044098E0,-9.444160767E0,-1.161434784E0,1.226893685E1
6.177378000E0,-9.006920013E0,-9.232800293E0,-6.029461670E-1,1.291250376E1
6.187311000E0,-8.937464447E0,-9.235494690E0,-2.189945984E-1,1.285381622E1
6.197244000E0,-8.017327881E0,-9.764344940E0,-4.194277954E-1,1.264104023E1
6.207178000E0,-6.625671844E0,-1.095751373E1,6.256988525E-1,1.282022362E1
6.217111000E0,-5.449866943E0,-1.238719070E1,2.653681641E0,1.379077842E1
6.227045000E0,-4.791835327E0,-1.334789291E1,3.881428528E0,1.470351721E1
6.236978000E0,-4.052822113E0,-1.346734451E1,4.228706360E0,1.468593520E1
6.246912000E0,-3.716172180E0,-1.316063232E1,4.183799744E0,1.430092162E1
6.256845000E0,-4.107159119E0,-1.277608200E1,3.697910156E0,1.392018559E1
6.266779000E0,-5.077142029E0,-1.202913528E1,3.143014069E0,1.342966881E1
6.276712000E0,-7.251969452E0,-1.124042542E1,2.296075287E0,1.357240532E1
6.286646000E0,-9.280401306E0,-1.090362579E1,1.324894867E0,1.437950800E1
6.296579000E0,-9.412576447E0,-1.090512268E1,1.358425140E0,1.446940271E1
6.306513000E0,-7.350464630E0,-1.131946106E1,4.043092346E0,1.408922016E1
6.316446000E0,-5.822292480E0,-1.250948639E1,5.763614502E0,1.495344748E1
6.326379000E0,-4.286486206E0,-1.429856598E1,4.704566803E0,1.565106712E1
6.336313000E0,-1.989812164E0,-1.633747604E1,4.890330505E-1,1.646546778E1
6.346246000E0,-4.414320374E-1,-1.762524811E1,-3.353476410E0,1.794686706E1
6.356180000E0,-4.116439819E-1,-1.902109543E1,-6.175857239E0,2.000281817E1
6.366113000E0,-1.544787598E-1,-1.995769775E1,-7.745493164E0,2.140855501E1
6.376047000E0,-1.410816193E0,-1.807551178E1,-5.917943573E0,1.907187942E1
6.385980000E0,-3.748504944E0,-1.591146194E1,-1.299597473E0,1.639862385E1
6.395914000E0,-5.223986664E0,-1.433553909E1,2.560275879E0,1.547102874E1
6.405847000E0,-4.739444275E0,-1.402837784E1,2.624642029E0,1.503816686E1
6.415780000E0,-3.513942719E0,-1.451935684E1,2.721340942E-1,1.494100310E1
6.425714000E0,-3.293750610E0,-1.464404755E1,-1.759890289E0,1.511271436E1
6.435647000E0,-4.062252502E0,-1.400397858E1,-3.723806305E0,1.504925396E1
6.445581000E0,-4.346810760E0,-1.194575867E1,-3.117267609E0,1.308866958E1
6.455514000E0,-4.087250519E0,-9.860894165E0,-1.384171600E0,1.076377172E1
6.465448000E0,-3.335663452E0,-8.467142487E0,-5.248086548E-1,9.115622671E0
6.475381000E0,-3.057541809E0,-7.765701141E0,4.578977966E-1,8.358489488E0
6.485315000E0,-2.811453552E0,-7.525899811E0,7.351213074E-1,8.067455756E0
6.495248000E0,-2.356848907E0,-7.486381989E0,-4.890330505E-1,7.863828926E0
6.505182000E0,-1.538201294E0,-7.378306732E0,-1.671124878E0,7.719982630E0
6.515115000E0,-4.279600525E-1,-6.890022125E0,-3.466641083E0,7.724840134E0
6.525048000E0,3.408457077E1,-9.174571381E0,-2.684861801E1,4.434838231E1
6.534982000E0,3.212634293E1,-1.477442642E1,9.193731537E0,3.653642409E1
6.544915000E0,-1.052626053E1,-3.139122162E0,7.472460938E0,1.328510147E1
6.554849000E0,-1.258747421E1,7.924371185E0,7.198530579E-1,1.489155311E1
6.564782000E0,-4.436025238E0,2.843786316E0,-3.920347595E0,6.567691055E0
6.574716000E0,-1.941163330E0,-2.697091370E0,-2.742447052E0,4.308530232E0
6.584649000E0,-4.385430450E0,-3.344794464E0,7.201524353E-1,5.562218062E0
6.594583000E0,-7.150630188E0,-2.462828522E0,1.011147308E0,7.630167448E0
6.604516000E0,-7.187303925E0,-2.642604675E0,8.319699097E-1,7.702783335E0
6.614450000E0,-7.613617401E0,-2.487976227E0,1.266665955E0,8.109354985E0
6.624383000E0,-5.104085999E0,-3.044069824E0,2.264490967E0,6.359714955E0
6.634316000E0,-3.810625763E0,-4.231550446E0,2.765499115E0,6.330471802E0
6.644250000E0,-1.989063721E0,-4.971611481E0,1.213825836E0,5.490598179E0
6.654183000E0,-8.051756287E-1,-5.360652466E0,1.124162292E0,5.536121703E0
6.664117000E0,7.490423584E-1,-5.915698242E0,1.219514008E0,6.086358892E0
6.674050000E0,1.503922577E0,-6.568041687E0,7.957452393E-1,6.784848208E0
6.683984000E0,1.567240906E0,-7.188501434E0,9.744735718E-1,7.421616783E0
6.693917000E0,1.523082733E0,-8.978479156E0,3.590583344E0,9.789032522E0
6.703851000E0,-1.173559570E0,-1.174367889E1,7.976911926E0,1.424508196E1
6.713784000E0,-6.285728760E0,-1.461485825E1,1.331451233E1,2.074561896E1
6.723717000E0,-1.345147751E1,-1.812460968E1,2.136073013E1,3.107610843E1
6.733651000E0,-2.121403519E1,-2.075389206E1,2.201067856E1,3.694900939E1
6.743584000E0,-2.102587646E1,-1.873504028E1,1.390698029E1,3.140849115E1
6.753518000E0,-1.202224960E1,-1.045545776E1,7.995772705E0,1.782648209E1
6.763451000E0,1.010324020E1,5.231321411E0,-1.155147858E0,1.143575764E1
6.773385000E0,9.111103363E0,-1.114881592E0,3.042722626E0,9.670228872E0
6.783318000E0,-6.689738617E0,-8.442593536E0,7.636968842E0,1.320429027E1
6.793252000E0,-5.979166260E0,-1.052476364E1,9.610015869E-1,1.214267693E1
6.803185000E0,-7.824079742E0,-1.354727829E1,3.604953461E0,1.605430355E1
6.813119000E0,-9.597741394E0,-1.486304214E1,9.220226440E0,1.995092071E1
6.823052000E0,-8.655450897E0,-1.873459122E1,1.034468811E1,2.308493687E1
6.832985000E0,-8.912167053E0,-2.375335464E1,9.153315582E0,2.697094297E1
6.842919000E0,-7.713759155E0,-2.678395248E1,8.485703888E0,2.913570595E1
6.852852000E0,-3.665577393E0,-1.478026428E1,2.690654755E0,1.546390290E1
6.862786000E0,-2.457739105E0,-4.731959839E0,-7.395520935E0,9.117327203E0
6.872719000E0,-7.087760925E-1,-2.925815735E0,-1.085707260E1,1.126671144E1
6.882653000E0,3.549119568E-1,-3.318149872E0,-6.065985718E0,6.923313065E0
6.892586000E0,1.471140747E0,-3.355721741E0,2.821183319E0,4.624305226E0
6.902520000E0,3.754642181E0,-2.258802795E0,1.733096008E0,4.712021833E0
6.912453000E0,4.624483337E0,-2.453847198E0,-7.755671997E0,9.357225034E0
6.922387000E0,3.574566650E0,-3.483855286E0,-9.260343018E0,1.051992049E1
6.932320000E0,2.311044159E0,-5.498066711E0,-4.848118286E0,7.685955606E0
6.942253000E0,7.135661316E-1,-8.445138245E0,-2.301913147E0,8.782274235E0
6.952187000E0,-5.328918457E-2,-9.850266266E0,1.279688873E0,9.933186239E0
6.962120000E0,-8.255332947E-1,-1.037223083E1,2.284848633E0,1.065294377E1
6.972054000E0,-9.333091736E-1,-1.056398209E1,-6.361770630E-1,1.062419431E1
6.981987000E0,-8.196954346E-1,-1.082638641E1,-3.075205078E0,1.128447738E1
6.991921000E0,-9.605525208E-1,-1.125404709E1,-2.639311523E0,1.159923283E1
7.001854000E0,-1.553170166E0,-1.161838943E1,-9.066645813E-1,1.175675769E1
7.011788000E0,-2.020198975E0,-1.173320068E1,3.532653809E-1,1.191108721E1
7.021721000E0,-2.520308990E0,-1.189097260E1,4.119433594E-1,1.216210853E1
7.031655000E0,-3.119662628E0,-1.178005325E1,-3.375480652E-1,1.219081163E1
7.041588000E0,-3.916755066E0,-1.155881332E1,-7.917036438E-1,1.223004212E1
7.051521000E0,-4.916975098E0,-1.163635208E1,-6.691085815E-1,1.265025850E1
7.061455000E0,-6.335575104E0,-1.187555466E1,-2.957849121E-1,1.346312739E1
7.071388000E0,-7.698640594E0,-1.132215546E1,-9.175918579E-2,1.369192064E1
7.081322000E0,-7.882458344E0,-9.737400970E0,8.210426331E-1,1.255484919E1
7.091255000E0,-6.798712006E0,-7.935747528E0,1.144370270E0,1.051228601E1
7.101189000E0,-5.253325653E0,-6.861880646E0,4.153862000E-1,8.651900491E0
7.111122000E0,-3.817212067E0,-6.365961914E0,-5.658233643E-1,7.444241743E0
7.121056000E0,-2.528392181E0,-6.151308289E0,-1.688189392E0,6.861584664E0
7.130989000E0,-1.058898010E0,-6.465355225E0,-2.189197540E0,6.907580549E0
7.140923375E0,6.316864014E-2,-6.913672943E0,-2.185155945E0,7.251053051E0
7.150856375E0,1.598675537E-1,-7.573351135E0,-2.097588043E0,7.860094188E0
7.160789375E0,6.472540283E-1,-8.035589905E0,-1.440753937E0,8.189347642E0
7.170723375E0,1.241667938E0,-8.074958038E0,-7.141648865E-1,8.201019331E0
7.180656375E0,1.759141846E0,-8.190368042E0,3.954776001E-1,8.386483842E0
7.190590375E0,1.951791229E0,-8.474477234E0,1.668879547E0,8.855021871E0
7.200523375E0,1.613943787E0,-8.894952850E0,2.350561981E0,9.340778468E0
7.210457375E0,7.134164429E-1,-9.224417725E0,1.772613831E0,9.420244433E0
7.220390375E0,-3.935316467E-1,-9.311536560E0,6.282435608E-1,9.340999424E0
7.230324375E0,-1.607207794E0,-9.042994995E0,-1.773811340E-1,9.186421471E0
7.240257375E0,-2.856060791E0,-8.911418610E0,-7.135661316E-1,9.385075466E0
7.250190375E0,-4.053869934E0,-9.251511383E0,-7.294331360E-1,1.012701323E1
7.260124375E0,-4.824766846E0,-9.664203186E0,-2.290237427E-1,1.080405712E1
7.270057375E0,-5.009782104E0,-9.926457825E0,9.024732971E-1,1.115557886E1
7.279991375E0,-5.323529663E0,-9.895023193E0,1.984423370E0,1.141005645E1
7.289924375E0,-6.052962799E0,-9.969568176E0,1.801803131E0,1.180157374E1
7.299858375E0,-7.295229492E0,-1.024529480E1,5.038522339E-1,1.258730734E1
7.309791375E0,-8.639883270E0,-1.017883301E1,-7.637118530E-1,1.337308791E1
7.319725375E0,-9.361382904E0,-9.844129028E0,-1.824406128E0,1.370659782E1
7.329658375E0,-8.743018799E0,-9.664352875E0,-2.292782135E0,1.323242019E1
7.339592375E0,-7.495662689E0,-1.035711227E1,-1.641935577E0,1.288994516E1
7.349525375E0,-6.596482544E0,-1.141975250E1,-5.245092773E-1,1.319846351E1
7.359458375E0,-5.734425201E0,-1.216460358E1,6.719526672E-1,1.346524166E1
7.369392375E0,-5.092709656E0,-1.297307236E1,2.375260620E0,1.413782731E1
7.379325375E0,-5.331313477E0,-1.427162201E1,3.370989990E0,1.560338655E1
7.389259375E0,-5.961652679E0,-1.488100479E1,2.624642029E0,1.624420980E1
7.399192375E0,-6.464157715E0,-1.438837921E1,1.767674103E0,1.587247501E1
7.409126375E0,-6.717880096E0,-1.383977005E1,1.376387787E0,1.544550392E1
7.419059375E0,-5.767955475E0,-1.359652588E1,1.420545959E0,1.483754620E1
7.428993375E0,-3.727249146E0,-1.374831024E1,2.229912872E0,1.441807657E1
7.438926375E0,-8.909472656E-1,-1.327469513E1,3.688629456E0,1.380642260E1
7.448860375E0,8.804690552E-1,-1.281844391E1,6.350843353E0,1.433251343E1
7.458793375E0,1.507066040E0,-1.311812073E1,7.204667816E0,1.504206029E1
7.468726375E0,5.653742981E-1,-1.443388458E1,5.169200592E0,1.534201118E1
7.478660375E0,-4.930746460E-1,-1.630095200E1,6.968009949E-1,1.632328675E1
7.488593375E0,-1.476978607E0,-1.725222382E1,-4.319268036E0,1.784591743E1
7.498527375E0,-2.168540497E0,-1.719145020E1,-7.311246185E0,1.880698935E1
7.508460375E0,-2.553390198E0,-1.662278275E1,-7.475305023E0,1.840426290E1
7.518394375E0,-3.390299835E0,-1.523876083E1,-4.643044739E0,1.628716762E1
7.528327375E0,-4.511917419E0,-1.402792877E1,-9.383985901E-1,1.476552662E1
7.538261375E0,-4.763843536E0,-1.382390305E1,2.368225250E0,1.481225815E1
7.548194375E0,-4.565356293E0,-1.476095444E1,3.413651276E0,1.582344049E1
7.558127375E0,-4.271068268E0,-1.622116791E1,2.067799988E0,1.690100912E1
7.568061375E0,-3.081342316E0,-1.712453934E1,-2.582878876E0,1.759021834E1
7.577994375E0,-2.932252350E0,-1.603405701E1,-4.167034607E0,1.682418692E1
7.587928375E0,-3.531456299E0,-1.287682251E1,-2.141895905E0,1.352299743E1
7.597861375E0,-3.462150421E0,-1.015458344E1,1.350192261E-1,1.072941193E1
7.607795375E0,-2.871329041E0,-8.296647034E0,5.794450378E-1,8.798558917E0
7.617728375E0,-2.610571289E0,-7.134912872E0,-5.252577209E-1,7.615639161E0
7.627662375E0,-2.230212250E0,-6.439459076E0,-1.462309113E0,6.969851348E0
7.637595375E0,-1.598226471E0,-5.864055634E0,-2.548600159E0,6.590663024E0
7.647529375E0,-8.506809998E-1,-5.192851410E0,-3.433709564E0,6.283289369E0
7.657462375E0,-3.460803223E-1,-4.499642944E0,-3.738924866E0,5.860556063E0
7.667395375E0,-3.104544067E-1,-3.878883820E0,-3.442241821E0,5.195300798E0
7.677329375E0,3.083587646E-2,-3.323239288E0,-3.146905975E0,4.576886216E0
7.687262375E0,9.026229858E-1,-1.919009399E0,-2.924618225E0,3.612577624E0
7.697196375E0,9.482780457E-1,-1.049916687E0,-2.372266846E0,2.762101788E0
7.707129375E0,9.701325989E-1,-7.779322815E-1,-2.143692169E0,2.478255840E0
7.717063375E0,1.235081635E0,-1.445843353E0,-1.951940918E0,2.725062016E0
7.726996375E0,1.258582764E0,-2.286794586E0,-1.807491302E0,3.174977931E0
7.736930375E0,1.300046539E0,-2.663261719E0,-1.875300293E0,3.507112085E0
7.746863375E0,1.931433563E0,-2.732866974E0,-2.045795746E0,3.922279661E0
7.756797375E0,2.724334717E0,-2.718646545E0,-1.874701538E0,4.281068155E0
7.766730375E0,3.000360718E0,-2.731220398E0,-1.350341949E0,4.276114203E0
7.776663375E0,2.898422699E0,-3.220702515E0,-8.363108826E-1,4.412844289E0
7.786597375E0,2.310744781E0,-3.720213776E0,-4.670288086E-2,4.379693270E0
7.796530375E0,1.596729584E0,-4.045337677E0,1.213975525E0,4.515311602E0
7.806464375E0,6.649172974E-1,-4.604874115E0,2.256258087E0,5.170849174E0
7.816397375E0,-1.521885223E0,-5.726641388E0,3.505260773E0,6.884577642E0
7.826331375E0,-4.172872467E0,-6.963519287E0,6.437962189E0,1.036102421E1
7.836264375E0,-6.006409607E0,-9.268875275E0,1.149190247E1,1.593903471E1
7.846198375E0,-7.134763184E0,-1.376971573E1,1.507934235E1,2.163091497E1
7.856131375E0,-1.063298859E1,-1.907707901E1,1.843895599E1,2.858304546E1
7.866064375E0,-1.799348236E1,-2.338586884E1,2.456990662E1,3.839719495E1
7.875998375E0,-2.083472397E1,-2.633264099E1,1.814257233E1,3.816604034E1
7.885931375E0,-1.583736603E1,-2.026021866E1,1.084973785E1,2.791084797E1
7.895865375E0,-1.123713226E1,-9.055419159E0,9.514963531E0,1.728607210E1
7.905798375E0,-7.216792603E0,-3.027005310E0,7.119644623E0,1.057989585E1
7.915732375E0,-3.722908173E0,-6.777905273E-1,4.295317841E0,5.724438891E0
7.925665375E0,-3.332070923E0,-1.342258759E0,2.276016998E0,4.252600215E0
7.935599375E0,-5.919440460E0,-4.172273712E0,6.477030945E-1,7.270980855E0
7.945532375E0,-6.548282776E0,-7.514373779E0,-2.598446503E0,1.030037596E1
7.955466375E0,-5.977819061E0,-1.002016296E1,-5.031187592E0,1.270633051E1
7.965399375E0,-5.969137115E0,-1.213870743E1,-5.596262512E0,1.463888555E1
7.975332375E0,-7.220385132E0,-1.555894501E1,-3.742816772E0,1.755629256E1
7.985266375E0,-9.082213440E0,-1.929307983E1,1.180295563E1,2.437251099E1
7.995199375E0,-2.875520325E0,-1.929263077E1,1.806608139E1,2.658679213E1
8.005133375E0,9.907597046E0,-1.215442474E1,1.934577026E0,1.579978191E1
8.015066375E0,1.425740158E1,-5.800737305E0,-4.746928711E0,1.610761886E1
8.025000375E0,5.588329010E0,-4.398153992E0,-2.613565063E0,7.576536280E0
8.034933375E0,2.851270752E0,-1.302591248E0,-3.693269806E0,4.844247178E0
8.044867375E0,3.560944977E0,-7.342231750E-1,-6.002218323E0,7.017552108E0
8.054800375E0,3.657045135E0,-3.146606598E0,-7.397766266E0,8.831877373E0
8.064734375E0,2.089953918E0,-6.852599945E0,-8.571176147E0,1.117099342E1
8.074667375E0,3.162922668E-1,-9.812095642E0,-7.627837830E0,1.243226334E1
8.084600375E0,-1.739382935E0,-1.196716415E1,-3.642974396E0,1.262971628E1
8.094534375E0,-4.388873291E0,-1.373259293E1,-1.083746338E-1,1.441728346E1
8.104467375E0,-5.229225769E0,-1.470916214E1,-1.461111603E0,1.567925700E1
8.114401375E0,-4.356091461E0,-1.443852493E1,-2.840044098E0,1.534641279E1
8.124334375E0,-4.393962708E0,-1.329610062E1,-1.827848969E0,1.412211853E1
8.134268375E0,-5.499713287E0,-1.242775635E1,4.463717651E-1,1.359761824E1
8.144201458E0,-6.301745453E0,-1.174846893E1,2.082170105E0,1.349347807E1
8.154135458E0,-5.875431976E0,-1.084180435E1,8.755293274E-1,1.236252297E1
8.164068458E0,-5.267695770E0,-1.024095383E1,-5.800437927E-1,1.153092385E1
8.174001458E0,-5.127138062E0,-9.695039063E0,-9.842033386E-1,1.101135702E1
8.183935458E0,-5.315446472E0,-9.282347260E0,-5.813909912E-1,1.071232735E1
8.193868458E0,-5.507646790E0,-8.942254486E0,3.429368591E-1,1.050788723E1
8.203802458E0,-5.348377991E0,-8.641679535E0,8.192463684E-1,1.019582939E1
8.213735458E0,-4.925657043E0,-8.430019684E0,5.289999390E-1,9.777891905E0
8.223669458E0,-4.421206055E0,-7.860903168E0,-3.186872864E-1,9.024545594E0
8.233602458E0,-3.555256805E0,-7.192243652E0,-1.623972931E0,8.185689207E0
8.243536458E0,-2.572700043E0,-6.976392517E0,-2.806364136E0,7.947610819E0
8.253469458E0,-1.422491913E0,-6.941664734E0,-3.293900299E0,7.814088027E0
8.263403458E0,-6.604266357E-1,-7.239994354E0,-3.252137146E0,7.964300196E0
8.273336458E0,-1.056802368E-1,-7.703879700E0,-2.075284424E0,7.979206488E0
8.283269458E0,7.828720093E-2,-8.064928894E0,-6.593788147E-1,8.092217704E0
8.293203458E0,9.939331055E-2,-8.326884155E0,5.032534790E-1,8.342670006E0
8.303136458E0,3.246748352E-1,-8.393795013E0,1.638043671E0,8.558293962E0
8.313070458E0,2.538720703E-1,-8.265362091E0,1.903441772E0,8.485502466E0
8.323003458E0,-3.254232788E-1,-7.989036713E0,1.535656586E0,8.141796427E0
8.332937458E0,-1.364412689E0,-7.871531067E0,9.598040771E-1,8.046356144E0
8.342870458E0,-2.605631561E0,-7.792495422E0,-2.472857666E-1,8.220307232E0
8.352804458E0,-3.259022827E0,-8.138426056E0,-1.082997894E0,8.833351170E0
8.362737458E0,-3.472329254E0,-8.834628296E0,-1.326092377E0,9.584688235E0
8.372671458E0,-3.668571167E0,-9.684710541E0,-8.879534912E-1,1.039425293E1
8.382604458E0,-3.594475250E0,-1.010338989E1,3.269201660E-1,1.072872856E1
8.392537458E0,-3.369792480E0,-9.967921600E0,1.708547058E0,1.065992943E1
8.402471458E0,-3.278482361E0,-1.004635849E1,2.476001129E0,1.085395537E1
8.412404458E0,-4.004023590E0,-1.026655060E1,1.906884613E0,1.118349118E1
8.422338458E0,-6.146218872E0,-1.054766602E1,1.646575928E-3,1.220775440E1
8.432271458E0,-8.344547424E0,-1.057999878E1,-1.798809357E0,1.359424735E1
8.442205458E0,-9.829160156E0,-1.019020935E1,-2.288141785E0,1.434183910E1
8.452138458E0,-1.029499146E1,-9.465715942E0,-1.959125977E0,1.412178466E1
8.462072458E0,-9.765392761E0,-9.548344116E0,-1.400787048E0,1.372938365E1
8.472005458E0,-8.848100281E0,-1.065125061E1,-4.945715332E-1,1.385577927E1
8.481938458E0,-7.643854523E0,-1.154953262E1,7.006929016E-1,1.386763088E1
8.491872458E0,-6.291267242E0,-1.219708603E1,1.765428772E0,1.383711277E1
8.501805458E0,-5.317841492E0,-1.335103638E1,2.860401764E0,1.465303753E1
8.511739458E0,-5.507796478E0,-1.463880844E1,3.831731873E0,1.610318924E1
8.521672458E0,-5.855972443E0,-1.493115051E1,3.588487701E0,1.643499050E1
8.531606458E0,-4.806953888E0,-1.398811157E1,2.562221832E0,1.501129747E1
8.541539458E0,-4.199517059E0,-1.317066147E1,2.482886810E0,1.404517689E1
8.551473458E0,-4.555027771E0,-1.327005478E1,2.460583191E0,1.424419536E1
8.561406458E0,-3.640729065E0,-1.335896988E1,1.428329773E0,1.391966631E1
8.571340458E0,-1.507814484E0,-1.287951691E1,3.539090424E0,1.344174919E1
8.581273458E0,-3.650907898E-1,-1.305106018E1,7.203619995E0,1.491159295E1
8.591206458E0,-6.276448059E-1,-1.437520660E1,6.809339905E0,1.591878176E1
8.601140458E0,-9.205856323E-1,-1.661859146E1,3.081791382E0,1.692697546E1
8.611073458E0,-1.382225647E0,-1.817625229E1,-3.016377411E0,1.847661299E1
8.621007458E0,-1.754052429E0,-1.814930832E1,-8.052804108E0,1.993293120E1
8.630940458E0,-1.493444366E0,-1.715717148E1,-9.433832245E0,1.963660103E1
8.640874458E0,-2.493065643E0,-1.551418808E1,-7.468718719E0,1.739790698E1
8.650807458E0,-3.586691437E0,-1.387419846E1,-3.605103149E0,1.477682330E1
8.660741458E0,-4.263434143E0,-1.268102966E1,1.019529877E0,1.341733301E1
8.670674458E0,-4.222868500E0,-1.272384064E1,3.700754242E0,1.390770725E1
8.680607458E0,-4.000880127E0,-1.360371094E1,3.214265900E0,1.453958384E1
8.690541458E0,-4.012555847E0,-1.458387268E1,8.517288208E-1,1.514976530E1
8.700474458E0,-3.596421204E0,-1.483939133E1,-4.348457336E0,1.587610978E1
8.710408458E0,-4.111200714E0,-1.314147217E1,-3.983366547E0,1.433413657E1
8.720341458E0,-4.230502625E0,-1.062116318E1,-2.366578674E-1,1.143513300E1
8.730275458E0,-2.798280945E0,-8.896449738E0,1.271755371E0,9.412468109E0
8.740208458E0,-2.006726990E0,-7.887996826E0,5.977070618E-1,8.161170313E0
8.750142458E0,-2.089055786E0,-7.052135010E0,-1.180145874E0,7.449127906E0
8.760075458E0,-1.697769470E0,-6.027815094E0,-2.329755249E0,6.681671610E0
8.770009458E0,-1.527872772E0,-5.411546631E0,-2.818788300E0,6.290055614E0
8.779942458E0,-1.260977783E0,-5.068460083E0,-3.135379944E0,6.091794479E0
8.789875458E0,-1.110690308E0,-4.851411438E0,-3.258723450E0,5.948874215E0
8.799809458E0,-8.554710388E-1,-4.706812134E0,-3.096011810E0,5.698350664E0
8.809742458E0,-1.731898499E-1,-4.299359436E0,-3.316054230E0,5.432375350E0
8.819676458E0,3.221301270E-1,-3.291654968E0,-2.793191528E0,4.329050608E0
8.829609458E0,4.505630493E-1,-2.887046356E0,-2.125579834E0,3.613327186E0
8.839543458E0,9.193881226E-1,-2.910697174E0,-2.057920532E0,3.681367881E0
8.849476458E0,1.445993042E0,-3.126847687E0,-2.072140961E0,4.020179162E0
8.859410458E0,2.144440613E0,-3.361409912E0,-2.059567108E0,4.487707523E0
8.869343458E0,2.969375153E0,-3.086282043E0,-1.841021576E0,4.661725656E0
8.879276458E0,3.424279175E0,-3.004252625E0,-1.697919159E0,4.861496803E0
8.889210458E0,3.756139069E0,-3.173251190E0,-1.395248566E0,5.111244700E0
8.899143458E0,3.616928558E0,-3.663930817E0,-8.611592102E-1,5.219976668E0
8.909077458E0,2.959046631E0,-4.328848114E0,-2.993774414E-1,5.252095754E0
8.919010458E0,2.248474274E0,-4.669389954E0,4.526586914E-1,5.202282094E0
8.928944458E0,1.800156555E0,-4.730762329E0,1.434766388E0,5.261105438E0
8.938877458E0,2.543211365E-1,-5.356311493E0,2.187251587E0,5.791271152E0
8.948811458E0,-2.490520935E0,-6.572232971E0,3.484903107E0,7.844838457E0
8.958744458E0,-5.092410278E0,-8.117619324E0,7.082372131E0,1.191588775E1
8.968678458E0,-6.843768311E0,-1.092413315E1,1.214469498E1,1.771065967E1
8.978611458E0,-8.381969604E0,-1.504985367E1,1.478026428E1,2.269827575E1
8.988544458E0,-1.278117142E1,-1.941552521E1,2.105910736E1,3.136569726E1
8.998478458E0,-1.939441910E1,-2.433744003E1,2.546818863E1,4.021297193E1
9.008411458E0,-1.961371307E1,-2.509276932E1,1.626861923E1,3.576328822E1
9.018345458E0,-1.621323441E1,-1.542422516E1,9.516909485E0,2.431763265E1
9.028278458E0,-1.224289078E1,-4.164190521E0,6.029311981E0,1.426819751E1
9.038212458E0,-6.338269501E0,2.716550903E0,1.831291809E0,7.134909864E0
9.048145458E0,-2.000440063E0,5.380710754E0,-3.711382141E0,6.835800324E0
9.058079458E0,4.818330231E0,-2.284249878E-1,-1.026595184E1,1.134276207E1
9.068012458E0,2.898123322E0,-8.795110474E0,-4.058510284E0,1.011061782E1
9.077945458E0,-1.242416382E0,-1.209724365E1,-2.089953918E0,1.233915758E1
9.087879458E0,-8.933273163E0,-1.459120743E1,4.131708069E0,1.760050326E1
9.097812458E0,-1.234991821E1,-1.685764435E1,6.656657410E0,2.193197986E1
9.107746458E0,-1.371747437E1,-1.997655853E1,9.560618591E0,2.605067027E1
9.117679458E0,-1.170520889E1,-2.154439819E1,1.096335159E1,2.685829643E1
9.127613458E0,-4.582121429E0,-1.632370468E1,3.192111969E0,1.725249982E1
9.137546125E0,3.313958588E0,-9.646090851E0,-1.667532349E0,1.033489499E1
9.147480125E0,7.853718109E0,-5.030588837E0,-4.254153442E-1,9.336417428E0
9.157413125E0,5.576204224E0,-1.730102234E0,-1.436263275E0,6.012500269E0
9.167346125E0,2.113604736E0,-6.125262451E-1,-4.978347473E0,5.443019102E0
9.177280125E0,3.357068939E0,-1.076710968E0,-1.080767532E1,1.136816011E1
9.187213125E0,4.277055817E0,-2.549797668E0,-1.283490967E1,1.376697428E1
9.197147125E0,3.090623016E0,-4.939877472E0,-9.597292328E0,1.122774956E1
9.207080125E0,2.020797729E0,-6.958130493E0,-5.876030731E0,9.328823108E0
9.217014125E0,2.655477905E-1,-9.391320648E0,-1.099313965E0,9.459170700E0
9.226947125E0,-2.229912872E0,-1.234348160E1,3.171155548E0,1.293793944E1
9.236881125E0,-3.594026184E0,-1.468970261E1,1.207538910E0,1.517110863E1
9.246814125E0,-3.742667084E0,-1.608435242E1,-1.813179474E0,1.661329496E1
9.256748125E0,-4.145479431E0,-1.631577118E1,-2.276466064E0,1.698739788E1
9.266681125E0,-4.968917084E0,-1.587284225E1,-9.496252441E-1,1.665950318E1
9.276614125E0,-5.516927490E0,-1.480421448E1,-1.245410156E-1,1.579926472E1
9.286548125E0,-5.415438538E0,-1.289957520E1,1.930984497E-2,1.399022472E1
9.296481125E0,-4.911286926E0,-1.033361115E1,1.160087585E-1,1.144192801E1
9.306415125E0,-4.270020447E0,-8.433612213E0,2.833607483E-1,9.457229134E0
9.316348125E0,-3.644920349E0,-7.240443420E0,4.725672913E-1,8.119900561E0
9.326282125E0,-3.319646759E0,-7.165449371E0,3.335064697E-1,7.904109429E0
9.336215125E0,-3.199446716E0,-7.840545502E0,-2.035766602E-1,8.470658564E0
9.346149125E0,-3.256627808E0,-8.299940186E0,-1.222358093E0,8.999377260E0
9.356082125E0,-3.315006409E0,-8.387358398E0,-1.992207184E0,9.236121364E0
9.366015125E0,-3.046913910E0,-8.233179016E0,-2.052232361E0,9.015574233E0
9.375949125E0,-2.407443695E0,-7.967182159E0,-1.791474609E0,8.513586670E0
9.385882125E0,-1.451531525E0,-7.535629578E0,-1.669478302E0,7.853649769E0
9.395816125E0,-6.731501770E-1,-7.313341827E0,-1.346450043E0,7.466661072E0
9.405749125E0,-1.691482544E-2,-7.036717072E0,-5.135820007E-1,7.055454608E0
9.415683125E0,5.143304443E-1,-6.936874695E0,5.520520020E-1,6.977788170E0
9.425616125E0,6.680607605E-1,-7.072193298E0,1.211281128E0,7.206207407E0
9.435550125E0,5.993536377E-1,-7.410040741E0,1.477727051E0,7.579683753E0
9.445483125E0,4.278103638E-1,-8.036338348E0,1.384021912E0,8.165860176E0
9.455416125E0,-1.408570862E-1,-8.400381317E0,9.478289795E-1,8.454858175E0
9.465350125E0,-8.146060181E-1,-8.447982330E0,3.559597778E-1,8.494627466E0
9.475283125E0,-1.607806549E0,-8.515941010E0,-5.269042969E-1,8.682391451E0
9.485217125E0,-2.409239960E0,-8.601712646E0,-1.105451202E0,9.000884401E0
9.495150125E0,-3.105292511E0,-9.165739746E0,-1.075214081E0,9.737027883E0
9.505084125E0,-3.506757660E0,-1.013392639E1,-3.887416077E-1,1.073056072E1
9.515017125E0,-3.926933899E0,-1.079076050E1,1.013542328E0,1.152773135E1
9.524951125E0,-4.724026337E0,-1.103834564E1,1.797462158E0,1.214052592E1
9.534884125E0,-6.352040863E0,-1.095047836E1,1.562750244E0,1.275553166E1
9.544818125E0,-7.883356476E0,-1.041159897E1,9.809101868E-1,1.309621652E1
9.554751125E0,-8.904383240E0,-9.572294312E0,4.110452271E-1,1.307997773E1
9.564684125E0,-9.594747620E0,-9.090296631E0,-5.480104065E-1,1.322849160E1
9.574618125E0,-9.789342957E0,-9.423803101E0,-1.068627777E0,1.363016015E1
9.584551125E0,-9.204658813E0,-1.060140427E1,-6.444099426E-1,1.405456440E1
9.594485125E0,-8.016729126E0,-1.181373322E1,9.550140381E-2,1.427730223E1
9.604418125E0,-6.678961029E0,-1.293041107E1,1.878892822E0,1.467427304E1
9.614352125E0,-5.712271271E0,-1.405397461E1,3.302432556E0,1.552579486E1
9.624285125E0,-5.176984406E0,-1.475676315E1,3.605103149E0,1.604867580E1
9.634219125E0,-5.292843475E0,-1.477263016E1,3.327280884E0,1.604105956E1
9.644152125E0,-5.768853607E0,-1.359338242E1,2.130369873E0,1.491972497E1
9.654085125E0,-6.366560669E0,-1.258103760E1,1.643432465E0,1.419564976E1
9.664019125E0,-6.430477753E0,-1.302755905E1,1.041234741E0,1.456545601E1
9.673952125E0,-4.937931519E0,-1.364756973E1,2.324516144E0,1.469839116E1
9.683886125E0,-1.785037994E0,-1.333097809E1,6.550378418E0,1.496024047E1
9.693819125E0,8.547225952E-2,-1.393063110E1,8.732241211E0,1.644146663E1
9.703753125E0,8.213420105E-1,-1.580174011E1,6.447542267E0,1.708626333E1
9.713686125E0,1.417851562E0,-1.840123444E1,2.549049225E0,1.863097914E1
9.723620125E0,3.638932800E-1,-1.980800903E1,-3.619922333E0,2.013935148E1
9.733553125E0,1.004411316E-1,-1.879386795E1,-9.745633850E0,2.117066225E1
9.743487125E0,-4.058061218E-1,-1.697320404E1,-1.092518097E1,2.018945054E1
9.753420125E0,-1.806144104E0,-1.515418671E1,-7.167694702E0,1.686082378E1
9.763353125E0,-2.931952972E0,-1.355970245E1,-1.681752777E0,1.397462598E1
9.773287125E0,-3.658691711E0,-1.304342606E1,3.266058197E0,1.393499639E1
9.783220125E0,-3.544628906E0,-1.367825592E1,4.875960388E0,1.494771116E1
9.793154125E0,-3.272644501E0,-1.490824814E1,2.726580048E0,1.550484774E1
9.803087125E0,-3.851790161E0,-1.608046051E1,-1.600621490E0,1.661263034E1
9.813021125E0,-3.905528412E0,-1.564920731E1,-4.669539642E0,1.679152887E1
9.822954125E0,-4.716242523E0,-1.322904007E1,-2.307900696E0,1.423294946E1
9.832888125E0,-4.227808228E0,-1.066996170E1,8.183482361E-1,1.150617829E1
9.842821125E0,-3.514990540E0,-8.999435577E0,1.426982574E0,9.766333932E0
9.852754125E0,-3.085533600E0,-7.674989777E0,2.091151428E-1,8.274642881E0
9.862688125E0,-2.824925537E0,-6.650220795E0,-1.714684296E0,7.426020680E0
9.872621125E0,-2.526446228E0,-5.871390381E0,-2.939587097E0,7.035433736E0
9.882555125E0,-1.869612122E0,-5.439987488E0,-3.506757660E0,6.736932732E0
9.892488125E0,-1.162482605E0,-5.317691803E0,-3.621868286E0,6.538129840E0
9.902422125E0,-6.286926270E-1,-4.642745361E0,-3.341651001E0,5.754734600E0
9.912355125E0,-1.399589539E-1,-3.607348480E0,-2.834954681E0,4.590154639E0
9.922289125E0,4.061054993E-1,-2.784060516E0,-2.735711060E0,3.924287150E0
9.932222125E0,1.218466187E0,-1.591490479E0,-2.398761749E0,3.125949411E0
9.942155125E0,1.458117828E0,-8.482859802E-1,-1.840871887E0,2.496899279E0
9.952089125E0,1.539548492E0,-8.979826355E-1,-1.915566559E0,2.616481916E0
9.962022125E0,1.771566010E0,-1.579515381E0,-2.047142944E0,3.134343504E0
9.971956125E0,2.124382324E0,-1.841470642E0,-2.163002014E0,3.547194962E0
9.981889125E0,2.593207397E0,-2.071242828E0,-2.347568207E0,4.065199619E0
9.991823125E0,3.054697723E0,-2.318378906E0,-2.274520111E0,4.458643367E0
1.000175613E1,3.326233063E0,-2.626737671E0,-1.902843018E0,4.645900207E0
1.001169012E1,3.273243256E0,-3.083138580E0,-1.357976074E0,4.697229389E0
1.002162312E1,3.049458618E0,-3.705394592E0,-8.668473816E-1,4.876532716E0
1.003155713E1,3.225043488E0,-4.361330566E0,4.355941772E-2,5.424390033E0
1.004149013E1,2.659519501E0,-5.523214417E0,9.499246216E-1,6.203329610E0
1.005142312E1,3.707789612E-1,-6.919510803E0,1.545985107E0,7.099801177E0
1.006135712E1,-2.362237701E0,-8.129744110E0,4.018244019E0,9.371189425E0
1.007129013E1,-4.775668945E0,-9.965376892E0,9.413923645E0,1.451680781E1
1.008122412E1,-7.062463531E0,-1.348800156E1,1.498024841E1,2.135912966E1
1.009115712E1,-1.087458618E1,-1.841335922E1,2.020438477E1,2.941981622E1
1.010109113E1,-2.001712418E1,-2.490805344E1,2.731459900E1,4.203788416E1
1.011102413E1,-2.516117706E1,-2.798700073E1,2.180006653E1,4.349252743E1
1.012095812E1,-1.984348526E1,-1.982986359E1,1.212059509E1,3.055971568E1
1.013089112E1,-1.405487274E1,-7.198530579E0,8.041876831E0,1.772089369E1
1.014082463E1,-8.722661133E0,-5.822891235E-1,4.663851471E0,9.908349429E0
1.015075863E1,-3.698957977E0,1.903890839E0,9.541159058E-1,4.268187860E0
1.016069162E1,-1.484313354E0,6.942562866E-1,-4.335883484E0,4.635198325E0
1.017062562E1,-1.094224548E-1,-3.989803162E0,-8.584348755E0,9.466865695E0
1.018055863E1,2.051783295E0,-9.611662445E0,-8.732091522E0,1.314698794E1
1.019049262E1,2.839595032E-1,-1.447100739E1,-6.521039429E0,1.587496907E1
1.020042562E1,-5.119953003E0,-1.921000259E1,-3.198099518E0,2.013618531E1
1.021035962E1,-1.447909058E1,-2.332464615E1,1.142109970E1,2.973423448E1
1.022029263E1,-1.956072327E1,-2.390214523E1,2.244402740E1,3.817942912E1
1.023022562E1,-7.943980408E0,-1.708053085E1,8.337062988E0,2.059995093E1
1.024015962E1,5.069507904E0,-8.187973022E0,-4.974305878E0,1.083912042E1
1.025009263E1,1.302725967E1,-2.051483917E0,-4.723577271E0,1.400822127E1
1.026002663E1,1.385279297E1,7.408094788E-1,8.023315430E-2,1.387281907E1
1.026995962E1,8.124804382E0,1.396595764E-1,-4.166735229E0,9.132011472E0
1.027989362E1,3.728895721E0,-1.712139587E0,-8.574768677E0,9.505931997E0
1.028982663E1,2.349065094E0,-3.571423187E0,-9.710906067E0,1.061013040E1
1.029976062E1,1.917063446E0,-6.680607605E0,-9.323062592E0,1.162863476E1
1.030969362E1,2.037413177E0,-1.021026764E1,-7.887248383E0,1.306174968E1
1.031962762E1,8.885522461E-1,-1.309836182E1,-4.274511108E0,1.380681182E1
1.032956063E1,-1.880988464E0,-1.520508087E1,6.183641052E-1,1.533345936E1
1.033949362E1,-4.075874176E0,-1.569665863E1,1.525328064E0,1.628878351E1
1.034942762E1,-4.082011414E0,-1.472847198E1,-1.073268127E0,1.532131224E1
1.035936063E1,-4.272714844E0,-1.399350037E1,-9.993218994E-1,1.466536017E1
1.036929463E1,-5.067262573E0,-1.352482498E1,5.424719238E-1,1.445310751E1
1.037922762E1,-5.178181915E0,-1.287322998E1,3.385958862E-1,1.387977901E1
1.038916162E1,-4.917424164E0,-1.162108383E1,-5.182223511E-1,1.262929944E1
1.039909463E1,-5.056035919E0,-1.038854691E1,-3.872447205E-1,1.156007632E1
1.040902862E1,-5.408552856E0,-9.313332825E0,2.933898926E-1,1.077388927E1
1.041896162E1,-5.667214966E0,-8.389753418E0,6.846762085E-1,1.014761398E1
1.042889463E1,-5.382956085E0,-8.056546326E0,4.466711426E-1,9.699673707E0
1.043882863E1,-4.984035645E0,-8.240813141E0,-5.992039490E-1,9.649386400E0
1.044876162E1,-4.367767181E0,-8.095166016E0,-9.684860229E-1,9.249165808E0
1.045869562E1,-3.750899963E0,-7.615263977E0,-9.026229858E-1,8.536757243E0
1.046862863E1,-3.240910492E0,-7.326065369E0,-1.436862030E0,8.138753412E0
1.047856263E1,-2.403402100E0,-7.313641205E0,-2.057172089E0,7.968541041E0
1.048849562E1,-1.530866547E0,-7.175478516E0,-2.253114624E0,7.675126697E0
1.049842962E1,-6.545887756E-1,-7.023095398E0,-1.716779938E0,7.259455130E0
1.050836263E1,-2.851570129E-1,-7.117099915E0,-1.197360077E0,7.222748568E0
1.051829562E1,-2.035766602E-2,-7.364834747E0,-7.854167175E-1,7.406624380E0
1.052822962E1,2.588117981E-1,-7.802225189E0,4.924758911E-2,7.806671940E0
1.053816263E1,3.897894287E-1,-8.405321045E0,1.228944397E0,8.503626403E0
1.054809663E1,2.836601257E-1,-9.077722778E0,2.444716187E0,9.405432002E0
1.055802962E1,3.508703613E-1,-9.427695007E0,3.028801575E0,9.908490407E0
1.056796362E1,9.774673462E-2,-9.539811859E0,2.652035065E0,9.902063155E0
1.057789663E1,-1.046922913E0,-9.447004852E0,1.502874756E0,9.622919557E0
1.058783063E1,-2.487976227E0,-8.917256470E0,3.173400879E-2,9.257888296E0
1.059776362E1,-3.653003540E0,-8.774453430E0,-1.251547394E0,9.586544672E0
1.060769662E1,-4.689897308E0,-9.062753906E0,-1.343306580E0,1.029238154E1
1.061763063E1,-5.179678802E0,-9.636660461E0,-1.601669312E-1,1.094166124E1
1.062756362E1,-4.910388794E0,-9.729168091E0,1.440454559E0,1.099288584E1
1.063749762E1,-4.835544434E0,-9.712402954E0,2.073188782E0,1.104587583E1
1.064743063E1,-5.990692291E0,-1.000818787E1,1.209484863E0,1.172668206E1
1.065736463E1,-7.420668640E0,-9.822124786E0,-6.457571411E-1,1.232710269E1
1.066729762E1,-8.274193726E0,-9.439670105E0,-2.563718719E0,1.281180343E1
1.067723162E1,-8.865164795E0,-9.905202026E0,-3.364852753E0,1.371227217E1
1.068716463E1,-8.786278839E0,-1.096095657E1,-2.771336975E0,1.431857442E1
1.069709763E1,-7.874824219E0,-1.159294235E1,-1.210981750E0,1.406682785E1
1.070703162E1,-6.911427612E0,-1.207958038E1,9.870474243E-1,1.395200188E1
1.071696462E1,-5.789061584E0,-1.252430557E1,2.534529419E0,1.402837494E1
1.072689863E1,-5.381159821E0,-1.323053696E1,2.951412506E0,1.458474631E1
1.073683162E1,-6.059848480E0,-1.404005356E1,2.305805054E0,1.546485061E1
1.074676562E1,-5.541775818E0,-1.369412292E1,1.668729858E0,1.486690759E1
1.075669863E1,-4.739593964E0,-1.288700134E1,1.997446289E0,1.387545841E1
1.076663263E1,-5.489983521E0,-1.328128143E1,3.136128387E0,1.470944108E1
1.077656562E1,-5.016069031E0,-1.399080597E1,3.176095276E0,1.519839404E1
1.078649962E1,-2.937790833E0,-1.377764923E1,3.156336365E0,1.443664409E1
1.079643263E1,-1.303938446E0,-1.316512299E1,4.783452759E0,1.406776951E1
1.080636563E1,-3.743714905E-1,-1.331451233E1,6.126609650E0,1.466123250E1
1.081629962E1,9.071136475E-2,-1.468985229E1,5.906567230E0,1.583311484E1
1.082623262E1,5.962101746E-1,-1.633223694E1,2.806813202E0,1.658238916E1
1.083616663E1,1.924996948E-1,-1.717782852E1,-3.823199615E0,1.759919612E1
1.084609962E1,4.909790039E-2,-1.665032547E1,-8.564589844E0,1.872399391E1
1.085603362E1,-5.065466309E-1,-1.577614334E1,-8.244405670E0,1.780768129E1
1.086596663E1,-1.875599670E0,-1.514640289E1,-5.272785187E0,1.614724925E1
1.087590063E1,-3.198398895E0,-1.441442505E1,-2.086511078E0,1.491170458E1
1.088583362E1,-3.588936768E0,-1.367211868E1,2.999761963E-1,1.413850353E1
1.089576662E1,-3.203338623E0,-1.339489517E1,1.638193359E0,1.386968898E1
1.090570063E1,-3.472179565E0,-1.364352814E1,6.279441833E-1,1.409241657E1
1.091563363E1,-3.586691437E0,-1.372735382E1,-1.111438751E0,1.423165115E1
1.092556762E1,-4.553979950E0,-1.315674042E1,-2.371817780E0,1.412317498E1
1.093550062E1,-5.207371216E0,-1.188199127E1,-3.017425232E0,1.331928251E1
1.094543463E1,-5.896089020E0,-1.048943710E1,-3.716770935E-1,1.203870011E1
1.095536762E1,-5.220244446E0,-9.305848389E0,1.165476379E0,1.073350369E1
1.096530162E1,-3.839365997E0,-8.223598938E0,-3.824546814E-1,9.083753758E0
1.097523463E1,-2.508483582E0,-7.505691833E0,-1.687141571E0,8.091621992E0
1.098516763E1,-1.635498962E0,-6.873256989E0,-2.124681702E0,7.377722604E0
1.099510162E1,-9.930349731E-1,-6.297554169E0,-2.335144043E0,6.789565867E0
1.100503462E1,-6.899153137E-1,-5.862708435E0,-2.779120789E0,6.524633759E0
1.101496863E1,-1.065783691E-1,-4.615052948E0,-3.260220337E0,5.651469659E0
1.102490163E1,6.596781921E-1,-3.745361481E0,-3.052452393E0,4.876512437E0
1.103483562E1,1.510808258E0,-3.534150696E0,-2.393223267E0,4.527723527E0
1.104476862E1,1.954036560E0,-3.423830109E0,-1.818268890E0,4.341310084E0
1.105470263E1,2.084714813E0,-3.642974396E0,-1.585203552E0,4.486665644E0
1.106463562E1,2.285297699E0,-3.792064362E0,-1.390757904E0,4.640748349E0
1.107456862E1,2.824326782E0,-3.904480591E0,-1.261277161E0,4.981225806E0
1.108450263E1,3.384312286E0,-4.040397949E0,-1.201850739E0,5.405814503E0
1.109443563E1,3.673361206E0,-3.755690002E0,-1.249152374E0,5.399923296E0
1.110436962E1,4.070934448E0,-3.404969330E0,-1.112187195E0,5.422479486E0
1.111430262E1,3.983516235E0,-3.385509796E0,-7.821235657E-1,5.285999948E0
1.112423663E1,3.433410187E0,-3.619922333E0,-3.161425781E-1,4.999208871E0
1.113416963E1,2.734962616E0,-4.009711761E0,1.574725342E-1,4.856192595E0
1.114410333E1,1.746118927E0,-4.746180267E0,7.731422424E-1,5.115946380E0
1.115403633E1,1.161734161E0,-5.430706787E0,1.453776855E0,5.740702885E0
1.116396933E1,1.075513458E0,-6.008804626E0,1.888921967E0,6.389873898E0
1.117390333E1,-1.556762695E-2,-7.149133301E0,2.551743622E0,7.590898815E0
1.118383633E1,-2.566712494E0,-8.378826141E0,4.791386261E0,9.987498327E0
1.119377033E1,-5.232069855E0,-9.743538208E0,8.655750275E0,1.404397040E1
1.120370333E1,-7.668104095E0,-1.229647934E1,1.216939362E1,1.892346072E1
1.121363733E1,-1.085901855E1,-1.638837021E1,1.665601364E1,2.576664030E1
1.122357033E1,-1.823433151E1,-2.190230392E1,2.242786102E1,3.626583396E1
1.123350433E1,-2.414853287E1,-2.466301300E1,1.800186493E1,3.892920486E1
1.124343733E1,-2.251827301E1,-1.887634644E1,1.041818527E1,3.117575434E1
1.125337033E1,-1.849478989E1,-8.479716339E0,5.923482056E0,2.119081126E1
1.126330433E1,-1.319820419E1,-1.193019104E0,2.435435486E0,1.347394651E1
1.127323733E1,-7.253316650E0,3.584895172E0,1.463955688E-1,8.092188053E0
1.128317133E1,-5.650150452E0,2.340083771E0,-3.588188324E0,7.090506867E0
1.129310433E1,-5.063969421E0,-2.790646820E0,-6.604266357E0,8.777689337E0
1.130303833E1,-1.962269440E0,-8.970994720E0,-6.008505249E0,1.097412333E1
1.131297133E1,-6.080355835E-1,-1.604438553E1,-5.250182190E0,1.689249618E1
1.132290533E1,-1.642983398E0,-2.092184280E1,-3.907324677E0,2.134689877E1
1.133283833E1,-5.496719513E0,-2.366309235E1,7.676187286E0,2.547704292E1
1.134277133E1,-6.553671570E0,-2.438010132E1,1.894714920E1,3.156476539E1
1.135270533E1,-2.571203156E0,-1.624317215E1,6.756050720E0,1.777908739E1
1.136263833E1,3.846700745E0,-7.861352234E0,-3.562591553E-1,8.759274294E0
1.137257233E1,1.047237259E1,-3.809128876E0,-2.233355713E-1,1.114584807E1
1.138250533E1,1.149953659E1,-2.248174896E0,-1.047821045E-1,1.171770504E1
1.139243933E1,9.491312714E0,-1.585053864E0,-5.942043457E0,1.130952224E1
1.140237233E1,5.876629486E0,-2.873424683E0,-8.591982880E0,1.079877370E1
1.141230633E1,3.385509796E0,-4.988975372E0,-8.389903107E0,1.033160326E1
1.142223933E1,1.564097443E0,-7.477250977E0,-8.832083588E0,1.167738770E1
1.143217233E1,9.216334534E-1,-1.075752960E1,-8.645421753E0,1.383174496E1
1.144210633E1,-5.583389282E-2,-1.334085754E1,-7.095993805E0,1.511074867E1
1.145203933E1,-1.594484253E0,-1.400981644E1,-4.162094879E0,1.470171318E1
1.146197333E1,-3.130589905E0,-1.371672592E1,-6.713539124E-1,1.408544920E1
1.147190633E1,-3.945794678E0,-1.285661453E1,1.033899994E0,1.348817193E1
1.148184033E1,-5.275180206E0,-1.313264053E1,1.206191711E0,1.420382596E1
1.149177333E1,-6.188131714E0,-1.349144440E1,8.087681580E-1,1.486493027E1
1.150170733E1,-6.409221954E0,-1.298564621E1,-4.330494690E-1,1.448767288E1
1.151164033E1,-6.412515106E0,-1.175610306E1,-1.393452301E0,1.346358119E1
1.152157333E1,-7.037315826E0,-1.036160294E1,-1.208287354E0,1.258358406E1
1.153150733E1,-7.174430695E0,-9.274114380E0,-1.481918335E-2,1.172526643E1
1.154144033E1,-5.560935974E0,-8.202343140E0,8.416996765E-1,9.945395931E0
1.155137433E1,-3.693718872E0,-8.106542358E0,4.323010254E-1,8.918882906E0
1.156130733E1,-3.020568695E0,-8.234376526E0,-4.216731262E-1,8.781036399E0
1.157124133E1,-2.914289703E0,-8.024662628E0,-1.624871063E0,8.690713477E0
1.158117433E1,-2.865491180E0,-7.821235657E0,-1.961371307E0,8.557437952E0
1.159110833E1,-2.743345184E0,-7.651788025E0,-2.363884277E0,8.465444563E0
1.160104133E1,-2.972668304E0,-7.551646271E0,-2.658920746E0,8.540139213E0
1.161097433E1,-2.915038147E0,-7.406747589E0,-2.676883392E0,8.397801018E0
1.162090833E1,-2.422412567E0,-6.969656525E0,-1.773961029E0,7.588882161E0
1.163084133E1,-1.624721375E0,-6.661597137E0,-3.394940186E-1,6.865264172E0
1.164077533E1,-5.670208740E-1,-6.595135345E0,4.186793518E-1,6.632692914E0
1.165070833E1,-3.029699707E-1,-7.141948242E0,5.866300964E-1,7.172401994E0
1.166064233E1,-3.369493103E-1,-7.684270477E0,9.623487854E-1,7.751623236E0
1.167057533E1,1.672023010E-1,-8.019722900E0,1.147813110E0,8.103171413E0
1.168050933E1,3.022215271E-1,-8.645870819E0,1.073118439E0,8.717453943E0
1.169044233E1,1.841171265E-1,-9.127868500E0,8.598120117E-1,9.170123181E0
1.170037533E1,-7.065307617E-1,-8.971144409E0,-3.472778320E-2,8.998990151E0
1.171030933E1,-2.010020142E0,-8.833879852E0,-1.000070343E0,9.114699935E0
1.172024233E1,-3.000959473E0,-9.069040833E0,-1.391356659E0,9.653451856E0
1.173017633E1,-3.579656067E0,-9.572893066E0,-9.357041931E-1,1.026302887E1
1.174010933E1,-3.560495911E0,-1.010593460E1,2.130070496E-1,1.071692201E1
1.175004333E1,-3.616030426E0,-1.035726196E1,1.535506897E0,1.107728906E1
1.175997633E1,-4.085454254E0,-1.015997223E1,1.927691345E0,1.111899123E1
1.176991033E1,-5.269641724E0,-1.013841705E1,9.210346985E-1,1.146319891E1
1.177984333E1,-6.384673004E0,-1.010548553E1,-6.963519287E-1,1.197371259E1
1.178977633E1,-7.228468323E0,-1.006566833E1,-1.860630798E0,1.253117633E1
1.179971033E1,-7.425758057E0,-9.948013000E0,-2.440674591E0,1.265155081E1
1.180964333E1,-7.458390198E0,-1.034633469E1,-2.189347229E0,1.294092219E1
1.181957733E1,-7.277865601E0,-1.125883713E1,-1.065184937E0,1.344854491E1
1.182951033E1,-6.881489868E0,-1.210143494E1,4.471202087E-1,1.392837201E1
1.183944433E1,-6.225104828E0,-1.280018188E1,1.867217102E0,1.435559424E1
1.184937733E1,-5.392835541E0,-1.340881622E1,2.849175110E0,1.473081215E1
1.185931133E1,-5.017565918E0,-1.386386993E1,2.993325348E0,1.504469521E1
1.186924433E1,-4.483326874E0,-1.346150665E1,2.297422485E0,1.437325750E1
1.187917733E1,-4.537663879E0,-1.279913406E1,2.051633606E0,1.373380598E1
1.188911133E1,-6.203399963E0,-1.256112900E1,1.992356873E0,1.415039288E1
1.189904433E1,-6.780300293E0,-1.294508057E1,1.241218872E0,1.466588583E1
1.190897833E1,-5.583538971E0,-1.333457062E1,1.770069122E0,1.456433403E1
1.191891133E1,-3.199446716E0,-1.353829697E1,5.018613739E0,1.478879400E1
1.192884533E1,-7.473957825E-1,-1.392614044E1,6.984924774E0,1.559760117E1
1.193877833E1,5.779481506E-1,-1.486663467E1,7.050338745E0,1.646384302E1
1.194871233E1,1.192869415E0,-1.609228592E1,5.373376007E0,1.700757988E1
1.195864533E1,1.058898010E0,-1.712843124E1,3.549119568E-1,1.716480074E1
1.196857833E1,-1.237925720E-1,-1.673834244E1,-5.137915649E0,1.750958621E1
1.197851233E1,7.559280396E-2,-1.592897552E1,-7.662415924E0,1.767627204E1
1.198844533E1,-6.071374512E-1,-1.509161682E1,-6.918912048E0,1.661315317E1
1.199837933E1,-2.228865051E0,-1.380279694E1,-4.490661621E0,1.468506331E1
1.200831233E1,-2.915636902E0,-1.310629532E1,-1.207239532E0,1.348085097E1
1.201824633E1,-3.124602356E0,-1.301917648E1,1.161883850E0,1.343919902E1
1.202817933E1,-2.826422424E0,-1.360311218E1,1.395997009E0,1.396360027E1
1.203811333E1,-2.761756897E0,-1.455408463E1,6.565347290E-1,1.482834172E1
1.204804633E1,-2.747686157E0,-1.539458679E1,-6.225553894E-1,1.565026060E1
1.205797933E1,-2.937491455E0,-1.459749435E1,-1.743424530E0,1.499183867E1
1.206791333E1,-3.720662842E0,-1.215173035E1,2.739303589E-2,1.270860467E1
1.207784633E1,-3.753444672E0,-9.731114044E0,1.596280518E0,1.055135247E1
1.208778033E1,-3.033890991E0,-8.238268433E0,2.043251038E-1,8.781532330E0
1.209771333E1,-2.433639221E0,-7.294630737E0,-1.484612732E0,7.831877962E0
1.210764733E1,-2.135608978E0,-6.246660004E0,-1.951042786E0,6.883905495E0
1.211758033E1,-2.084265747E0,-5.562732239E0,-2.830164642E0,6.580120483E0
1.212751433E1,-1.685494995E0,-5.340893555E0,-3.706741791E0,6.716097978E0
1.213744733E1,-1.111438751E0,-5.201383667E0,-3.498075714E0,6.366020880E0
1.214738025E1,-6.881190491E-1,-5.062023468E0,-2.765050049E0,5.808880373E0
1.215731425E1,-4.367916870E-1,-5.002147980E0,-2.232307892E0,5.495040483E0
1.216724725E1,-2.613565063E-1,-4.943170624E0,-1.746118927E0,5.249016512E0
1.217718125E1,-1.187031555E-1,-4.877008209E0,-1.363963623E0,5.065540078E0
1.218711425E1,5.131329346E-1,-4.528532867E0,-1.666035461E0,4.852482818E0
1.219704825E1,1.385967865E0,-3.891607361E0,-1.711391144E0,4.471506952E0
1.220698125E1,2.249073029E0,-3.362906799E0,-1.615590363E0,4.356329171E0
1.221691525E1,2.848576355E0,-2.704875183E0,-1.641336823E0,4.257314126E0
1.222684825E1,3.271896057E0,-2.315684509E0,-1.611548767E0,4.320276378E0
1.223678125E1,3.448379059E0,-1.842518463E0,-1.211131439E0,4.093046760E0
1.224671525E1,3.446433105E0,-2.001637573E0,-9.955796814E-1,4.107996230E0
1.225664825E1,2.923271027E0,-2.675236816E0,-3.736230469E-1,3.980200962E0
1.226658225E1,1.910776520E0,-3.402274933E0,3.951782227E-2,3.902320244E0
1.227651525E1,8.774752808E-1,-3.972738647E0,5.289999390E-1,4.102737643E0
1.228644925E1,3.900888062E-1,-4.448898468E0,1.565444641E0,4.732386690E0
1.229638225E1,-4.107458496E-1,-5.261708221E0,2.634521484E0,5.898727745E0
1.230631625E1,-2.528092804E0,-6.765930176E0,4.142186279E0,8.326269966E0
1.231624925E1,-4.943619690E0,-8.460107117E0,7.897427216E0,1.258499681E1
1.232618225E1,-6.773713989E0,-1.129057114E1,1.330418381E1,1.871794606E1
1.233611625E1,-9.475296021E0,-1.568932388E1,1.597897156E1,2.431591353E1
1.234604925E1,-1.760279480E1,-2.219808884E1,2.418625443E1,3.725034813E1
1.235598325E1,-2.436498276E1,-2.773088333E1,2.065913910E1,4.230194208E1
1.236591625E1,-2.132435577E1,-2.457050537E1,1.148007706E1,3.449971091E1
1.237585025E1,-1.585203552E1,-1.292442352E1,8.375832367E0,2.210163617E1
1.238578325E1,-1.097128510E1,-4.127367096E0,6.643035736E0,1.347346205E1
1.239571625E1,-5.901777191E0,-1.755848694E-1,4.818779297E0,7.621183502E0
1.240565025E1,-4.048032074E0,-5.727090454E-1,1.106199646E0,4.235355591E0
1.241558325E1,-4.193978577E0,-3.508254547E0,-4.687801666E0,7.202276774E0
1.242551725E1,-1.466350708E0,-6.742728424E0,-7.408992920E0,1.012461096E1
1.243545025E1,9.810598755E-1,-9.768236847E0,-8.107889557E0,1.273258821E1
1.244538425E1,2.546205139E-1,-1.323472824E1,-7.469616852E0,1.519927759E1
1.245531725E1,-3.387306061E0,-1.680435516E1,-3.327280884E0,1.746227342E1
1.246525125E1,-1.267264709E1,-1.963631607E1,1.634900208E1,2.852140884E1
1.247518425E1,-1.210248276E1,-1.974304413E1,1.831815720E1,2.952647563E1
1.248511725E1,-1.468446350E-1,-1.321631653E1,6.732998657E0,1.483326858E1
1.249505125E1,8.894803162E0,-5.854924622E0,-3.412154388E0,1.118214931E1
1.250498425E1,1.205203766E1,-2.341580658E0,-4.970413971E0,1.324536246E1
1.251491825E1,9.373807068E0,-1.877695312E0,-3.945944366E0,1.034236315E1
1.252485125E1,6.036197662E0,-3.563789062E0,-5.029541016E0,8.627430529E0
1.253478525E1,3.858226776E0,-4.955594788E0,-6.373895416E0,8.948205202E0
1.254471825E1,1.577719116E0,-7.258256378E0,-8.282426605E0,1.112519994E1
1.255465225E1,9.657916260E-1,-9.908794556E0,-8.245004425E0,1.292660284E1
1.256458525E1,8.470884705E-1,-1.229513214E1,-5.677094421E0,1.356898059E1
1.257451825E1,-1.321152649E0,-1.325733124E1,-1.169817352E0,1.337425693E1
1.258445225E1,-3.395239563E0,-1.310749283E1,1.529669037E0,1.362622131E1
1.259438525E1,-3.475173340E0,-1.267968246E1,3.564088440E-1,1.315211787E1
1.260431925E1,-3.849544830E0,-1.232611771E1,-3.116519165E-1,1.291701591E1
1.261425225E1,-4.773573303E0,-1.241967316E1,-8.023315430E-2,1.330570257E1
1.262418625E1,-5.001998291E0,-1.169009033E1,-1.907034302E-1,1.271670424E1
1.263411925E1,-4.746479645E0,-1.034453842E1,-7.185058594E-1,1.140415691E1
1.264405325E1,-4.528532867E0,-9.336384888E0,-8.991801453E-1,1.041557572E1
1.265398625E1,-4.728966064E0,-8.984766083E0,-5.617817688E-1,1.016881214E1
1.266391925E1,-5.140310669E0,-8.962761841E0,-2.862048340E-1,1.033614081E1
1.267385325E1,-5.547613678E0,-8.998387756E0,-2.023791504E-1,1.057298241E1
1.268378625E1,-4.787793732E0,-8.675658875E0,-2.646496582E-1,9.912621508E0
1.269372025E1,-3.874243469E0,-8.044571228E0,-9.813592529E-1,8.982647421E0
1.270365325E1,-3.386707306E0,-7.490872650E0,-1.586401062E0,8.372552046E0
1.271358725E1,-2.684517517E0,-7.279512177E0,-2.031874695E0,8.020376961E0
1.272352025E1,-2.285597076E0,-7.491022339E0,-2.383792877E0,8.186686641E0
1.273345425E1,-1.995799713E0,-7.871082001E0,-2.281854858E0,8.434690863E0
1.274338725E1,-1.917362823E0,-8.359665985E0,-1.495240631E0,8.706092127E0
1.275332025E1,-1.794618073E0,-8.809929657E0,-2.231858826E-1,8.993626995E0
1.276325425E1,-1.519490204E0,-8.785680084E0,9.370513916E-1,8.965215576E0
1.277318725E1,-1.187330933E0,-8.453520813E0,1.413510590E0,8.652732578E0
1.278312125E1,-1.157093811E0,-8.061486053E0,1.044827271E0,8.210851813E0
1.279305425E1,-1.157093811E0,-7.724985809E0,5.998027039E-1,7.834158227E0
1.280298825E1,-1.178798676E0,-7.556286621E0,3.323089600E-1,7.654897979E0
1.281292125E1,-1.443148956E0,-7.676187286E0,8.143066406E-2,7.811092185E0
1.282285525E1,-1.596130829E0,-7.773784332E0,-3.233276367E-2,7.936019271E0
1.283278825E1,-1.272803192E0,-8.135731659E0,6.511459351E-2,8.234949757E0
1.284272125E1,-7.653584290E-1,-9.023385773E0,4.626878357E-1,9.067598599E0
1.285265525E1,-3.444337463E-1,-1.001148102E1,9.452842712E-1,1.006190584E1
1.286258825E1,-4.613406372E-1,-1.089748856E1,1.134490814E0,1.096609144E1
1.287252225E1,-1.138083344E0,-1.150747009E1,1.121318207E0,1.161785075E1
1.288245525E1,-2.618504791E0,-1.158979889E1,7.990383911E-1,1.190875594E1
1.289238925E1,-4.890031128E0,-1.088805817E1,-2.926414490E-1,1.193934061E1
1.290232225E1,-6.660848694E0,-1.025547363E1,-1.441801758E0,1.231342507E1
1.291225625E1,-7.829618225E0,-1.020742355E1,-1.497336273E0,1.295131009E1
1.292218925E1,-8.260572052E0,-9.828112335E0,-1.841171265E0,1.296991728E1
1.293212225E1,-8.261470184E0,-9.625134430E0,-2.346670074E0,1.289968848E1
1.294205625E1,-8.166567535E0,-9.919272766E0,-2.162103882E0,1.302917844E1
1.295198925E1,-7.372768250E0,-1.086979614E1,-1.263971558E0,1.319499162E1
1.296192325E1,-6.584806824E0,-1.227252914E1,4.266128540E-2,1.392754366E1
1.297185625E1,-5.629643097E0,-1.346988922E1,1.309476929E0,1.465760986E1
1.298179025E1,-3.453019409E0,-1.346210541E1,2.733166351E0,1.416410334E1
1.299172325E1,-1.772763519E0,-1.331541046E1,4.362378387E0,1.412349785E1
1.300165625E1,-1.955982513E0,-1.342528198E1,4.113895111E0,1.417703061E1
1.301159025E1,-2.151475983E0,-1.251098328E1,2.753374329E0,1.298978913E1
1.302152325E1,-4.856800232E0,-1.205967178E1,2.778671722E0,1.329455560E1
1.303145725E1,-6.780300293E0,-1.207149719E1,1.709145813E0,1.395043712E1
1.304139025E1,-6.706354065E0,-1.231833389E1,8.964857483E-1,1.405418875E1
1.305132425E1,-6.185137939E0,-1.274419830E1,3.837569733E0,1.467642542E1
1.306125725E1,-4.646337891E0,-1.320254517E1,6.682553558E0,1.550974457E1
1.307119125E1,-4.497098236E0,-1.432820435E1,6.185886383E0,1.624150617E1
1.308112425E1,-2.613565063E0,-1.527588364E1,3.906426544E0,1.598260028E1
1.309105725E1,-9.181906128E-1,-1.569396423E1,-4.604425049E-1,1.572754255E1
1.310099125E1,-2.874023438E-1,-1.638672363E1,-5.113067322E0,1.716830711E1
1.311092425E1,-2.588117981E-1,-1.629406631E1,-7.070247345E0,1.776378277E1
1.312085825E1,-1.438658295E0,-1.512589554E1,-6.784641266E0,1.664012652E1
1.313079125E1,-3.073708191E0,-1.414902695E1,-4.509821777E0,1.516512902E1
1.314072521E1,-3.796105957E0,-1.356524094E1,-1.464704132E0,1.416232821E1
1.315065821E1,-3.706292725E0,-1.358904144E1,7.946974182E-1,1.410780625E1
1.316059221E1,-3.490890656E0,-1.396490982E1,1.217568054E0,1.444602007E1
1.317052521E1,-3.000360718E0,-1.470167770E1,5.944139099E-1,1.501648493E1
1.318045821E1,-2.722987518E0,-1.502335876E1,-1.028361511E-1,1.526848207E1
1.319039221E1,-2.513423309E0,-1.427551392E1,-1.277742920E0,1.455129621E1
1.320032521E1,-2.533331909E0,-1.214409622E1,-1.544937286E0,1.250134692E1
1.321025921E1,-2.573448486E0,-9.934241638E0,1.689985657E-1,1.026354493E1
1.322019221E1,-2.738704834E0,-8.348738708E0,1.029708710E0,8.846594950E0
1.323012621E1,-2.320773926E0,-7.405250702E0,4.790039062E-3,7.760396415E0
1.324005921E1,-1.624871063E0,-6.611601105E0,-1.463356934E0,6.963827156E0
1.324999321E1,-1.589544525E0,-6.236630859E0,-2.440225525E0,6.883089196E0
1.325992621E1,-1.284927979E0,-6.202052765E0,-2.913990326E0,6.971932159E0
1.326985921E1,-1.173858948E0,-6.193670197E0,-3.131038971E0,7.038671776E0
1.327979321E1,-1.105750580E0,-6.115083618E0,-2.747087402E0,6.794366872E0
1.328972621E1,-7.948471069E-1,-6.056106262E0,-2.580932922E0,6.630944106E0
1.329966021E1,-2.829116821E-1,-5.634433136E0,-2.181413727E0,6.048590053E0
1.330959321E1,3.969744873E-1,-4.900659027E0,-1.810335388E0,5.239404724E0
1.331952721E1,9.424401855E-1,-4.050876160E0,-1.533560944E0,4.432786971E0
1.332946021E1,1.739532623E0,-3.383563843E0,-1.514251099E0,4.094805785E0
1.333939321E1,2.928061066E0,-2.491568756E0,-1.315464478E0,4.063484128E0
1.334932721E1,3.592229919E0,-2.074236603E0,-1.227896576E0,4.326003153E0
1.335926021E1,4.095483398E0,-1.886227570E0,-1.042432251E0,4.627904894E0
1.336919421E1,4.356839905E0,-2.009122009E0,-7.899073792E-1,4.862363507E0
1.337912721E1,3.977378998E0,-2.466720428E0,-5.016069031E-1,4.707001471E0
1.338906121E1,3.154689789E0,-2.912643127E0,-1.086740112E-1,4.295039894E0
1.339899421E1,2.081122284E0,-3.293750610E0,7.664062500E-2,3.896888096E0
1.340892821E1,1.023870850E0,-3.447929993E0,6.417155457E-1,3.653536861E0
1.341886121E1,1.513352966E-1,-3.652704163E0,1.620679779E0,3.998968994E0
1.342879421E1,-8.319699097E-1,-4.627776489E0,2.313888245E0,5.240474022E0
1.343872821E1,-2.513572998E0,-6.184838562E0,3.275189209E0,7.436204785E0
1.344866121E1,-5.004692688E0,-7.964787140E0,6.382876740E0,1.136775697E1
1.345859521E1,-7.509883118E0,-1.060529617E1,1.127814697E1,1.720660485E1
1.346852821E1,-1.025053391E1,-1.521870255E1,1.514041534E1,2.378895814E1
1.347846221E1,-1.748992950E1,-2.194062424E1,2.313334396E1,3.636537129E1
1.348839521E1,-2.621079437E1,-2.733076538E1,2.052187454E1,4.307114826E1
1.349832921E1,-2.528841248E1,-2.486135056E1,1.077384567E1,3.706300457E1
1.350826221E1,-1.900118683E1,-1.274135422E1,7.117099915E0,2.395913854E1
1.351819521E1,-1.374322083E1,-3.160827026E0,5.749094696E0,1.522888821E1
1.352812921E1,-8.945847015E0,2.022593994E0,4.326902161E0,1.014106245E1
1.353806221E1,-5.532495117E0,2.385589142E0,1.420695648E0,6.190146517E0
1.354799621E1,-4.784051514E0,-1.979034576E0,-4.374652863E0,6.778002243E0
1.355792921E1,-1.745969238E0,-7.754773865E0,-7.229516144E0,1.074480479E1
1.356786321E1,7.834707642E-1,-1.385533768E1,-5.635780334E0,1.497819177E1
1.357779621E1,-9.846524048E-1,-1.785741531E1,-3.094215546E0,1.815023393E1
1.358772921E1,-4.772974548E0,-2.036110886E1,-2.725831604E-1,2.091483544E1
1.359766321E1,-1.319491104E1,-2.076002930E1,8.786278839E0,2.612055110E1
1.360759621E1,-1.523007889E1,-1.707484268E1,1.109298203E1,2.542754030E1
1.361753021E1,1.672023010E-1,-1.066172882E1,1.047057632E1,1.494434296E1
1.362746321E1,1.566118240E1,-4.378844147E0,6.786437531E0,1.762108523E1
1.363739721E1,2.188523941E1,-1.785337372E0,-1.818418579E0,2.203310645E1
1.364733021E1,1.646740585E1,-1.100361786E0,-4.966072998E0,1.723508435E1
1.365726421E1,7.320377197E0,-2.472109222E0,-7.582182770E0,1.082537491E1
1.366719721E1,3.087778931E0,-3.712879028E0,-8.711284790E0,9.960237552E0
1.367713021E1,6.301895142E-1,-5.799240417E0,-1.030876282E1,1.184478447E1
1.368706421E1,8.765771484E-1,-9.495204620E0,-9.878856812E0,1.373022615E1
1.369699721E1,7.762857056E-1,-1.228240860E1,-7.628137207E0,1.447924921E1
1.370693121E1,-7.891589355E-1,-1.362526611E1,-3.410956879E0,1.406788098E1
1.371686421E1,-4.164340210E0,-1.498893036E1,3.608545990E0,1.596970153E1
1.372679821E1,-6.289470978E0,-1.596774490E1,4.173171844E0,1.766187096E1
1.373673121E1,-6.197562103E0,-1.575309128E1,1.431024170E-1,1.692897336E1
1.374666521E1,-5.897436218E0,-1.464988541E1,-2.236349487E0,1.594992650E1
1.375659821E1,-6.091283112E0,-1.331615891E1,-2.103725281E0,1.479356205E1
1.376653121E1,-6.780449982E0,-1.194186676E1,-4.327500916E-1,1.373935793E1
1.377646521E1,-6.907535706E0,-1.006671616E1,1.092727661E0,1.225752330E1
1.378639821E1,-6.448739777E0,-8.764124908E0,1.031055908E0,1.092973954E1
1.379633221E1,-5.461991730E0,-8.943751373E0,1.170565796E-1,1.048035040E1
1.380626521E1,-4.662354584E0,-9.530680847E0,-5.867797852E-2,1.061013057E1
1.381619921E1,-3.661535797E0,-9.284293213E0,2.201921082E-1,9.982656431E0
1.382613221E1,-2.609373779E0,-8.474626923E0,5.276527405E-1,8.882935912E0
1.383606621E1,-2.146835632E0,-7.628137207E0,5.688171387E-2,7.924683969E0
1.384599921E1,-1.572779388E0,-6.827152863E0,-9.873468018E-1,7.075203525E0
1.385593221E1,-1.253493347E0,-6.472240906E0,-2.186203766E0,6.945547842E0
1.386586621E1,-9.398954773E-1,-6.649771729E0,-1.917063446E0,6.984124842E0
1.387579921E1,-6.170169067E-1,-6.861132202E0,-1.395697632E0,7.028784876E0
1.388573321E1,-1.942959595E-1,-7.086862793E0,-1.020278320E0,7.162565394E0
1.389566621E1,3.212319946E-1,-7.348069611E0,-3.140469360E-1,7.361789353E0
1.390560021E1,8.391549683E-1,-7.918683014E0,2.899470520E-1,7.968299130E0
1.391553321E1,9.632469177E-1,-8.529412994E0,5.587879944E-1,8.601800665E0
1.392546621E1,7.057823181E-1,-9.169032898E0,9.940827942E-1,9.249729378E0
1.393540021E1,2.941383362E-1,-9.239835663E0,1.064586182E0,9.305612509E0
1.394533321E1,-6.596781921E-1,-8.833879852E0,2.915936279E-1,8.863274531E0
1.395526721E1,-1.532513123E0,-8.095615082E0,-6.300398254E-1,8.263445420E0
1.396520021E1,-2.438728638E0,-7.888296204E0,-1.263372803E0,8.352767518E0
1.397513421E1,-3.066223755E0,-8.286617889E0,-1.299298096E0,8.930730077E0
1.398506721E1,-3.403921509E0,-8.793164520E0,-8.581654358E-1,9.467991964E0
1.399500121E1,-3.349734192E0,-9.290879517E0,-9.624984741E-2,9.876761887E0
1.400493421E1,-3.168760529E0,-9.838141479E0,1.051114197E0,1.038917283E1
1.401486721E1,-2.900668030E0,-1.039588165E1,2.233804779E0,1.102171104E1
1.402480121E1,-3.184926910E0,-1.059436890E1,2.527943115E0,1.134790325E1
1.403473421E1,-5.067262573E0,-1.084614532E1,1.066083069E0,1.201884152E1
1.404466821E1,-7.369624786E0,-1.071471863E1,-1.115929413E0,1.305227425E1
1.405460121E1,-8.400081940E0,-9.713151398E0,-2.291584625E0,1.304446422E1
1.406453521E1,-9.045839081E0,-9.293573914E0,-3.113675079E0,1.333764197E1
1.407446821E1,-9.736053772E0,-9.327104187E0,-3.405119019E0,1.390612998E1
1.408440221E1,-9.532028046E0,-9.655670929E0,-2.651885376E0,1.382476169E1
1.409433521E1,-7.942333832E0,-1.014485367E1,-9.943821716E-1,1.292236505E1
1.410426821E1,-7.265740814E0,-1.124506577E1,2.230361938E-1,1.339000518E1
1.411420221E1,-5.973328400E0,-1.202165085E1,1.203796692E0,1.347775455E1
1.412413521E1,-4.597838745E0,-1.286933807E1,2.095791779E0,1.382578485E1
1.413406921E1,-3.957021332E0,-1.378213989E1,1.927391968E0,1.446790371E1
1.414400233E1,-3.462300110E0,-1.396266449E1,1.492396545E0,1.446273726E1
1.415393633E1,-2.672991486E0,-1.288041504E1,1.586550751E0,1.325017428E1
1.416386933E1,-4.254452820E0,-1.229603027E1,3.046165466E0,1.336307799E1
1.417380233E1,-5.951473846E0,-1.275916718E1,3.113076324E0,1.441900247E1
1.418373633E1,-5.270839233E0,-1.280856445E1,2.366129608E0,1.405132161E1
1.419366933E1,-4.514911194E0,-1.294373337E1,3.146606598E0,1.406505562E1
1.420360333E1,-2.709515533E0,-1.320119797E1,5.892945557E0,1.470849787E1
1.421353633E1,-1.108145599E0,-1.379830627E1,7.058571625E0,1.553849015E1
1.422347033E1,-1.616189117E0,-1.557720703E1,5.190905457E0,1.649869527E1
1.423340333E1,-1.149160309E0,-1.676872925E1,1.474284210E0,1.687259209E1
1.424333733E1,-2.944377136E-1,-1.735461090E1,-3.841162262E0,1.777705658E1
1.425327033E1,-3.806584167E-1,-1.693218933E1,-8.303832092E0,1.886259695E1
1.426320333E1,-9.276210022E-1,-1.610171631E1,-8.624315643E0,1.828946607E1
1.427313733E1,-1.837129669E0,-1.531794617E1,-6.141877899E0,1.660533602E1
1.428307033E1,-3.108885040E0,-1.457504105E1,-2.639610901E0,1.513487804E1
1.429300433E1,-4.095034332E0,-1.457144852E1,1.771566010E0,1.523925406E1
1.430293733E1,-4.058061218E0,-1.506811569E1,4.134701843E0,1.614347332E1
1.431287133E1,-3.317551117E0,-1.550820053E1,2.179767151E0,1.600817960E1
1.432280433E1,-3.503763885E0,-1.508997025E1,-1.486858063E0,1.556259330E1
1.433273733E1,-3.381917267E0,-1.373049728E1,-4.269272003E0,1.477127630E1
1.434267133E1,-4.239933014E0,-1.149280060E1,-2.958597565E0,1.260217430E1
1.435260433E1,-4.648134155E0,-9.429341583E0,3.209326172E-1,1.051763431E1
1.436253833E1,-4.148473206E0,-8.416847076E0,1.951791229E0,9.584499656E0
1.437247133E1,-3.091820526E0,-7.835156708E0,1.366658020E-1,8.424233635E0
1.438240533E1,-1.885479126E0,-7.287445679E0,-2.537972260E0,7.943752214E0
1.439233833E1,-9.286688232E-1,-6.473588104E0,-3.321143646E0,7.334832230E0
1.440227233E1,-4.537065125E-1,-5.786217499E0,-3.420986023E0,6.737158742E0
1.441220533E1,-5.694158936E-1,-5.411995697E0,-3.374432831E0,6.403181148E0
1.442213833E1,-6.947053528E-1,-5.038971405E0,-3.293900299E0,6.060002271E0
1.443207233E1,-7.066804504E-1,-4.663701782E0,-3.122955780E0,5.657063229E0
1.444200533E1,-4.116439819E-1,-4.513563995E0,-2.829116821E0,5.342809439E0
1.445193933E1,5.236111450E-1,-3.811224518E0,-2.596500549E0,4.641273108E0
1.446187233E1,1.222956848E0,-3.114872589E0,-2.136956177E0,3.970470551E0
1.447180633E1,1.629810791E0,-2.664908295E0,-2.089953918E0,3.758447394E0
1.448173933E1,2.157613220E0,-2.417173462E0,-2.069446564E0,3.844558679E0
1.449167233E1,2.852019196E0,-2.250569916E0,-2.102976837E0,4.197807763E0
1.450160633E1,3.557651825E0,-2.030377808E0,-1.904040527E0,4.517155175E0
1.451153933E1,4.088448029E0,-2.006128235E0,-1.621428223E0,4.834148039E0
1.452147333E1,4.442461853E0,-2.214644623E0,-1.274599457E0,5.124911892E0
1.453140633E1,4.380341034E0,-2.747237091E0,-6.207591248E-1,5.207690573E0
1.454134033E1,3.709136810E0,-3.484304352E0,-1.219963074E-1,5.090476971E0
1.455127333E1,2.982547760E0,-4.122876434E0,4.740641785E-1,5.110620127E0
1.456120733E1,2.177222443E0,-4.754413147E0,1.557960205E0,5.456370766E0
1.457114033E1,-1.182540894E-2,-6.145620117E0,2.565664673E0,6.659686305E0
1.458107333E1,-2.742297363E0,-7.731422424E0,4.412673798E0,9.314868629E0
1.459100733E1,-5.144501953E0,-9.703122253E0,8.474776611E0,1.387221397E1
1.460094033E1,-6.961573334E0,-1.266890488E1,1.392075165E1,2.006868158E1
1.461087433E1,-9.217981110E0,-1.691272980E1,1.659913193E1,2.542720562E1
1.462080733E1,-1.605531281E1,-2.187401276E1,2.148317551E1,3.460884761E1
1.463074133E1,-2.285806641E1,-2.665536987E1,1.954695190E1,4.018809863E1
1.464067433E1,-2.100312378E1,-2.459909592E1,1.006357269E1,3.387509740E1
1.465060833E1,-1.520463181E1,-1.431099014E1,7.097939758E0,2.205370753E1
1.466054133E1,-1.009485764E1,-5.353018341E0,5.781427460E0,1.280569637E1
1.467047433E1,-5.125790863E0,-2.838098145E-1,4.773124237E0,7.009778525E0
1.468040833E1,-4.002377014E0,-1.348695374E-1,4.645739136E0,6.133522941E0
1.469034133E1,-6.886130219E0,-2.321372681E0,1.030008087E0,7.339514777E0
1.470027533E1,-6.247558136E0,-4.287534027E0,-4.502936096E0,8.814270485E0
1.471020833E1,-2.809657288E0,-6.625222778E0,-7.743098145E0,1.057087129E1
1.472014233E1,-6.936575317E-1,-9.196276245E0,-7.044051819E0,1.160479744E1
1.473007533E1,-1.960622864E0,-1.350970642E1,-3.503913574E0,1.409374400E1
1.474000833E1,-6.521039429E0,-1.959290634E1,5.347180481E0,2.133068853E1
1.474994233E1,-1.359652588E1,-2.354453888E1,1.896511185E1,3.314945391E1
1.475987533E1,-8.748108215E0,-2.025497955E1,1.069466034E1,2.451875514E1
1.476980933E1,4.088298340E0,-1.074136322E1,2.230811005E0,1.170758664E1
1.477974233E1,1.823388245E1,-2.072889404E0,-3.180585938E0,1.862491521E1
1.478967633E1,1.639166336E1,-2.581232300E0,-6.984475708E-1,1.660834781E1
1.479960933E1,8.559350739E0,-1.290915527E0,-1.107995911E0,8.726775057E0
1.480954233E1,3.783232727E0,-1.796414337E0,-7.090155945E0,8.234698881E0
1.481947633E1,6.580316162E-1,-4.047732697E0,-8.586594086E0,9.515605266E0
1.482940933E1,-1.618284760E0,-7.033274231E0,-9.248966675E0,1.173154621E1
1.483934333E1,-1.868264923E0,-1.028376480E1,-8.631500702E0,1.355540618E1
1.484927633E1,-2.716251526E0,-1.244946121E1,-5.408103790E0,1.384249592E1
1.485921033E1,-4.876110077E0,-1.389156235E1,-1.324745178E-1,1.472309422E1
1.486914333E1,-5.804928589E0,-1.442295731E1,1.816622314E0,1.565308308E1
1.487907733E1,-4.806355133E0,-1.339010513E1,-8.499325562E-1,1.425195953E1
1.488901033E1,-4.593647461E0,-1.228659988E1,-9.979747009E-1,1.315515440E1
1.489894333E1,-5.009033661E0,-1.156569901E1,4.855902100E-1,1.261315224E1
1.490887733E1,-4.792434082E0,-1.078522202E1,9.357041931E-1,1.183908699E1
1.491881033E1,-4.302053833E0,-1.024140289E1,4.352947998E-1,1.111681078E1
1.492874433E1,-3.938010864E0,-1.007135651E1,-1.014889526E-1,1.081436320E1
1.493867733E1,-4.118984528E0,-1.006192612E1,-1.404080200E-1,1.087327481E1
1.494861133E1,-4.220772858E0,-9.801916809E0,-3.647914124E-1,1.067827558E1
1.495854433E1,-3.888912964E0,-9.314829712E0,-3.279679871E-1,1.009936927E1
1.496847733E1,-3.598367157E0,-8.424032135E0,-4.411326599E-1,9.170995673E0
1.497841133E1,-3.460054779E0,-7.597900085E0,-1.192120972E0,8.433339623E0
1.498834433E1,-3.214714966E0,-7.043602753E0,-1.803599396E0,7.949824075E0
1.499827833E1,-3.025957489E0,-6.834936676E0,-1.798659668E0,7.688169788E0
1.500821133E1,-2.751128998E0,-6.972650299E0,-1.898651733E0,7.732492571E0
1.501814533E1,-2.316432953E0,-7.371720428E0,-2.352058868E0,8.077147060E0
1.502807833E1,-1.942809906E0,-7.852670288E0,-2.436932373E0,8.448525337E0
1.503801233E1,-1.360820160E0,-8.065976715E0,-1.709744568E0,8.356736107E0
1.504794533E1,-5.707630920E-1,-8.179141388E0,-6.506968689E-1,8.224811899E0
1.505787833E1,3.757186890E-2,-8.578660583E0,4.803511047E-1,8.592180529E0
1.506781233E1,4.224215698E-1,-9.088051300E0,1.441203003E0,9.211307318E0
1.507774533E1,6.185137939E-1,-9.453740845E0,1.944007416E0,9.671346344E0
1.508767933E1,3.305126953E-1,-9.537865906E0,2.032772827E0,9.757678517E0
1.509761233E1,-2.863545227E-1,-9.040150909E0,1.467847595E0,9.163018277E0
1.510754633E1,-1.060095520E0,-8.631800079E0,6.333329773E-1,8.719683812E0
1.511747933E1,-1.665586395E0,-8.683592377E0,-1.718426514E-1,8.843556100E0
1.512741233E1,-2.161654816E0,-8.826395416E0,-5.995033264E-1,9.106997959E0
1.513734633E1,-2.515818329E0,-9.189839630E0,-7.144642639E-1,9.554734610E0
1.514727962E1,-2.790646820E0,-9.711804199E0,-4.471202087E-1,1.011468076E1
1.515721363E1,-3.168760529E0,-1.029379395E1,3.471281433E-1,1.077607234E1
1.516714662E1,-3.303480377E0,-1.053060150E1,1.388811951E0,1.112363921E1
1.517708062E1,-3.566333771E0,-1.035381912E1,2.104324036E0,1.115116526E1
1.518701362E1,-5.196743317E0,-9.862690430E0,1.986668701E0,1.132367679E1
1.519694663E1,-7.362589417E0,-9.222621460E0,4.987628174E-1,1.181157203E1
1.520688062E1,-8.438102875E0,-8.523275757E0,-1.084045715E0,1.204254811E1
1.521681362E1,-8.929081879E0,-8.559949493E0,-2.185455322E0,1.256094955E1
1.522674763E1,-8.881331177E0,-8.990154877E0,-3.188968506E0,1.303343578E1
1.523668063E1,-8.133336639E0,-9.860894165E0,-3.080893250E0,1.314839541E1
1.524661462E1,-7.096143494E0,-1.136676270E1,-1.664239197E0,1.350289742E1
1.525654762E1,-6.192772064E0,-1.280437317E1,3.601510620E-1,1.422786375E1
1.526648163E1,-4.766687622E0,-1.399888916E1,2.574346619E0,1.501057857E1
1.527641462E1,-3.489094391E0,-1.508787460E1,3.933969269E0,1.597791770E1
1.528634762E1,-3.268453217E0,-1.535057831E1,2.925516357E0,1.596501446E1
1.529628162E1,-3.447181549E0,-1.472143661E1,2.110610962E0,1.526625151E1
1.530621463E1,-5.452411652E0,-1.466425552E1,2.917433167E0,1.591479184E1
1.531614862E1,-6.773414612E0,-1.482621872E1,3.020718384E0,1.657771536E1
1.532608162E1,-5.121599579E0,-1.397598679E1,3.029250641E0,1.518997526E1
1.533601563E1,-2.617157593E0,-1.253433472E1,5.466033325E0,1.392252064E1
1.534594863E1,-5.273533630E-1,-1.240665024E1,7.589667206E0,1.455356039E1
1.535588162E1,8.771759033E-2,-1.426922699E1,5.983656921E0,1.547328935E1
1.536581562E1,5.409750366E-1,-1.578317871E1,2.328108673E0,1.596312858E1
1.537574863E1,1.610650635E-1,-1.652623352E1,-3.304827576E0,1.685420487E1
1.538568262E1,-6.975494385E-1,-1.700119583E1,-8.642278290E0,1.908444940E1
1.539561562E1,-1.077309723E0,-1.635349274E1,-9.546398163E0,1.896657689E1
1.540554962E1,-1.501826935E0,-1.547736465E1,-6.912325745E0,1.701718390E1
1.541548263E1,-2.431842957E0,-1.464105377E1,-2.771935730E0,1.509827617E1
1.542541662E1,-3.681893463E0,-1.420950119E1,1.987866211E0,1.481276057E1
1.543534962E1,-4.106859741E0,-1.444032120E1,4.421954498E0,1.565065030E1
1.544528263E1,-4.033961334E0,-1.544024185E1,2.839595032E0,1.620917063E1
1.545521663E1,-4.176764374E0,-1.619946304E1,-1.037492523E0,1.676139476E1
1.546514962E1,-4.221670990E0,-1.548095718E1,-3.474125519E0,1.641804158E1
1.547508362E1,-4.293222198E0,-1.328292801E1,-3.143912201E0,1.430916200E1
1.548501663E1,-4.340823212E0,-1.060125458E1,-6.301895142E-1,1.147285856E1
1.549495062E1,-3.888164520E0,-8.876241760E0,1.490899658E0,9.804502686E0
1.550488362E1,-2.864593048E0,-7.658224640E0,2.047741699E-1,8.179011580E0
1.551481663E1,-1.943708038E0,-6.705455933E0,-2.071242828E0,7.282251510E0
1.552475063E1,-1.331032104E0,-5.974076843E0,-2.662513275E0,6.674594934E0
1.553468362E1,-9.142987061E-1,-5.487588501E0,-2.764301605E0,6.212160095E0
1.554461762E1,-7.828720093E-1,-5.451663208E0,-2.913241882E0,6.230609808E0
1.555455063E1,-5.791456604E-1,-5.385500793E0,-2.877316589E0,6.133349757E0
1.556448463E1,-3.435356140E-1,-5.220543823E0,-2.669997711E0,5.873753681E0
1.557441762E1,3.568579102E-1,-4.915328522E0,-2.289339294E0,5.434047888E0
1.558435062E1,1.172212372E0,-4.681065674E0,-2.033670959E0,5.236628234E0
1.559428463E1,1.936223602E0,-3.942800903E0,-1.817071381E0,4.753565946E0
1.560421762E1,2.201921082E0,-3.386108551E0,-1.587897949E0,4.340000860E0
1.561415162E1,2.573598175E0,-2.870430908E0,-1.483115845E0,4.130667473E0
1.562408463E1,3.498674469E0,-2.340532837E0,-1.546284485E0,4.484396582E0
1.563401863E1,4.315525818E0,-1.828896790E0,-1.405128021E0,4.893159645E0
1.564395162E1,4.783602448E0,-1.377734985E0,-1.167721710E0,5.113177100E0
1.565388462E1,4.568799133E0,-1.406924286E0,-9.973759460E-1,4.883453721E0
1.566381863E1,3.810176697E0,-1.891316986E0,-6.951544189E-1,4.310193275E0
1.567375162E1,3.106939087E0,-2.499352570E0,-4.195774841E-1,4.009473659E0
1.568368562E1,2.540217590E0,-3.055895233E0,3.394940186E-1,3.988290018E0
1.569361862E1,1.584754486E0,-3.906875610E0,1.497036896E0,4.473951641E0
1.570355263E1,-2.550695801E-1,-5.463488617E0,2.408491516E0,5.976252985E0
1.571348562E1,-3.042722626E0,-7.007378082E0,3.939507751E0,8.595419122E0
1.572341962E1,-5.436394958E0,-8.984766083E0,8.143665161E0,1.328908176E1
1.573335263E1,-7.420369263E0,-1.217597992E1,1.342124039E1,1.958177879E1
1.574328563E1,-1.015922379E1,-1.659314438E1,1.677591431E1,2.568995074E1
1.575321962E1,-1.823507996E1,-2.232128265E1,2.329006805E1,3.705651185E1
1.576315262E1,-2.451601868E1,-2.659624283E1,1.922512115E1,4.096340547E1
1.577308663E1,-2.063743423E1,-2.290761337E1,1.080767532E1,3.267213320E1
1.578301962E1,-1.489597366E1,-1.169323380E1,7.699089661E0,2.044254704E1
1.579295362E1,-1.008183472E1,-2.804118805E0,5.292843475E0,1.172692055E1
1.580288662E1,-5.468278656E0,2.205812988E0,3.293451233E0,6.753851007E0
1.581281963E1,-4.152365112E0,2.077978821E0,-7.948471069E-1,4.710829431E0
1.582275362E1,-3.176244965E0,-1.746418304E0,-6.401138763E0,7.356159762E0
1.583268662E1,5.704637146E-1,-7.643405457E0,-7.624544678E0,1.081114043E1
1.584262063E1,2.575244751E0,-1.608884308E1,-5.667065277E0,1.725104014E1
1.585255363E1,-2.071242828E0,-2.039583664E1,-5.996530151E-1,2.050950469E1
1.586248762E1,-1.076246933E1,-2.112392258E1,6.272705841E0,2.452341105E1
1.587242062E1,-1.951042786E1,-2.024644730E1,1.638747208E1,3.254419555E1
1.588235363E1,-1.477697113E1,-1.632624939E1,9.697284393E0,2.406122648E1
1.589228762E1,2.413730621E0,-9.907746735E0,3.218157806E0,1.069327268E1
1.590222062E1,1.426653259E1,-4.071233826E0,-2.997217255E0,1.513579229E1
1.591215462E1,1.507904297E1,-1.736838226E0,-1.661095734E0,1.526936092E1
1.592208763E1,9.319919128E0,-1.040635986E0,-2.839744720E0,9.798365471E0
1.593202162E1,3.788621521E0,-2.116448822E0,-6.574627991E0,7.877737103E0
1.594195462E1,1.266216888E0,-3.520828400E0,-9.208101654E0,9.939249162E0
1.595188863E1,-4.200265503E-1,-5.961053925E0,-1.099957626E1,1.251803755E1
1.596182163E1,-7.095245361E-2,-9.211544495E0,-9.979597321E0,1.358123518E1
1.597175462E1,3.697311401E-2,-1.171074738E1,-6.844516754E0,1.356430539E1
1.598168862E1,-1.523980865E0,-1.300241135E1,-2.390977936E0,1.330796731E1
1.599162163E1,-3.730242920E0,-1.383752472E1,2.289488983E0,1.451322026E1
1.600155563E1,-3.845952301E0,-1.379201935E1,2.091600494E0,1.447017413E1
1.601148862E1,-3.784280548E0,-1.412178360E1,8.674461365E-1,1.464575072E1
1.602142262E1,-4.340523834E0,-1.428988403E1,6.574328613E-1,1.494901839E1
1.603135563E1,-4.374203796E0,-1.355760681E1,7.634124756E-3,1.424578603E1
1.604128862E1,-3.867806854E0,-1.198243240E1,-2.430944824E-1,1.259355832E1
1.605122262E1,-3.489393768E0,-1.055410263E1,-3.168910217E-1,1.112049330E1
1.606115563E1,-3.274590454E0,-9.678124237E0,-2.532733154E-1,1.022023379E1
1.607108963E1,-3.270848236E0,-8.827742615E0,1.070274353E-1,9.414825688E0
1.608102262E1,-3.371738434E0,-8.150700531E0,-3.121009827E-1,8.826094620E0
1.609095662E1,-3.760330353E0,-8.171058197E0,-8.455915833E-1,9.034450816E0
1.610088963E1,-3.667972412E0,-7.892038422E0,-1.200952606E0,8.785247818E0
1.611082262E1,-3.488944702E0,-7.495513000E0,-1.861229553E0,8.474646053E0
1.612075662E1,-3.385509796E0,-7.312294006E0,-2.472857666E0,8.428899409E0
1.613068963E1,-2.951113129E0,-7.251819763E0,-2.974614258E0,8.375338116E0
1.614062363E1,-2.262395325E0,-7.334298248E0,-2.642904053E0,8.117592330E0
1.615055671E1,-1.470991058E0,-7.420069885E0,-1.391805725E0,7.691448171E0
1.616049071E1,-7.415579224E-1,-7.547305298E0,-3.781137085E-1,7.593068904E0
1.617042371E1,-4.805007935E-2,-7.736661530E0,3.336561584E-1,7.744001993E0
1.618035671E1,4.890330505E-1,-8.054450684E0,1.055604858E0,8.138036050E0
1.619029071E1,7.696994019E-1,-8.274044037E0,1.729054413E0,8.487748291E0
1.620022371E1,7.756869507E-1,-8.639733582E0,2.123035126E0,8.930507530E0
1.621015771E1,4.385879517E-2,-8.877439270E0,1.809586945E0,9.060102455E0
1.622009071E1,-9.738748169E-1,-8.882378998E0,8.277786255E-1,8.973867966E0
1.623002471E1,-1.365310822E0,-8.951086121E0,-2.380050659E-2,9.054644269E0
1.623995771E1,-1.820813599E0,-8.953331451E0,-5.315446472E-1,9.152051461E0
1.624989171E1,-2.426005096E0,-8.926237793E0,-6.930587769E-1,9.275966383E0
1.625982471E1,-3.004102936E0,-9.432784424E0,-5.432203674E-1,9.914491656E0
1.626975771E1,-3.586990814E0,-9.974956970E0,2.369572449E-1,1.060294386E1
1.627969171E1,-4.270170135E0,-1.002270767E1,1.305734711E0,1.097241838E1
1.628962471E1,-5.450316010E0,-9.989626465E0,1.807491302E0,1.152239586E1
1.629955871E1,-7.144043884E0,-1.041264679E1,1.179846497E0,1.268276839E1
1.630949171E1,-7.957751770E0,-1.063822769E1,1.431024170E-1,1.328601445E1
1.631942571E1,-8.190368042E0,-1.075468552E1,-9.848020935E-1,1.355415893E1
1.632935871E1,-8.204139404E0,-1.076037369E1,-2.189047852E0,1.370713230E1
1.633929171E1,-7.948920135E0,-1.082967957E1,-2.427352295E0,1.365134902E1
1.634922571E1,-7.533533936E0,-1.125090363E1,-1.285526733E0,1.360108617E1
1.635915871E1,-7.101232910E0,-1.193138855E1,6.279441833E-1,1.389891562E1
1.636909271E1,-5.977819061E0,-1.253104156E1,2.599793701E0,1.412516374E1
