"Time (s)","Acceleration x (m/s^2)","Acceleration y (m/s^2)","Acceleration z (m/s^2)","Absolute acceleration (m/s^2)"
6.097500445E-4,4.204756165E-1,3.357368317E0,9.027127991E0,9.640423306E0
1.066575001E-2,1.857637024E-1,3.403771820E0,8.915609894E0,9.545065245E0
2.072175004E-2,-9.864486694E-2,3.579506378E0,9.034313049E0,9.718096984E0
3.077775001E-2,-3.170407104E-1,3.723656616E0,9.019643555E0,9.763201486E0
4.083375004E-2,-1.992356873E-1,3.741020508E0,8.880882111E0,9.638723793E0
5.088875000E-2,9.669891357E-2,3.707490234E0,8.861871643E0,9.606643719E0
6.094475003E-2,3.076103210E-1,3.657344513E0,8.777447205E0,9.513904163E0
7.100075000E-2,3.978726196E-1,3.625311127E0,8.969497833E0,9.682617145E0
8.105675003E-2,3.185375977E-1,3.665876770E0,9.430838470E0,1.012328173E1
9.111275000E-2,1.466949463E-1,3.631598053E0,9.148375854E0,9.843922216E0
1.011687500E-1,-7.304809570E-2,3.576362915E0,8.741521912E0,9.445099949E0
1.112247500E-1,-1.324745178E-1,3.509302368E0,8.709189148E0,9.390565916E0
1.212807500E-1,-1.522334290E-1,3.320095825E0,8.671467590E0,9.286579644E0
1.313367500E-1,-1.676513672E-2,3.077001343E0,8.750203857E0,9.275466882E0
1.413927500E-1,3.297642517E-1,2.968027954E0,8.891360321E0,9.379457487E0
1.514477500E-1,6.608757019E-1,2.853665771E0,8.637787628E0,9.120939652E0
1.615037500E-1,8.987310791E-1,2.769989777E0,8.052205353E0,8.562626464E0
1.715597500E-1,1.029559021E0,2.618804169E0,7.623496857E0,8.126243374E0
1.816157500E-1,9.621990967E-1,2.462080078E0,7.566914520E0,8.015351569E0
1.916717500E-1,5.938151550E-1,2.240840149E0,7.946225739E0,8.277468484E0
2.017277500E-1,3.204835510E-1,1.748513947E0,8.596323853E0,8.778199958E0
2.117837500E-1,7.828720093E-1,1.531165924E0,8.944050751E0,9.107875795E0
2.218397500E-1,2.315385132E0,1.923799438E0,9.397607574E0,9.867980579E0
2.318957500E-1,3.713178406E0,2.389630737E0,9.921218719E0,1.085949399E1
2.419517500E-1,3.777394867E0,2.239792328E0,9.923014984E0,1.085134130E1
2.520067500E-1,3.366948395E0,1.909579010E0,9.794282684E0,1.053141998E1
2.620627500E-1,2.580334167E0,1.762884064E0,9.779313812E0,1.026649226E1
2.721187500E-1,1.370250549E0,1.240171051E0,9.522747345E0,9.700429259E0
2.821747500E-1,9.238787842E-1,4.791535950E-1,9.535321198E0,9.591949255E0
2.922307500E-1,2.568508759E0,7.488926697E-1,1.023436752E1,1.057829646E1
3.022867500E-1,3.304079132E0,1.054557037E0,1.009006760E1,1.066951234E1
3.123427500E-1,3.937861176E0,1.213227081E0,9.365125122E0,1.023153161E1
3.223987500E-1,4.538262634E0,1.180145874E0,8.737330627E0,9.916124168E0
3.324547500E-1,5.024601288E0,2.965333557E-1,8.354875946E0,9.753896770E0
3.425107500E-1,5.079836426E0,-7.914042664E-1,7.964487762E0,9.479668989E0
3.525657500E-1,4.767585754E0,-5.303471375E-1,8.719517670E0,9.951941037E0
3.626217500E-1,4.189487915E0,9.120533752E-1,1.011192215E1,1.098337926E1
3.726777500E-1,3.649560699E0,1.295406189E0,1.024469604E1,1.095222204E1
3.827337500E-1,3.309467926E0,8.190966797E-1,9.682165833E0,1.026488346E1
3.927897500E-1,3.094365234E0,5.968089294E-1,8.976233826E0,9.513361698E0
4.028457500E-1,3.356470184E0,5.183720398E-1,8.517886963E0,9.170005452E0
4.129017500E-1,3.459905090E0,3.737727356E-1,8.332272949E0,9.029807406E0
4.229577500E-1,3.437451782E0,1.053808594E-1,8.790919189E0,9.439673727E0
4.330137500E-1,3.737877045E0,-9.864486694E-2,9.571096802E0,1.027557052E1
4.430697500E-1,3.844305725E0,-2.438429260E-1,9.465266876E0,1.021907153E1
4.531247500E-1,3.373983765E0,3.308120728E-2,8.788224792E0,9.413700431E0
4.631807500E-1,2.389930115E0,8.378077698E-1,8.563991089E0,8.930600830E0
4.732367500E-1,1.832639008E0,1.378932495E0,8.717571716E0,9.014215284E0
4.832927500E-1,2.052531738E0,4.387376404E-1,1.006686584E1,1.028334407E1
4.933487500E-1,9.086105347E-1,-4.752616882E-1,9.543105011E0,9.598036259E0
5.034047500E-1,-1.844165039E-1,-3.176394653E-1,1.078582077E1,1.079207274E1
5.134612500E-1,-1.215472412E-1,-7.529342651E-1,1.127799728E1,1.130375630E1
5.235172500E-1,-4.017645264E-1,-1.020128632E0,1.062101349E1,1.067745310E1
5.335732500E-1,-2.600093079E-1,-5.514532471E-1,1.096140564E1,1.097834774E1
5.436292500E-1,-3.863465881E-1,-1.044827271E-1,1.086261108E1,1.086998160E1
5.536842500E-1,-1.512155457E0,2.469863892E-2,1.034558624E1,1.045554297E1
5.637402500E-1,-2.621199188E0,1.916015625E-1,1.006477020E1,1.040225916E1
5.737962500E-1,-3.472628632E0,4.912783813E-1,9.599687347E0,1.022029849E1
5.838522500E-1,-3.729195099E0,1.031355286E0,8.749455414E0,9.566794649E0
5.939082500E-1,-4.106859741E0,1.525926819E0,7.876021729E0,9.012572766E0
6.039642500E-1,-4.516258392E0,1.584006042E0,7.289990387E0,8.720643603E0
6.140202500E-1,-4.889282684E0,1.189127197E0,6.911876678E0,8.549453075E0
6.240762500E-1,-5.365891571E0,6.477030945E-1,6.792275391E0,8.680283212E0
6.341322500E-1,-5.250631256E0,4.860392761E-1,6.809190216E0,8.612225854E0
6.441882500E-1,-4.682562561E0,6.806346130E-1,6.790179749E0,8.276242906E0
6.542432500E-1,-4.235142975E0,8.000862122E-1,6.520141296E0,7.815933501E0
6.642992500E-1,-3.349883881E0,1.191522217E0,5.836512909E0,6.834202963E0
6.743552500E-1,-2.968027954E0,1.308279419E0,5.155279541E0,6.090787479E0
6.844112500E-1,-3.233126678E0,9.029223633E-1,4.536616058E0,5.643515055E0
6.944672500E-1,-3.556753693E0,6.753955078E-1,4.288132782E0,5.612017345E0
7.045232500E-1,-3.398233337E0,4.888833618E-1,4.468507690E0,5.635118254E0
7.145792500E-1,-3.567381592E0,3.784130859E-1,4.698728943E0,5.911637807E0
7.246352500E-1,-4.959037628E0,7.783813477E-1,4.794679413E0,6.941677203E0
7.346912500E-1,-5.796995087E0,1.017434235E0,5.077291718E0,7.772979843E0
7.447472500E-1,-6.304739227E0,8.657995605E-1,4.722529449E0,7.924747946E0
7.548022500E-1,-6.710844727E0,2.489323425E-1,4.113296356E0,7.875062614E0
7.648582500E-1,-7.909402313E0,-9.042695618E-1,3.972588959E0,8.897067575E0
7.749142500E-1,-8.824150085E0,-1.875150604E0,4.159699860E0,9.934028259E0
7.849702500E-1,-8.790021057E0,-2.211201782E0,5.001848602E0,1.035240904E1
7.950262500E-1,-8.873547363E0,-2.345771942E0,5.569318542E0,1.073591160E1
8.050822500E-1,-9.267827454E0,-2.364782410E0,5.829627228E0,1.120131131E1
8.151382500E-1,-9.695787506E0,-2.500101013E0,5.958958282E0,1.165195195E1
8.251942500E-1,-1.016865417E1,-2.530787201E0,5.834417267E0,1.199361649E1
8.352502500E-1,-1.093131821E1,-2.387086029E0,5.673352203E0,1.254507165E1
8.453062500E-1,-1.206251587E1,-1.882335663E0,5.938450928E0,1.357618047E1
8.553612500E-1,-1.313234116E1,-1.669777679E0,6.066434784E0,1.456187394E1
8.654172500E-1,-1.326900696E1,-1.516945496E0,5.090763702E0,1.429277945E1
8.754732500E-1,-1.257579849E1,-1.720821533E0,2.842439117E0,1.300735925E1
8.855292500E-1,-1.227791794E1,-7.996371460E-1,7.791297913E-1,1.232857379E1
8.955852500E-1,-1.175400742E1,6.219566345E-1,-5.034031677E-1,1.178121111E1
9.056412500E-1,-1.159848083E1,1.136436768E0,-1.097368011E0,1.170557400E1
9.156972500E-1,-1.238958572E1,8.608598328E-1,-1.870360565E0,1.255950487E1
9.257532500E-1,-1.262175293E1,5.538482666E-1,-3.678300934E0,1.315846848E1
9.358092500E-1,-1.185459824E1,4.812492371E-1,-5.882467346E0,1.324260255E1
9.458652500E-1,-1.067864365E1,6.499484253E-1,-8.115823059E0,1.342841938E1
9.559202500E-1,-9.552236023E0,8.125103760E-1,-9.874515839E0,1.376268321E1
9.659762500E-1,-8.904083862E0,1.056652679E0,-1.130045059E1,1.442565104E1
9.760322500E-1,-8.714128876E0,1.399439850E0,-1.203901474E1,1.492757013E1
9.860882500E-1,-8.810977478E0,1.763931885E0,-1.203976318E1,1.502333776E1
9.961442500E-1,-8.804540863E0,1.971699829E0,-1.195324310E1,1.497623319E1
1.006200250E0,-8.566835175E0,1.938169556E0,-1.327679077E1,1.591918149E1
1.016256250E0,-7.480544128E0,1.901944885E0,-1.509970001E1,1.695809173E1
1.026312250E0,-6.839277649E0,1.965113525E0,-1.398466873E1,1.569102767E1
1.036368250E0,-6.135441284E0,1.279090118E0,-1.291289749E1,1.435348853E1
1.046424250E0,-6.620283051E0,2.577340393E0,-1.405217834E1,1.574593749E1
1.056479250E0,-9.225016479E0,4.897665253E0,-1.460048813E1,1.795166587E1
1.066535250E0,-9.709409180E0,6.400540009E0,-1.358499985E1,1.788272238E1
1.076591250E0,-8.839268646E0,7.545059967E0,-1.198258209E1,1.669259937E1
1.086647250E0,-8.295000458E0,8.674910431E0,-1.123309067E1,1.643908238E1
1.096703250E0,-8.084837494E0,9.223669281E0,-1.149250122E1,1.680827941E1
1.106759250E0,-7.631729736E0,8.894054718E0,-1.179801590E1,1.662951254E1
1.116815250E0,-6.933581543E0,8.203241272E0,-1.100346817E1,1.537673672E1
1.126871250E0,-6.782395935E0,7.395071869E0,-9.690698090E0,1.394982480E1
1.136927250E0,-6.713090057E0,6.612499237E0,-9.213640137E0,1.317884247E1
1.146983250E0,-4.908293152E0,5.671555939E0,-9.087901611E0,1.178337151E1
1.157038250E0,-3.532953186E0,4.527934113E0,-8.790470123E0,1.050030050E1
1.167094250E0,-2.096540222E0,3.482208710E0,-8.145910492E0,9.103686953E0
1.177150250E0,-2.156565399E0,2.602338409E0,-7.408543854E0,8.143062173E0
1.187206250E0,-1.482517090E0,-6.960525513E-1,-8.122858429E0,8.286324585E0
1.197262250E0,8.402027893E-1,-1.967523514E1,-1.223375977E1,2.318373776E1
1.207318250E0,-7.029082947E0,-1.195099777E1,-5.181624756E0,1.480147256E1
1.217374250E0,-6.674919434E0,9.099128265E0,4.361929321E-1,1.129331435E1
1.227430250E0,-7.297923889E0,1.497635651E0,-4.290228424E0,8.597014922E0
1.237486250E0,-8.246351624E0,-3.583098907E0,-6.604416046E0,1.115612944E1
1.247541250E0,-8.474926300E0,-2.860551453E-1,-4.608017578E0,9.650908213E0
1.257597250E0,-8.403674469E0,1.883383484E0,-4.405339050E0,9.673463189E0
1.267653250E0,-7.058421936E0,2.297572174E0,-5.523513794E0,9.252532775E0
1.277709250E0,-6.215973816E0,3.428769836E0,-5.713917847E0,9.112828882E0
1.287765250E0,-5.726791077E0,4.461322632E0,-5.404960327E0,9.050587373E0
1.297821250E0,-5.972130890E0,4.740192719E0,-5.231471100E0,9.246840771E0
1.307877250E0,-6.660998383E0,4.320914612E0,-5.093308411E0,9.432973715E0
1.317933250E0,-6.920259247E0,3.969146118E0,-5.284610596E0,9.569285140E0
1.327989250E0,-6.892267456E0,4.171375580E0,-5.363197174E0,9.678202769E0
1.338045250E0,-6.411916351E0,4.882846069E0,-5.092110901E0,9.533333649E0
1.348100250E0,-6.545139313E0,5.216951294E0,-4.740492096E0,9.619131704E0
1.358156250E0,-6.443949738E0,4.989574127E0,-5.265151062E0,9.702687973E0
1.368212250E0,-5.783822479E0,4.840933228E0,-5.664520569E0,9.432604638E0
1.378268250E0,-5.616320801E0,4.686903534E0,-5.877377930E0,9.383693058E0
1.388324250E0,-5.321284332E0,4.239633636E0,-5.955964508E0,9.042348895E0
1.398380250E0,-5.252577209E0,4.098177795E0,-5.815556488E0,8.843377514E0
1.408436250E0,-5.631589050E0,4.054768066E0,-5.566474457E0,8.896155191E0
1.418492250E0,-5.876479797E0,3.743714905E0,-5.635780334E0,8.961609012E0
1.428548250E0,-6.066584473E0,3.175496521E0,-6.078559570E0,9.156206189E0
1.438604250E0,-6.095923462E0,2.690654755E0,-6.176306305E0,9.085519547E0
1.448659250E0,-6.350543976E0,2.585273895E0,-5.582640839E0,8.841884903E0
1.458715250E0,-6.964118042E0,2.326611786E0,-5.158872070E0,8.973629341E0
1.468771250E0,-7.087611237E0,2.009720764E0,-4.948559418E0,8.874764836E0
1.478827250E0,-6.899901581E0,1.766027527E0,-4.952301636E0,8.674836399E0
1.488883250E0,-8.049510956E0,1.221909027E0,-5.048102417E0,9.579719532E0
1.498939250E0,-9.468410339E0,5.450166321E-1,-5.367687836E0,1.089770206E1
1.508995250E0,-1.069495972E1,-1.972897339E-1,-5.125790863E0,1.186148467E1
1.519051625E0,-1.118444183E1,-6.906637573E-1,-2.616708527E0,1.150721161E1
1.529107625E0,-1.084509750E1,-1.125808868E0,-2.587519226E0,1.120619655E1
1.539163625E0,-9.879455566E0,-1.723815308E0,-3.520978088E0,1.062885075E1
1.549218625E0,-8.425079956E0,-1.636846161E0,-3.040028229E0,9.105108964E0
1.559274625E0,-7.448810120E0,-1.423689423E0,-3.449726257E0,8.331402944E0
1.569330625E0,-6.471791840E0,-1.076860657E0,-4.110751648E0,7.742221748E0
1.579386625E0,-6.271658020E0,-1.242715759E0,-4.382137299E0,7.751204041E0
1.589442625E0,-8.136929169E0,-1.824705505E0,-4.536166992E0,9.492943561E0
1.599498625E0,-9.161997528E0,-1.474134521E0,-5.344186707E0,1.070866952E1
1.609554625E0,-9.956395569E0,-1.134191437E0,-5.582491150E0,1.147085046E1
1.619610625E0,-1.015383499E1,-1.012045441E0,-5.474864960E0,1.158010135E1
1.629666625E0,-1.071157516E1,-1.346599731E0,-5.104085999E0,1.194164424E1
1.639722625E0,-1.126976440E1,-2.432142334E0,-5.518873444E0,1.278205266E1
1.649777625E0,-9.716145172E0,-1.560654602E0,-4.764891357E0,1.093358630E1
1.659833625E0,-1.086291046E1,-1.469943237E0,-2.721640320E0,1.129472810E1
1.669889625E0,-1.244197678E1,-2.925366669E0,-2.029779053E0,1.294142802E1
1.679945625E0,-1.499880981E1,-3.826343079E0,-3.082689514E0,1.578316102E1
1.690001625E0,-1.570504120E1,-3.522474976E0,-2.932551727E0,1.636019586E1
1.700057625E0,-1.403765854E1,-3.257675629E0,-1.696571960E0,1.451022619E1
1.710113625E0,-1.066681824E1,-3.624113617E0,-1.889969788E0,1.142309926E1
1.720169625E0,-8.803043976E0,-4.301305389E0,-2.134561157E0,1.002752026E1
1.730225625E0,-8.638685760E0,-4.063450012E0,-2.099833374E0,9.774856412E0
1.740281625E0,-7.555388489E0,-3.456761627E0,-2.026635590E0,8.552213046E0
1.750336625E0,-5.217550049E0,-3.842659149E0,-2.977308655E0,7.131144696E0
1.760392625E0,-4.775968323E0,-3.774101715E0,-3.495081940E0,7.019210421E0
1.770448625E0,-3.877087555E0,-3.981719971E0,-2.929557953E0,6.282373089E0
1.780504625E0,-1.777852936E0,-4.474195862E0,-3.326233063E0,5.851753247E0
1.790560625E0,-2.154918823E0,-5.075794830E0,-3.237317963E0,6.394340927E0
1.800616625E0,-2.768492889E0,-6.023773499E0,-2.854863281E0,7.218077611E0
1.810672625E0,-2.426005096E0,-6.990313568E0,-3.073857880E0,8.012402060E0
1.820728625E0,-1.471589813E0,-7.420668640E0,-2.977608032E0,8.130070679E0
1.830784625E0,-2.140249329E0,-8.170908508E0,-2.111808472E0,8.706557762E0
1.840839625E0,-2.248623962E0,-9.221423950E0,-2.155517578E0,9.733304959E0
1.850895625E0,-3.455863495E0,-9.567204895E0,-1.304986267E0,1.025560292E1
1.860951625E0,-2.853965149E0,-9.479936371E0,-1.436712341E0,1.000392188E1
1.871007625E0,-4.209845581E0,-9.786349182E0,-9.569599915E-1,1.069631724E1
1.881063625E0,-4.460274811E0,-9.800419922E0,-1.102008362E0,1.082389507E1
1.891119625E0,-4.934338989E0,-1.006866211E1,-7.349716187E-1,1.123680743E1
1.901175625E0,-5.456303558E0,-1.091709778E1,-3.658392334E-1,1.221016424E1
1.911231625E0,-3.322341156E0,-8.893006897E0,-5.559439087E-1,9.509605463E0
1.921287625E0,-2.567161560E0,-7.033124542E0,-1.380130005E-1,7.488271289E0
1.931343625E0,-1.521735535E0,-6.503076782E0,-2.874023438E-1,6.684929826E0
1.941398625E0,-8.891510010E-1,-5.939199371E0,-6.050418091E-1,6.035789448E0
1.951454625E0,-9.846524048E-1,-6.443051605E0,-3.020718384E-1,6.524852622E0
1.961510625E0,-1.350042572E0,-6.351741486E0,-5.788462830E-1,6.519378641E0
1.971566625E0,-1.599274292E0,-5.832471313E0,-1.082099762E0,6.143804992E0
1.981622625E0,-1.533860321E0,-6.283633118E0,-9.578581238E-1,6.538674547E0
1.991678625E0,-2.862198029E0,-7.871980133E0,-8.228388977E-1,8.416490517E0
2.001734625E0,-2.929557953E0,-8.838669891E0,-6.956034851E-1,9.337465366E0
2.011790625E0,-3.629502411E0,-9.405840454E0,-1.008901978E0,1.013217675E1
2.021846625E0,-2.889441376E0,-1.013377670E1,-1.174008636E0,1.060285801E1
2.031902625E0,-2.273172913E0,-9.655221863E0,-9.337582397E-1,9.963058203E0
2.041957625E0,-2.002685394E0,-8.221952362E0,-9.428892517E-1,8.514710187E0
2.052013625E0,1.291813660E-1,-6.471492462E0,-7.246430969E-1,6.513218109E0
2.062069625E0,9.496252441E-1,-5.336253204E0,-6.319857788E-1,5.456811559E0
2.072125625E0,6.888674927E-1,-4.715045013E0,-8.241860962E-1,4.835852626E0
2.082181625E0,-2.219883728E-1,-3.866908722E0,-1.105151825E0,4.027855814E0
2.092237625E0,-1.014739838E0,-2.215542755E0,-1.499581604E0,2.861305930E0
2.102293625E0,-4.593946838E-1,-2.241139526E0,-1.496737518E0,2.733856809E0
2.112349625E0,-4.067042542E-1,-2.494861908E0,-1.817221069E0,3.113203608E0
2.122405625E0,-5.243595886E-1,-3.572770386E0,-2.595153351E0,4.446848561E0
2.132460625E0,7.698490906E-1,-8.479566650E0,-3.494632874E0,9.203704532E0
2.142516625E0,5.595813446E0,-2.309547272E1,-6.203549652E0,2.456008991E1
2.152572625E0,1.711690521E0,-2.714904327E1,-4.750820618E0,2.761468326E1
2.162628625E0,4.292623444E0,-2.732807098E1,1.437161407E0,2.770046051E1
2.172684625E0,5.803282013E0,-2.607128448E1,5.438041534E0,2.725733392E1
2.182740625E0,8.680448914E-1,-2.425436279E1,4.219575348E0,2.463396908E1
2.192796625E0,-4.176315308E-1,-2.124801453E1,1.593137054E0,2.131174848E1
2.202852625E0,2.208357697E0,-1.764755173E1,9.041198730E-1,1.780815427E1
2.212908625E0,4.534520416E0,-1.393347519E1,5.840853882E-1,1.466440459E1
2.222964625E0,5.285059662E0,-1.080797470E1,-1.055305481E-1,1.203143007E1
2.233019625E0,4.803061981E0,-8.635841675E0,-7.879614258E-1,9.913024212E0
2.243075625E0,4.439168701E0,-7.389533386E0,-1.418600006E0,8.736352122E0
2.253131625E0,4.201313324E0,-6.630162506E0,-1.891766052E0,8.073962305E0
2.263187625E0,4.953050079E0,-6.069129181E0,-1.962718506E0,8.075846583E0
2.273243625E0,6.353687439E0,-5.784421234E0,-1.724863129E0,8.763790612E0
2.283299625E0,7.641309814E0,-5.797893219E0,-1.211430817E0,9.668130434E0
2.293355625E0,8.544381866E0,-6.098617859E0,-3.116519165E-1,1.050222492E1
2.303411625E0,9.162446594E0,-6.093827820E0,6.905140686E-1,1.102551472E1
2.313467625E0,9.291478271E0,-5.786217499E0,1.402583313E0,1.103535778E1
2.323523625E0,8.896150360E0,-5.478906555E0,1.723964996E0,1.058923810E1
2.333578625E0,8.179590454E0,-5.407205658E0,1.717079315E0,9.954493176E0
2.343634625E0,7.041058044E0,-5.620212708E0,1.349443817E0,9.109571224E0
2.353690625E0,6.363866272E0,-5.977369995E0,7.881111145E-1,8.766348448E0
2.363746625E0,6.393504639E0,-6.442003784E0,2.257305908E-1,9.078946449E0
2.373802625E0,6.242917786E0,-7.059918823E0,-9.445358276E-2,9.424722688E0
2.383858625E0,6.032754822E0,-7.614814911E0,-2.784210205E-2,9.714953013E0
2.393914625E0,5.875731354E0,-8.042625275E0,2.854563904E-1,9.964412958E0
2.403970625E0,5.741011505E0,-8.334518280E0,6.200106812E-1,1.013941918E1
2.414026625E0,5.516179047E0,-8.481662292E0,8.693920898E-1,1.015493324E1
2.424081625E0,5.270988922E0,-8.539142761E0,1.027463379E0,1.008741614E1
2.434137625E0,5.009033661E0,-8.573421478E0,1.057101746E0,9.985561484E0
2.444193625E0,4.610562286E0,-8.590186615E0,9.972262573E-1,9.800155656E0
2.454249625E0,4.295766907E0,-8.609346771E0,9.892927551E-1,9.672288524E0
2.464305625E0,4.200115814E0,-8.700806580E0,1.028211823E0,9.716080873E0
2.474361625E0,4.221371613E0,-8.772357788E0,1.080153809E0,9.794946233E0
2.484417625E0,4.216731262E0,-8.858578491E0,1.040486298E0,9.865994484E0
2.494473625E0,4.194727020E0,-8.917555847E0,8.913963318E-1,9.895106087E0
2.504529625E0,4.387675781E0,-8.984466705E0,7.521858215E-1,1.002687011E1
2.514585458E0,4.498295746E0,-9.064849548E0,5.373825073E-1,1.013385129E1
2.524640458E0,4.365671539E0,-8.887169037E0,4.984634399E-1,9.914097401E0
2.534696458E0,4.622986450E0,-8.699908447E0,6.409671021E-1,9.872752885E0
2.544752458E0,4.798571320E0,-8.480015717E0,6.316864014E-1,9.764014593E0
2.554808458E0,5.141508179E0,-8.455616455E0,5.465135193E-1,9.911167086E0
2.564864458E0,5.229674835E0,-8.436007233E0,4.180805969E-1,9.934309654E0
2.574920458E0,5.397625580E0,-8.256081390E0,4.860392761E-1,9.875903807E0
2.584976458E0,5.504353638E0,-8.139473877E0,6.607260132E-1,9.848121792E0
2.595032458E0,5.542224884E0,-8.115823059E0,7.038363647E-1,9.852828336E0
2.605088458E0,5.584736481E0,-8.078849945E0,6.873706055E-1,9.845281933E0
2.615143458E0,5.639223175E0,-7.992030487E0,6.810836792E-1,9.804961209E0
2.625199458E0,5.627996521E0,-7.905809784E0,7.024891663E-1,9.729833719E0
2.635255458E0,5.527555389E0,-7.873926086E0,7.384144592E-1,9.648722014E0
2.645311458E0,5.551505585E0,-7.961344299E0,7.918533325E-1,9.738031064E0
2.655367458E0,5.500162354E0,-8.082741852E0,7.719447327E-1,9.807058704E0
2.665423458E0,5.379662933E0,-8.155789948E0,7.676037598E-1,9.800351957E0
2.675479458E0,5.313051453E0,-8.152496796E0,7.858657837E-1,9.762648451E0
2.685535458E0,5.248535614E0,-8.168513489E0,8.033793640E-1,9.742543667E0
2.695591458E0,5.271138611E0,-8.204887848E0,8.511300659E-1,9.789254785E0
2.705647458E0,5.285209351E0,-8.198451233E0,9.086105347E-1,9.796612353E0
2.715702458E0,5.345683594E0,-8.169561310E0,9.604028320E-1,9.810221133E0
2.725758458E0,5.466183014E0,-8.134683838E0,9.885443115E-1,9.850353178E0
2.735814458E0,5.575904846E0,-8.081694031E0,9.931846619E-1,9.868683247E0
2.745870458E0,5.643115082E0,-8.029901733E0,9.891430664E-1,9.864201624E0
2.755926458E0,5.704188080E0,-7.987988892E0,9.608518982E-1,9.862502956E0
2.765982458E0,5.722749481E0,-7.970325623E0,9.337582397E-1,9.856361225E0
2.776038458E0,5.730682983E0,-7.966134338E0,9.307644653E-1,9.857299135E0
2.786094458E0,5.677842865E0,-7.956703949E0,9.101074219E-1,9.817093911E0
2.796150458E0,5.642815704E0,-7.970175934E0,9.006770325E-1,9.806951239E0
2.806205458E0,5.619913330E0,-7.989485779E0,9.184899902E-1,9.811163678E0
2.816261458E0,5.582491150E0,-8.024662628E0,9.389973450E-1,9.820444682E0
2.826317458E0,5.553451538E0,-8.033194885E0,9.662406921E-1,9.813595932E0
2.836373458E0,5.513784027E0,-8.013585663E0,9.711804199E-1,9.775610512E0
2.846429458E0,5.497767334E0,-7.998167725E0,9.930349731E-1,9.756139148E0
2.856485458E0,5.494324493E0,-7.987240448E0,1.005010071E0,9.746468943E0
2.866541458E0,5.495821381E0,-7.963290253E0,1.014889526E0,9.728722683E0
2.876597458E0,5.514083405E0,-7.956554260E0,1.016386414E0,9.733699853E0
2.886653458E0,5.530698853E0,-7.935148773E0,1.038390656E0,9.727973633E0
2.896709458E0,5.524860992E0,-7.889643402E0,1.050066376E0,9.688818369E0
2.906764458E0,5.555247803E0,-7.853418732E0,1.061742096E0,9.678029769E0
2.916820458E0,5.581143951E0,-7.840246124E0,1.069675598E0,9.683121035E0
2.926876458E0,5.603746948E0,-7.877069550E0,1.079255676E0,9.727024075E0
2.936932458E0,5.604345703E0,-7.913743286E0,1.088686066E0,9.758138189E0
2.946988458E0,5.574407959E0,-7.910899200E0,1.102307739E0,9.740196744E0
2.957044458E0,5.556295624E0,-7.877368927E0,1.133892059E0,9.706238894E0
2.967100458E0,5.537734222E0,-7.838000793E0,1.176253967E0,9.668729500E0
2.977156458E0,5.517226868E0,-7.814200287E0,1.241069183E0,9.645816251E0
2.987212458E0,5.535339203E0,-7.828570404E0,1.299597473E0,9.675507648E0
2.997267458E0,5.587131500E0,-7.888445892E0,1.331630859E0,9.757912571E0
3.007323458E0,5.610782318E0,-7.967182159E0,1.337768097E0,9.835979527E0
3.017379458E0,5.638025665E0,-8.031398621E0,1.325493622E0,9.901900350E0
3.027435458E0,5.605543213E0,-8.083041229E0,1.304537201E0,9.922675422E0
3.037491458E0,5.532195740E0,-8.100704498E0,1.258882141E0,9.889963969E0
3.047547458E0,5.408253479E0,-8.087531891E0,1.184636536E0,9.801058183E0
3.057603458E0,5.292544098E0,-8.097710724E0,1.120120697E0,9.738511815E0
3.067659458E0,5.181924133E0,-8.108488312E0,1.078507233E0,9.683134734E0
3.077715458E0,5.078489227E0,-8.128097534E0,1.053060150E0,9.641885606E0
3.087771458E0,5.037474518E0,-8.144862671E0,1.076561279E0,9.637111685E0
3.097826458E0,4.998256073E0,-8.145162048E0,1.113833771E0,9.621166989E0
3.107882458E0,5.018763428E0,-8.151149597E0,1.150806885E0,9.641243830E0
3.117938458E0,5.077740784E0,-8.118218079E0,1.173260193E0,9.647043885E0
3.127994458E0,5.144202576E0,-8.066725159E0,1.141077118E0,9.635192365E0
3.138050458E0,5.216053162E0,-7.981552277E0,1.091230774E0,9.597039748E0
3.148106458E0,5.317691803E0,-7.896978149E0,1.034798126E0,9.576581706E0
3.158162458E0,5.434149628E0,-7.813302155E0,1.020577698E0,9.571794585E0
3.168218458E0,5.541626129E0,-7.740553436E0,1.022972717E0,9.574563219E0
3.178274458E0,5.606141968E0,-7.740254059E0,1.020877075E0,9.611584191E0
3.188329458E0,5.680088196E0,-7.793842621E0,1.023272095E0,9.698168409E0
3.198385458E0,5.728437653E0,-7.862250366E0,1.015338593E0,9.780638589E0
3.208441458E0,5.747747498E0,-7.937394104E0,1.010249176E0,9.851874434E0
3.218497458E0,5.723946991E0,-7.973469086E0,1.016985168E0,9.867828396E0
3.228553458E0,5.620661774E0,-7.992180176E0,1.012045441E0,9.822984206E0
3.238609458E0,5.483846283E0,-8.011340332E0,1.046024780E0,9.764646016E0
3.248665458E0,5.374573517E0,-8.018824768E0,1.114582214E0,9.717504035E0
3.258721458E0,5.278922424E0,-8.031697998E0,1.218466187E0,9.688129569E0
3.268777458E0,5.204078064E0,-8.072413330E0,1.307980042E0,9.693146922E0
3.278832458E0,5.134173431E0,-8.099506989E0,1.303639069E0,9.677872964E0
3.288888458E0,5.068909149E0,-8.134085083E0,1.338217163E0,9.677189947E0
3.298944458E0,4.974754944E0,-8.156089325E0,1.359472961E0,9.649774431E0
3.309000458E0,4.902305603E0,-8.145461426E0,1.408271484E0,9.610638409E0
3.319056458E0,4.856051788E0,-8.124954071E0,1.458716583E0,9.577263268E0
3.329112458E0,4.874014435E0,-8.124205627E0,1.506317596E0,9.593108281E0
3.339168458E0,4.964426422E0,-8.163573761E0,1.534608765E0,9.677008335E0
3.349224458E0,5.000651093E0,-8.178243256E0,1.524429932E0,9.706392776E0
3.359280458E0,5.005740509E0,-8.168812866E0,1.488205261E0,9.695447209E0
3.369336458E0,5.070555725E0,-8.153544617E0,1.445843353E0,9.709855209E0
3.379391458E0,5.165458374E0,-8.115373993E0,1.391805725E0,9.719998891E0
3.389447458E0,5.262157288E0,-8.112529907E0,1.324146423E0,9.759959250E0
3.399503458E0,5.345833282E0,-8.102201385E0,1.251098328E0,9.787177724E0
3.409559458E0,5.401068420E0,-8.035739594E0,1.202599182E0,9.756582173E0
3.419615458E0,5.417234802E0,-7.927814026E0,1.145567780E0,9.670004843E0
3.429671458E0,5.399122467E0,-7.863298187E0,1.137933655E0,9.606085300E0
3.439727458E0,5.318889313E0,-7.858807526E0,1.186732178E0,9.563460279E0
3.449783458E0,5.319488068E0,-7.965834961E0,1.344354401E0,9.672578182E0
3.459839458E0,5.478457489E0,-8.173902283E0,1.530118103E0,9.958284812E0
3.469894458E0,5.673352203E0,-8.311017151E0,1.693877563E0,1.020436929E1
3.479950458E0,5.541775818E0,-8.306825867E0,1.780697021E0,1.014324983E1
3.490006458E0,5.435047760E0,-8.368048553E0,1.779948578E0,1.013568930E1
3.500062458E0,5.514682159E0,-8.490793304E0,1.743873596E0,1.027357705E1
3.510118458E0,5.581892395E0,-8.539891205E0,1.669029236E0,1.033793611E1
3.520174458E0,5.613177338E0,-8.536897430E0,1.566342773E0,1.033633432E1
3.530230458E0,5.593867493E0,-8.501870270E0,1.424587555E0,1.027631263E1
3.540286458E0,5.494324493E0,-8.457412720E0,1.272952881E0,1.016542378E1
3.550342458E0,5.429359589E0,-8.472531281E0,1.149309998E0,1.012830910E1
3.560397458E0,5.388195190E0,-8.495134277E0,1.104104004E0,1.012022724E1
3.570453458E0,5.319039001E0,-8.525521088E0,1.101409607E0,1.010889652E1
3.580509458E0,5.242697754E0,-8.566386108E0,1.101409607E0,1.010356144E1
3.590565458E0,5.228177948E0,-8.600814514E0,1.105002136E0,1.012565478E1
3.600621458E0,5.195845184E0,-8.655301208E0,1.111738129E0,1.015613154E1
3.610677458E0,5.184768219E0,-8.691675568E0,1.082997894E0,1.017840509E1
3.620733458E0,5.044060822E0,-8.739725647E0,1.020877075E0,1.014236382E1
3.630789458E0,4.970863037E0,-8.831185455E0,9.398954773E-1,1.017755960E1
3.640845458E0,5.062023468E0,-9.026080170E0,7.839198303E-1,1.037828190E1
3.650901458E0,5.112917633E0,-9.357191620E0,5.975573730E-1,1.067970208E1
3.660956458E0,4.898862762E0,-9.767638092E0,4.044589233E-1,1.093477011E1
3.671012458E0,4.692142639E0,-1.014829651E1,1.432521057E-1,1.118144202E1
3.681068458E0,4.526886292E0,-1.039468414E1,-7.708969116E-2,1.133790548E1
3.691124458E0,4.282743988E0,-1.048449738E1,-2.408491516E-1,1.132804439E1
3.701180458E0,3.903283081E0,-1.032043854E1,-3.064128113E-1,1.103815923E1
3.711236458E0,3.549269257E0,-9.937684479E0,-2.125579834E-1,1.055462297E1
3.721292458E0,3.183280334E0,-9.467811584E0,-2.005828857E-2,9.988650170E0
3.731348458E0,2.903811493E0,-8.992699585E0,1.923500061E-1,9.451865717E0
3.741404458E0,2.675985260E0,-8.587941284E0,2.926414490E-1,8.999959535E0
3.751459458E0,2.294728088E0,-8.287815399E0,3.125500488E-1,8.605309328E0
3.761515458E0,2.060465240E0,-8.238118744E0,3.300636292E-1,8.498297444E0
3.771571458E0,1.539847870E0,-8.403375092E0,3.942800903E-1,8.552385701E0
3.781627458E0,7.342231750E-1,-8.788224792E0,8.349636841E-1,8.858281042E0
3.791683458E0,5.358856201E-2,-9.403295746E0,1.457219696E0,9.515688722E0
3.801739458E0,-6.646179199E-1,-1.005129822E1,1.630559235E0,1.020436359E1
3.811795458E0,-1.143921204E0,-1.051952454E1,1.345252533E0,1.066670786E1
3.821851458E0,-1.243164825E0,-1.074600357E1,8.848100281E-1,1.085379843E1
3.831907458E0,-9.187893677E-1,-1.076995377E1,6.996450806E-1,1.083169337E1
3.841962458E0,-3.775149536E-1,-1.058643539E1,5.460644531E-1,1.060722953E1
3.852018458E0,-1.287322998E-2,-1.032388138E1,3.134481812E-1,1.032864668E1
3.862074458E0,2.092648315E-1,-9.921967163E0,6.840774536E-2,9.924409492E0
3.872130458E0,4.251159668E-2,-9.417815552E0,-5.322930908E-1,9.432941903E0
3.882186458E0,-6.436614990E-2,-9.106163635E0,-1.040336609E0,9.165623787E0
3.892242458E0,-1.249900818E-1,-9.138945465E0,-1.282982025E0,9.229408952E0
3.902298458E0,-7.725434875E-1,-8.983269196E0,-1.432970123E0,9.129586642E0
3.912354458E0,-1.489702148E0,-8.492140503E0,-1.405726776E0,8.735658566E0
3.922410458E0,-1.641636200E0,-7.912545776E0,-1.170565796E0,8.165388806E0
3.932466458E0,-1.561552734E0,-7.323969727E0,-8.827143860E-1,7.540435278E0
3.942521458E0,-1.479074249E0,-6.766678619E0,-7.012916565E-1,6.961853931E0
3.952577458E0,-1.634900208E0,-6.275549927E0,-6.030958557E-1,6.512998555E0
3.962633458E0,-1.793121185E0,-5.836363220E0,-4.872367859E-1,6.125015829E0
3.972689458E0,-1.787133636E0,-5.429359589E0,-5.441184998E-1,5.741764286E0
3.982745458E0,-1.650018768E0,-5.164410553E0,-1.024918671E0,5.517622366E0
3.992801458E0,-1.417701874E0,-5.107229462E0,-1.529519348E0,5.516620416E0
4.002857458E0,-1.315165100E0,-5.237308960E0,-2.045945435E0,5.774509252E0
4.012913458E0,-1.206341400E0,-5.585933990E0,-2.521656189E0,6.246332368E0
4.022968458E0,-1.006956024E0,-5.958808594E0,-2.530038757E0,6.551523213E0
4.033024458E0,-8.381071472E-1,-6.456972656E0,-2.356250153E0,6.924365260E0
4.043080458E0,-9.542655945E-1,-7.426805878E0,-2.661764832E0,7.946889982E0
4.053136458E0,-1.156045990E0,-9.105864258E0,-3.392545166E0,9.785835116E0
4.063192458E0,-1.215472412E0,-1.138218063E1,-3.825444946E0,1.206919377E1
4.073248458E0,-1.245260468E0,-1.411983765E1,-3.392245789E0,1.457490378E1
4.083304458E0,-1.594633942E0,-1.762884064E1,-2.842139740E0,1.792753853E1
4.093360458E0,-2.454146576E0,-2.207609253E1,-2.881657562E0,2.239822866E1
4.103416458E0,-3.174897766E0,-2.683379883E1,-3.268303528E0,2.721790850E1
4.113472458E0,-3.413950653E0,-2.997711227E1,-3.657494202E0,3.039176835E1
4.123527458E0,-2.634371796E0,-2.981095779E1,-3.674558716E0,3.015187392E1
4.133583458E0,-1.875749359E0,-2.658426773E1,-3.388353882E0,2.686489658E1
4.143639458E0,-2.089355164E0,-2.257350815E1,-3.019371185E0,2.287018315E1
4.153695458E0,-2.142494659E0,-1.952749237E1,-2.649490356E0,1.982253871E1
4.163751458E0,-2.077829132E0,-1.755459503E1,-2.550845490E0,1.786023497E1
4.173807458E0,-2.093396759E0,-1.618763763E1,-2.429747314E0,1.650229057E1
4.183863458E0,-2.101629639E0,-1.515298920E1,-2.324216766E0,1.547358757E1
4.193919458E0,-1.805096283E0,-1.393587021E1,-2.169887695E0,1.421883482E1
4.203975458E0,-1.309327240E0,-1.226519440E1,-1.859882355E0,1.247431336E1
4.214030458E0,-8.967851257E-1,-1.045306274E1,-1.418899384E0,1.058697406E1
4.224086458E0,-4.920268250E-1,-8.873996429E0,-9.068142700E-1,8.933768250E0
4.234142458E0,-2.688409424E-1,-7.322622528E0,-4.360432434E-1,7.340518364E0
4.244198458E0,-1.523831177E-1,-5.715265045E0,-4.430786133E-2,5.717467826E0
4.254254458E0,8.307723999E-2,-4.133953400E0,2.363584900E-1,4.141538105E0
4.264310458E0,1.698966980E-1,-2.766696625E0,5.164260864E-1,2.819604760E0
4.274366458E0,2.737806702E-1,-1.686991882E0,6.291416931E-1,1.821185530E0
4.284422458E0,3.185375977E-1,-8.637039185E-1,6.078858948E-1,1.103166316E0
4.294478458E0,3.544628906E-1,-2.776725769E-1,4.833448792E-1,6.605817686E-1
4.304533458E0,3.674858093E-1,6.197113037E-2,3.305126953E-1,4.981213535E-1
4.314589458E0,2.923420715E-1,2.023791504E-1,1.360670471E-1,3.807038857E-1
4.324645458E0,1.860630798E-1,2.336640930E-1,-8.562194824E-2,3.107241479E-1
4.334701458E0,1.553768921E-1,2.070195007E-1,-3.650907898E-1,4.475380845E-1
4.344757458E0,1.122665405E-1,1.526824951E-1,-4.237687683E-1,4.642151327E-1
4.354813458E0,5.628295898E-2,1.336720276E-1,-5.125341797E-1,5.326605559E-1
4.364869458E0,9.834548950E-2,1.748364258E-1,-6.632707214E-1,6.929413114E-1
4.374925458E0,6.242019653E-2,1.868115234E-1,-7.298822021E-1,7.559913063E-1
4.384981458E0,3.427871704E-2,2.239343262E-1,-8.734336853E-1,9.023347580E-1
4.395036458E0,6.945556641E-2,2.534230042E-1,-8.219407654E-1,8.629217326E-1
4.405092458E0,6.765930176E-2,3.150947571E-1,-7.394622803E-1,8.066392942E-1
4.415148458E0,3.502716064E-2,3.709286499E-1,-6.938072205E-1,7.875172534E-1
4.425204458E0,3.442840576E-3,4.050576782E-1,-5.736071777E-1,7.022170392E-1
4.435260458E0,-2.754272461E-2,4.713697815E-1,-4.984634399E-1,6.865958590E-1
4.445316458E0,-2.649490356E-2,4.998106384E-1,-4.453239441E-1,6.699448256E-1
4.455372458E0,-3.158432007E-2,4.574487305E-1,-4.453239441E-1,6.391950606E-1
4.465428458E0,-2.140548706E-2,4.426295471E-1,-4.116439819E-1,6.048387212E-1
4.475484458E0,-3.173400879E-2,2.546205139E-1,-3.516188049E-1,4.352866152E-1
4.485539458E0,-2.993774414E-4,-1.392105103E-1,-2.200424194E-1,2.603811094E-1
4.495595458E0,2.424957275E-2,-3.568579102E-1,-1.778302002E-1,3.994486074E-1
4.505651458E0,1.104702759E-1,-1.640887756E0,-8.704399109E-1,1.860747686E0
4.515707708E0,1.783990173E0,-2.218162308E1,-3.333867188E0,2.250159314E1
4.525763708E0,1.478774872E1,-7.170404068E1,-3.912863159E0,7.331751128E1
4.535819708E0,1.011237122E1,-7.863911911E1,8.370293884E0,7.972724080E1
4.545875708E0,7.201524353E0,-6.589671707E1,1.326301941E1,6.760286205E1
4.555931708E0,4.688849487E0,-4.321423553E1,1.038315811E1,4.469077572E1
4.565987708E0,2.844085693E-2,-2.522449539E1,6.367009735E0,2.601566431E1
4.576042708E0,-1.637295227E0,-1.716929626E1,3.481011200E0,1.759496828E1
4.586098708E0,-8.246351624E-1,-1.375983627E1,1.905986481E0,1.391567109E1
4.596154708E0,-1.125359802E0,-1.230381409E1,-3.817062378E-1,1.236106692E1
4.606210708E0,-2.116299133E0,-1.054676788E1,-2.241438904E0,1.098804274E1
4.616266708E0,-1.369951172E0,-8.116122437E0,-3.064128113E0,8.782772382E0
4.626322708E0,-6.556365967E-1,-5.812562714E0,-4.073928223E0,7.128298241E0
4.636378708E0,-4.484674072E-1,-3.709286499E0,-5.235363007E0,6.431870269E0
4.646434708E0,-1.324745178E-1,-2.041903839E0,-1.000953506E1,1.021654115E1
4.656490708E0,5.216651917E-1,-5.833369446E-1,-1.614931732E1,1.616826727E1
4.666546708E0,-1.339714050E-1,-3.791615295E-1,-8.915011139E0,8.924076166E0
4.676601708E0,-3.089575195E-1,-3.951782227E-2,-3.339555359E0,3.354049255E0
4.686657708E0,3.891906738E-3,5.703140259E-1,-1.165626068E0,1.297673829E0
4.696713708E0,1.947450256E-1,8.485853577E-1,-9.086105347E-2,8.753733291E-1
4.706769708E0,7.738906860E-2,8.198451233E-1,7.364685059E-2,8.267762410E-1
4.716825708E0,-8.472381592E-2,8.217910767E-1,1.854643250E-1,8.467087542E-1
4.726881708E0,-1.883084106E-1,1.001118164E0,5.146298218E-1,1.141289398E0
4.736937708E0,-1.465452576E-1,1.138532410E0,8.178991699E-1,1.409500129E0
4.746993708E0,-8.681945801E-3,1.203946381E0,1.074914703E0,1.614002442E0
4.757049708E0,1.710942078E-1,1.158590698E0,1.128353577E0,1.626280243E0
4.767104708E0,2.475851440E-1,9.345066833E-1,1.169368286E0,1.517242015E0
4.777160708E0,2.332150269E-1,6.882687378E-1,1.184187469E0,1.389389458E0
4.787216708E0,8.756790161E-2,5.242098999E-1,1.179846497E0,1.294025468E0
4.797272708E0,-2.439926147E-2,4.314028931E-1,1.151854706E0,1.230232922E0
4.807328708E0,-6.676116943E-2,4.349954224E-1,9.876461792E-1,1.081259935E0
4.817384708E0,-5.089416504E-2,5.498066711E-1,9.846524048E-1,1.128901214E0
4.827440708E0,-7.020401001E-2,6.911128235E-1,8.366102600E-1,1.087420004E0
4.837496708E0,-7.783813477E-2,8.147557068E-1,8.643026733E-1,1.190338081E0
4.847552708E0,-6.092330933E-2,8.373587036E-1,9.397457886E-1,1.260160067E0
4.857607708E0,-1.305285645E-1,6.050418091E-1,8.527766418E-1,1.053727336E0
4.867663708E0,-9.220825195E-2,-1.178050232E-1,6.360273743E-1,6.533844244E-1
4.877719708E0,-2.080673218E-2,-5.833369446E-1,6.198609924E-1,8.514355883E-1
4.887775708E0,1.097218323E-1,-1.869013367E0,1.219364319E0,2.234300604E0
4.897831708E0,5.922434235E0,-2.130429749E1,-7.738906860E-1,2.212571412E1
4.907887708E0,1.207838287E0,-7.694434341E1,-1.294612839E1,7.803520422E1
4.917943708E0,-9.434880066E0,-7.663688278E1,-6.128256226E0,7.745827450E1
4.927999708E0,4.327800293E0,-5.973268524E1,5.094206543E0,6.010552788E1
4.938055708E0,1.286125488E0,-3.774880096E1,3.916455688E0,3.797321053E1
4.948110708E0,8.966354370E-2,-2.292392944E1,1.103205872E0,2.295063493E1
4.958166708E0,1.661544800E-2,-1.718022354E1,-2.365081787E-1,1.718185942E1
4.968222708E0,4.429289246E-1,-1.429871567E1,-1.406624908E0,1.437456258E1
4.978278708E0,1.406325531E0,-1.307860291E1,-2.493814087E0,1.338830513E1
4.988334708E0,1.308279419E0,-1.161569504E1,-2.957549744E0,1.205749007E1
4.998390708E0,1.032253418E0,-9.486522675E0,-3.141517181E0,1.004633216E1
5.008446708E0,6.882687378E-1,-7.462431793E0,-3.116369476E0,8.116240561E0
5.018502708E0,1.704954529E-1,-5.562432861E0,-3.266956329E0,6.453117982E0
5.028558708E0,-3.891906738E-1,-3.895349579E0,-3.837569733E0,5.481984967E0
5.038613708E0,-7.810757446E-1,-2.544408875E0,-4.824467468E0,5.509953012E0
5.048669708E0,-9.978250122E-1,-1.200204163E0,-5.771398315E0,5.978727565E0
5.058725708E0,-9.620494080E-1,-1.326242065E-1,-5.240153046E0,5.329383847E0
5.068781708E0,-4.418811035E-1,3.873944092E-1,-3.289858704E0,3.341931123E0
5.078837708E0,-8.292755127E-2,5.824388123E-1,-1.679657135E0,1.779707852E0
5.088893708E0,6.885681152E-2,5.942642212E-1,-8.509803772E-1,1.040220567E0
5.098949708E0,2.070195007E-1,5.692662048E-1,-4.887336731E-1,7.783197857E-1
5.109005708E0,2.415975952E-1,5.754034424E-1,-2.701881409E-1,6.800442272E-1
5.119061708E0,1.850152588E-1,5.911207581E-1,-8.861572266E-2,6.257053163E-1
5.129116708E0,8.936416626E-2,5.616320801E-1,7.798782349E-2,5.740197281E-1
5.139172708E0,-1.197509766E-2,5.821394348E-1,1.290316772E-1,5.963882110E-1
5.149228708E0,-5.763015747E-2,5.830375671E-1,2.013313293E-1,6.195065326E-1
5.159284708E0,-4.805007935E-2,6.297404480E-1,2.643502808E-1,6.846626271E-1
5.169340708E0,-2.095642090E-3,6.816824341E-1,3.278182983E-1,7.564126978E-1
5.179396708E0,-2.365081787E-2,5.646258545E-1,3.974235535E-1,6.908742270E-1
5.189452708E0,-6.361770630E-2,4.284091187E-1,3.941304016E-1,5.855940223E-1
5.199508708E0,-1.037342834E-1,3.841012573E-1,3.736230469E-1,5.457918638E-1
5.209564708E0,-8.143066406E-2,4.255650330E-1,3.782633972E-1,5.751693212E-1
5.219619708E0,-7.379653931E-2,5.517526245E-1,3.799099731E-1,6.739499058E-1
5.229675708E0,-3.367996216E-2,6.331832886E-1,3.267704773E-1,7.133262659E-1
5.239731708E0,3.367996216E-2,6.649172974E-1,3.573069763E-1,7.555909128E-1
5.249787708E0,1.360670471E-1,4.577481079E-1,3.155438232E-1,5.723770401E-1
5.259843708E0,8.577163696E-2,-2.848576355E-1,1.830693054E-1,3.493064798E-1
5.269899708E0,-7.185058594E-3,-5.697152710E-1,2.963836670E-1,6.422385796E-1
5.279955708E0,1.519340515E-1,-1.046174469E0,5.289999390E-1,1.182119246E0
5.290011708E0,3.694317627E0,-2.256317963E1,-2.127226410E0,2.296236377E1
5.300067708E0,8.381520538E0,-7.837267319E1,-8.299640808E0,7.925534573E1
5.310122708E0,6.526278534E0,-7.378516296E1,9.562115479E-1,7.407939609E1
5.320178708E0,9.271419983E0,-5.696089920E1,6.140530701E0,5.803627644E1
5.330234708E0,3.059338074E0,-3.517460403E1,4.039499817E0,3.553772470E1
5.340290708E0,1.033450928E0,-2.096375565E1,1.946851501E0,2.107930982E1
5.350346708E0,1.438807983E0,-1.577359863E1,8.198451233E-1,1.586028777E1
5.360402708E0,2.010618896E0,-1.349249222E1,-4.761598206E-1,1.364978618E1
5.370458708E0,2.308349762E0,-1.233839218E1,-1.729653168E0,1.267107337E1
5.380514708E0,2.121388550E0,-1.116827545E1,-2.204016724E0,1.157965266E1
5.390570708E0,1.648821259E0,-9.455088043E0,-2.373763733E0,9.886963928E0
5.400625708E0,1.210382996E0,-7.391179962E0,-2.407743073E0,7.867133845E0
5.410681708E0,6.798861694E-1,-5.278024292E0,-2.933000793E0,6.076370568E0
5.420737708E0,-1.164578247E-1,-3.665876770E0,-3.663631439E0,5.184053457E0
5.430793708E0,-6.445596313E-1,-2.216740265E0,-4.909939728E0,5.425578554E0
5.440849708E0,-8.044271851E-1,-5.346881104E-1,-6.493496704E0,6.564944319E0
5.450905708E0,-7.658074951E-1,5.935157776E-1,-4.905898132E0,5.000655815E0
5.460961708E0,-4.797523499E-1,7.575746155E-1,-2.287093964E0,2.456599360E0
5.471017708E0,-3.017724609E-1,6.503974915E-1,-1.071022797E0,1.288865139E0
5.481073708E0,-3.906875610E-2,6.873706055E-1,-4.963677979E-1,8.487553874E-1
5.491128708E0,1.883084106E-1,7.454498291E-1,-1.826202393E-1,7.902567032E-1
5.501184708E0,1.474433899E-1,6.994953918E-1,1.511856079E-2,7.150258228E-1
5.511240708E0,4.894821167E-2,6.828799438E-1,1.942959595E-1,7.116683673E-1
5.521296083E0,5.149291992E-2,7.520361328E-1,4.278103638E-1,8.667361612E-1
5.531352083E0,5.748046875E-2,7.494914246E-1,6.125262451E-1,9.696544749E-1
5.541408083E0,6.526428223E-2,8.192463684E-1,7.158114624E-1,1.089867005E0
5.551464083E0,1.149609375E-1,9.086105347E-1,8.002359009E-1,1.216209940E0
5.561520083E0,1.800755310E-1,9.654922485E-1,8.607101440E-1,1.305918999E0
5.571576083E0,8.023315430E-2,9.654922485E-1,8.723858643E-1,1.303713825E0
5.581631083E0,6.092330933E-2,9.271719360E-1,9.026229858E-1,1.295410245E0
5.591687083E0,1.122665405E-1,7.670050049E-1,8.586145020E-1,1.156771074E0
5.601743083E0,1.616638184E-1,7.467970276E-1,7.583230591E-1,1.076519787E0
5.611799083E0,2.404000854E-1,8.439450073E-1,6.939569092E-1,1.118754472E0
5.621855083E0,2.182461548E-1,9.795629883E-1,6.358776855E-1,1.188072162E0
5.631911083E0,5.882766724E-2,9.551637268E-1,5.864804077E-1,1.122389285E0
5.641967083E0,-2.315684509E-1,6.685098267E-1,4.671784973E-1,8.478119391E-1
5.652023083E0,-3.719764709E-1,-1.609153748E-1,2.978805542E-1,5.029841721E-1
5.662079083E0,-9.684860229E-2,-4.959187317E-1,3.758683777E-1,6.297555697E-1
5.672134083E0,-1.519340515E-1,-8.738827515E-1,9.089099121E-1,1.269989074E0
5.682190083E0,2.544708252E0,-1.645483200E1,-2.736309814E-1,1.665268477E1
5.692246083E0,1.590382782E1,-7.544595932E1,-6.564598846E0,7.738293400E1
5.702302083E0,1.341121124E1,-7.486696335E1,-1.624272308E0,7.607602151E1
5.712358083E0,1.319865326E1,-5.717555283E1,3.682192841E0,5.879461568E1
5.722414083E0,5.543572083E0,-3.711876114E1,2.376757507E0,3.760561921E1
5.732470083E0,2.483635254E0,-2.331312012E1,1.222807159E0,2.347690932E1
5.742526083E0,1.794169006E0,-1.826411957E1,4.426295471E-1,1.835736983E1
5.752582083E0,2.051483917E0,-1.691018509E1,-5.948629761E-1,1.704455362E1
5.762637083E0,2.905458069E0,-1.667607193E1,-1.804946594E0,1.702324569E1
5.772693083E0,3.348237305E0,-1.575518692E1,-2.782413940E0,1.634559376E1
5.782749083E0,3.465293884E0,-1.319745575E1,-3.767216034E0,1.415531761E1
5.792805083E0,2.858605499E0,-1.037522461E1,-4.937931519E0,1.184061142E1
5.802861083E0,1.829495544E0,-7.603887634E0,-7.350314941E0,1.073281374E1
5.812917083E0,7.732919312E-1,-4.904700623E0,-1.008243347E1,1.123875141E1
5.822973083E0,-7.753875732E-2,-3.284020844E0,-9.626631317E0,1.017166828E1
5.833029083E0,-3.483256531E-1,-2.758463745E0,-7.258705444E0,7.772982550E0
5.843085083E0,-3.228785706E-1,-2.535876617E0,-5.123395844E0,5.725740630E0
5.853140083E0,-1.806742859E-1,-2.165696411E0,-3.128194885E0,3.809000838E0
5.863196083E0,-1.347198486E-1,-1.610650635E0,-1.562301178E0,2.247916786E0
5.873252083E0,-1.053808594E-1,-9.680369568E-1,-3.950285339E-1,1.050832155E0
5.883308083E0,-1.417552185E-1,-3.626957703E-1,3.174897766E-1,5.024365850E-1
5.893364083E0,-2.404000854E-1,1.920506287E-1,6.655160522E-1,7.332034239E-1
5.903420083E0,-3.014730835E-1,5.677693176E-1,7.595205688E-1,9.950474926E-1
5.913476083E0,-2.737806702E-1,7.063810730E-1,7.441026306E-1,1.061893969E0
5.923532083E0,-1.904040527E-1,7.964936829E-1,7.235952759E-1,1.092815636E0
5.933587083E0,-1.242416382E-1,8.900491333E-1,6.870712280E-1,1.131233980E0
5.943643083E0,-1.378633118E-1,9.746232605E-1,5.620811462E-1,1.133504304E0
5.953699083E0,-1.188528442E-1,1.036295013E0,4.751119995E-1,1.146195780E0
5.963755083E0,-6.436614990E-2,1.039737854E0,4.173321533E-1,1.122213853E0
5.973811083E0,-9.654922485E-2,1.043330383E0,3.959266663E-1,1.120097302E0
5.983867083E0,-1.191522217E-1,1.030157776E0,4.225712585E-1,1.119816397E0
5.993923083E0,-1.565744019E-1,1.011596375E0,5.038522339E-1,1.140924994E0
6.003979083E0,-1.664538574E-1,9.454339600E-1,5.575904846E-1,1.110161884E0
6.014035083E0,-1.748364258E-1,8.334667969E-1,6.370751953E-1,1.063531608E0
6.024090083E0,-1.712438965E-1,7.553292847E-1,7.262896729E-1,1.061764328E0
6.034146083E0,-1.440005493E-1,7.117698669E-1,8.306227112E-1,1.103307115E0
6.044202083E0,-1.163081360E-1,6.099815369E-1,9.620494080E-1,1.145052017E0
6.054258083E0,3.338058472E-2,-2.314187622E-1,9.138496399E-1,9.432868446E-1
6.064314083E0,6.242019653E-2,-9.297166443E-1,1.049168243E0,1.403218915E0
6.074370083E0,1.496887207E-4,-1.130598907E0,1.365011444E0,1.772430578E0
6.084426083E0,2.797382812E0,-1.905163193E1,2.718347168E-1,1.925782760E1
6.094482083E0,1.367990250E1,-7.654527328E1,-3.606450348E0,7.784166673E1
6.104538083E0,1.280018188E1,-7.270291351E1,2.230511627E0,7.385481346E1
6.114593083E0,1.400083511E1,-5.413851837E1,5.405559082E0,5.618026899E1
6.124649083E0,6.578070831E0,-3.455594055E1,2.146236877E0,3.524188383E1
6.134705083E0,3.686683502E0,-2.161999100E1,3.332070923E-1,2.193459990E1
6.144761083E0,3.514391785E0,-1.739906845E1,-2.174977112E-1,1.775178407E1
6.154817083E0,3.736529846E0,-1.649884048E1,-1.429527283E0,1.697695323E1
6.164873083E0,4.090693359E0,-1.615740051E1,-3.113525391E0,1.695551249E1
6.174929083E0,3.745211792E0,-1.470781494E1,-3.529959412E0,1.558226701E1
6.184985083E0,3.092718658E0,-1.151794830E1,-3.592379608E0,1.245524922E1
6.195041083E0,2.574047241E0,-7.849826202E0,-4.008065186E0,9.182051902E0
6.205096083E0,1.576222229E0,-4.454137573E0,-6.219266968E0,7.810448108E0
6.215152083E0,-8.229885864E-1,-1.932032318E0,-1.478714996E1,1.493552353E1
6.225208083E0,-2.105671234E0,-1.036145325E0,-1.699850143E1,1.715973483E1
6.235264083E0,-4.321513367E-1,-1.127305756E0,-1.083042801E1,1.089751090E1
6.245320083E0,6.222560120E-1,-6.526428223E-1,-6.579717407E0,6.641221752E0
6.255376083E0,6.123765564E-1,-2.893482971E-1,-3.292702789E0,3.361639353E0
6.265432083E0,3.137475586E-1,-2.215393066E-2,-1.479223938E0,1.512293551E0
6.275488083E0,5.957611084E-2,2.597099304E-1,-7.867639160E-1,8.306599909E-1
6.285543083E0,-1.193019104E-1,4.076023865E-1,-4.667294312E-1,6.310380442E-1
6.295599083E0,-1.577719116E-1,4.294569397E-1,-2.883004761E-1,5.407794409E-1
6.305655083E0,-2.180964661E-1,4.412823486E-1,-2.303709412E-1,5.434767247E-1
6.315711083E0,-2.549198914E-1,5.433700562E-1,-3.233276367E-2,6.010661998E-1
6.325767083E0,-2.442919922E-1,6.351292419E-1,4.052073669E-1,7.919979430E-1
6.335823083E0,-1.811233521E-1,7.590715027E-1,8.933422852E-1,1.186193767E0
6.345879083E0,-6.586303711E-2,9.813592529E-1,1.297052765E0,1.627805209E0
6.355935083E0,2.335144043E-2,1.166673889E0,1.567540283E0,1.954189293E0
6.365991083E0,8.232879639E-2,1.240171051E0,1.720372467E0,2.122376897E0
6.376047083E0,1.300794983E-1,1.167721710E0,1.829495544E0,2.174292670E0
6.386102083E0,1.812730408E-1,1.076561279E0,1.879192200E0,2.173294142E0
6.396158083E0,2.160008240E-1,1.047671356E0,1.844614105E0,2.132339753E0
6.406214083E0,2.661465454E-1,9.952803040E-1,1.754651184E0,2.034752478E0
6.416270083E0,3.197351074E-1,9.696835327E-1,1.611848145E0,1.908028075E0
6.426326083E0,4.950205994E-1,8.223898315E-1,1.392404480E0,1.691200953E0
6.436382083E0,5.707630920E-1,-2.026785278E-1,1.063388672E0,1.223782889E0
6.446438083E0,2.457888794E-1,-1.118623810E0,1.111289062E0,1.595836703E0
6.456494083E0,2.647993469E-1,-1.593735809E0,1.691632233E0,2.339173387E0
6.466549083E0,2.264191589E0,-1.088072342E1,1.326691132E0,1.119271259E1
6.476605083E0,1.766671188E1,-6.967186661E1,-6.154302063E0,7.213984433E1
6.486661083E0,1.696317490E1,-7.749624573E1,-4.392016754E0,7.945254694E1
6.496717083E0,1.759471161E1,-5.826678360E1,2.271376648E0,6.090772611E1
6.506773083E0,8.270301819E0,-3.593666931E1,2.032623138E0,3.693201389E1
6.516829583E0,2.958747253E0,-2.050600754E1,7.878117371E-1,2.073333494E1
6.526885583E0,1.670526123E0,-1.506018219E1,2.252815247E-1,1.515422373E1
6.536941583E0,1.472188568E0,-1.449780167E1,-6.818321228E-1,1.458829967E1
6.546997583E0,2.344275055E0,-1.559067902E1,-2.479593658E0,1.595973942E1
6.557052583E0,2.738106079E0,-1.571896225E1,-3.378025360E0,1.630932416E1
6.567108583E0,2.432441711E0,-1.331436264E1,-3.741918640E0,1.404247059E1
6.577164583E0,1.782493286E0,-9.857601013E0,-4.308789825E0,1.090482690E1
6.587220583E0,1.108145599E0,-6.749763794E0,-5.605842590E0,8.843798341E0
6.597276583E0,-4.924758911E-2,-3.738625488E0,-9.414372711E0,1.012966729E1
6.607332583E0,-1.754351807E0,-1.721719666E0,-1.491902573E1,1.512016526E1
6.617388583E0,-1.480122070E0,-1.372346191E0,-1.209544739E1,1.226270537E1
6.627444583E0,-5.930667114E-1,-1.155297546E0,-7.840096436E0,7.946920955E0
6.637500583E0,-3.144960022E-1,-8.271798706E-1,-4.458628235E0,4.545602271E0
6.647555583E0,-2.534230042E-1,-5.465135193E-1,-2.066452789E0,2.152470064E0
6.657611583E0,-3.335064697E-1,-2.453398132E-1,-8.903485107E-1,9.819056268E-1
6.667667583E0,-4.460723877E-1,5.463638306E-2,-3.623963928E-1,5.773186771E-1
6.677723583E0,-2.923420715E-1,2.911445618E-1,-8.786727905E-2,4.218408484E-1
6.687779583E0,-2.618055725E-1,3.168910217E-1,-1.796264648E-3,4.110538943E-1
6.697835583E0,-3.664379883E-1,3.941304016E-1,2.640509033E-1,5.994484567E-1
6.707891583E0,-3.629951477E-1,5.870791626E-1,6.108796692E-1,9.217382441E-1
6.717947583E0,-2.685415649E-1,7.905061340E-1,9.056167603E-1,1.231728962E0
6.728002583E0,-1.146615601E-1,1.027164001E0,1.062789917E0,1.482476161E0
6.738058583E0,-2.035766602E-2,1.255289612E0,1.130299530E0,1.689302658E0
6.748114583E0,1.945953369E-2,1.307830353E0,1.192719727E0,1.770135377E0
6.758170583E0,1.990859985E-2,1.247356110E0,1.297352142E0,1.799837825E0
6.768226583E0,7.933502197E-3,1.225351868E0,1.330133972E0,1.808537123E0
6.778282583E0,-1.332229614E-2,1.146316223E0,1.363514557E0,1.781401222E0
6.788338583E0,-3.233276367E-2,1.139280853E0,1.421743469E0,1.822185710E0
6.798394583E0,-1.257385254E-2,1.239572296E0,1.589095459E0,2.015421037E0
6.808450583E0,1.151106262E-1,1.240021362E0,1.720522156E0,2.123935009E0
6.818505583E0,4.113446045E-1,3.986210632E-1,1.639540558E0,1.736720005E0
6.828561583E0,2.013313293E-1,-1.081201630E0,1.425485687E0,1.800427925E0
6.838617583E0,1.103205872E-1,-2.008223877E0,2.004631348E0,2.839662059E0
6.848673583E0,4.519102478E-1,-3.435505829E0,2.865341492E0,4.496343518E0
6.858729583E0,1.187600372E1,-4.380221283E1,-1.031355286E-1,4.538374103E1
6.868785583E0,1.874357254E1,-8.052100571E1,-2.246228943E0,8.270428898E1
6.878841583E0,1.827399902E1,-6.566095734E1,3.517535248E0,6.824714949E1
6.888897583E0,1.071831116E1,-4.209456390E1,3.333418121E0,4.356542414E1
6.898953583E0,4.086502075E0,-2.380634445E1,8.406518555E-1,2.416915867E1
6.909008583E0,2.744093628E0,-1.623463989E1,-6.680607605E-1,1.647846739E1
6.919064583E0,2.462080078E0,-1.485016891E1,-2.112407227E0,1.520038221E1
6.929120583E0,3.281625824E0,-1.612940872E1,-3.908222809E0,1.691747911E1
6.939176583E0,3.449875946E0,-1.699820206E1,-4.738845520E0,1.798046646E1
6.949232583E0,2.809058533E0,-1.561672485E1,-5.173541565E0,1.668947085E1
6.959288583E0,3.271297302E0,-1.221684494E1,-4.747976532E0,1.350910684E1
6.969344583E0,3.454815674E0,-7.838599548E0,-5.910010071E0,1.040709437E1
6.979400583E0,2.261497192E0,-3.762875061E0,-8.969048767E0,9.985861709E0
6.989455583E0,7.828720093E-1,-1.302591248E0,-1.351943619E1,1.360458700E1
6.999511583E0,8.981323242E-3,-1.702409821E0,-1.257998978E1,1.269466119E1
7.009567583E0,1.113684082E-1,-2.348616028E0,-8.056396637E0,8.392492296E0
7.019623583E0,3.058140564E-1,-2.285896454E0,-4.950205994E0,5.461079034E0
7.029679583E0,3.171903992E-1,-1.804497528E0,-2.855312347E0,3.392584513E0
7.039735583E0,2.007325745E-1,-1.210083618E0,-1.434017944E0,1.887062107E0
7.049791583E0,7.484436035E-4,-5.858816528E-1,-5.164260864E-1,7.809953739E-1
7.059847583E0,-2.760260010E-1,-4.939727783E-2,5.149291992E-2,2.850999212E-1
7.069903583E0,-3.620970154E-1,3.156935120E-1,4.558021545E-1,6.622176728E-1
7.079958583E0,-2.871029663E-1,4.481680298E-1,7.976911926E-1,9.589546053E-1
7.090014583E0,-2.442919922E-1,5.767506409E-1,1.008901978E0,1.187519718E0
7.100070583E0,-1.805245972E-1,7.816744995E-1,1.119372253E0,1.377170431E0
7.110126583E0,-1.362167358E-1,1.007105713E0,1.226250000E0,1.592641196E0
7.120182583E0,-1.011895752E-1,1.209185486E0,1.259331207E0,1.748795002E0
7.130238583E0,-8.831634521E-2,1.370100861E0,1.324745178E0,1.907858992E0
7.140294583E0,-1.327738953E-1,1.442101135E0,1.440903625E0,2.042911611E0
7.150350583E0,-1.796264648E-1,1.502126312E0,1.553319855E0,2.168283122E0
7.160406583E0,-1.857637024E-1,1.533411255E0,1.725012817E0,2.315497236E0
7.170461583E0,-1.770817566E-1,1.513802032E0,1.797013092E0,2.356312924E0
7.180517583E0,-1.148112488E-1,1.469943237E0,1.912273407E0,2.414685140E0
7.190573583E0,3.502716064E-2,1.482367401E0,2.017953644E0,2.504151937E0
7.200629583E0,4.700225830E-1,1.207389221E0,2.173031158E0,2.529975173E0
7.210685583E0,7.119195557E-1,-7.580236816E-1,2.105970612E0,2.348731907E0
7.220741583E0,3.796105957E-1,-2.264940033E0,2.625689850E0,3.488309726E0
7.230797583E0,8.068222046E-1,-3.671265564E0,3.866908722E0,5.392785549E0
7.240853583E0,8.037685547E0,-2.554557770E1,3.641926575E0,2.702673784E1
7.250908583E0,2.132974457E1,-7.730644043E1,-5.279521179E-1,8.019677343E1
7.260964583E0,1.774455002E1,-7.482654739E1,5.716612244E-1,7.690388837E1
7.271020583E0,1.494043121E1,-5.275404739E1,1.970053253E0,5.486426078E1
7.281076583E0,6.148164825E0,-2.949990463E1,8.997789001E-1,3.014720395E1
7.291132583E0,3.600911865E0,-1.759471161E1,1.342707825E-1,1.795991290E1
7.301188583E0,3.270848236E0,-1.379142059E1,-2.877017212E-1,1.417690031E1
7.311244583E0,3.953279114E0,-1.347812210E1,-1.279688873E0,1.410410560E1
7.321300583E0,3.880380707E0,-1.386446869E1,-2.197879486E0,1.456404891E1
7.331356583E0,2.765499115E0,-1.304701859E1,-3.433260498E0,1.377170857E1
7.341411583E0,1.335073700E0,-1.004725662E1,-5.554050293E0,1.155756298E1
7.351467583E0,-2.853067017E-1,-5.886958008E0,-1.105076981E1,1.252426396E1
7.361523583E0,-2.138602753E0,-9.418414307E-1,-1.974319382E1,1.988100574E1
7.371579583E0,-1.062041473E0,4.348457336E-1,-1.649958893E1,1.653945155E1
7.381635583E0,-2.067201233E-1,-8.885522461E-1,-1.133442993E1,1.137108439E1
7.391691583E0,1.514849854E-1,-1.182241516E0,-6.905440063E0,7.007549156E0
7.401747583E0,2.336640930E-1,-9.982740784E-1,-3.934268646E0,4.065663516E0
7.411803583E0,1.736389160E-2,-6.442602539E-1,-1.948348389E0,2.052177922E0
7.421859583E0,-4.399351501E-1,-2.860551453E-1,-6.830296326E-1,8.613361489E-1
7.431914583E0,-5.716612244E-1,4.834945679E-2,1.571731567E-2,5.739174674E-1
7.441970583E0,-3.601510620E-1,2.859054565E-1,2.888992310E-1,5.430593735E-1
7.452026583E0,-4.082011414E-1,3.447331238E-1,5.730084229E-1,7.834588382E-1
7.462082583E0,-4.564009094E-1,5.173242188E-1,9.021739197E-1,1.135712956E0
7.472138583E0,-3.637435913E-1,7.511380005E-1,1.101559296E0,1.382009616E0
7.482194583E0,-3.191363525E-1,9.672885132E-1,1.254241791E0,1.615740557E0
7.492250583E0,-2.709365845E-1,1.161135406E0,1.381477203E0,1.824862003E0
7.502306583E0,-2.835104370E-1,1.328786774E0,1.511257324E0,2.032228126E0
7.512361583E0,-3.155438232E-1,1.421593781E0,1.644031219E0,2.196209332E0
7.522419958E0,-4.016148376E-1,1.452429657E0,1.787582703E0,2.338011614E0
7.532475958E0,-5.209167480E-1,1.385069733E0,1.872755585E0,2.386835961E0
7.542531958E0,-5.812413025E-1,1.350341949E0,1.936373291E0,2.431214996E0
7.552587958E0,-6.601272583E-1,1.339115295E0,1.882335663E0,2.402537267E0
7.562643958E0,-7.337741089E-1,1.215622101E0,1.889520721E0,2.363567239E0
7.572699958E0,-8.030799866E-1,3.963757324E-1,1.896256714E0,2.097102933E0
7.582755958E0,-1.691482544E-1,-1.220561829E0,1.864971771E0,2.235285668E0
7.592811958E0,8.981323242E-4,-1.940863953E0,2.394271088E0,3.082123899E0
7.602866958E0,4.632865906E-1,-3.752247162E0,3.371738434E0,5.065827997E0
7.612922958E0,1.103565125E1,-3.858496216E1,2.580932922E0,4.021499867E1
7.622978958E0,1.486828125E1,-7.988168518E1,1.162482605E0,8.126192700E1
7.633034958E0,1.410636566E1,-6.775091125E1,4.437522125E0,6.934599578E1
7.643090958E0,1.225082428E1,-4.623300797E1,3.961062927E0,4.799233002E1
7.653146958E0,5.912105713E0,-2.733435791E1,1.206042023E0,2.799240350E1
7.663202958E0,4.023183746E0,-1.828582443E1,-8.921447754E-2,1.872339023E1
7.673258958E0,3.520828400E0,-1.613898880E1,-1.502276001E0,1.658674246E1
7.683313958E0,4.670437775E0,-1.670541092E1,-3.391197968E0,1.767438731E1
7.693369958E0,4.256847839E0,-1.700344116E1,-4.791236572E0,1.817123311E1
7.703425958E0,3.307372284E0,-1.537213348E1,-6.196214905E0,1.690071828E1
7.713481958E0,3.221151581E0,-1.189396637E1,-6.735693054E0,1.404321240E1
7.723537958E0,3.489094391E0,-7.955656128E0,-6.607858887E0,1.091467101E1
7.733593958E0,3.235671387E0,-4.015549622E0,-7.783813477E0,9.337128055E0
7.743649958E0,2.129471741E0,-4.022135925E-1,-1.223705292E1,1.242746514E1
7.753705958E0,1.021026764E0,-2.122586060E-1,-1.406759628E1,1.410619774E1
7.763761958E0,1.119521942E0,-1.736688538E0,-9.001381531E0,9.235490562E0
7.773816958E0,9.792636108E-1,-2.011517029E0,-4.520150299E0,5.043502424E0
7.783872958E0,7.475454712E-1,-1.715432739E0,-2.062560883E0,2.784904147E0
7.793928958E0,3.992198181E-1,-1.130299530E0,-8.692424011E-1,1.480721393E0
7.803984958E0,-1.392105103E-2,-4.957690430E-1,-3.342549133E-1,5.980861867E-1
7.814040958E0,-3.423381042E-1,5.867797852E-2,1.526824951E-2,3.476659348E-1
7.824096958E0,-3.617976379E-1,3.938310242E-1,2.460882568E-1,5.886933298E-1
7.834152958E0,-3.052153015E-1,5.170248413E-1,5.746549988E-1,8.310832897E-1
7.844208958E0,-2.339634705E-1,7.557783508E-1,9.104067993E-1,1.206142762E0
7.854263958E0,-6.271957397E-2,1.017434235E0,1.168021088E0,1.550283660E0
7.864319958E0,6.032455444E-2,1.272054749E0,1.347497864E0,1.854053081E0
7.874375958E0,1.137634277E-1,1.483265533E0,1.493893433E0,2.108254337E0
7.884431958E0,1.193019104E-1,1.637145538E0,1.733245697E0,2.387178063E0
7.894487958E0,1.416055298E-1,1.734742584E0,1.963167572E0,2.623625521E0
7.904543958E0,2.076182556E-1,1.665287018E0,2.116748199E0,2.701279166E0
7.914599958E0,3.005749512E-1,1.551523590E0,2.153871002E0,2.671466086E0
7.924655958E0,4.484674072E-1,1.431173859E0,2.047142944E0,2.537750158E0
7.934711958E0,6.794371033E-1,1.258283386E0,1.908082123E0,2.384468336E0
7.944766958E0,9.364526367E-1,1.030157776E0,1.746118927E0,2.233181563E0
7.954822958E0,1.210382996E0,2.534230042E-1,1.575174408E0,2.002604462E0
7.964878958E0,8.264314270E-1,-1.026565247E0,1.534309387E0,2.022604856E0
7.974934958E0,5.860313416E-1,-1.864971771E0,1.937271423E0,2.752194217E0
7.984990958E0,1.081201630E0,-3.084934845E0,2.461032257E0,4.091759980E0
7.995046958E0,8.571325836E0,-2.702569977E1,1.036145325E0,2.837128252E1
8.005102958E0,1.875225449E1,-7.252493362E1,-3.233276367E0,7.497977808E1
8.015158958E0,1.577464645E1,-6.798023438E1,-3.453318787E-1,6.978732686E1
8.025214958E0,1.181957108E1,-4.961267990E1,1.470242615E0,5.102236648E1
8.035269958E0,4.901557159E0,-3.035178314E1,9.737251282E-1,3.076043145E1
8.045325958E0,2.696941681E0,-1.937181610E1,4.605921936E-1,1.956407163E1
8.055381958E0,2.158511353E0,-1.638552612E1,1.207987976E-1,1.652752946E1
8.065437958E0,2.522105255E0,-1.703068451E1,-5.870791626E-1,1.722643003E1
8.075493958E0,3.015030212E0,-1.731045273E1,-1.684596863E0,1.765163016E1
8.085549958E0,2.693049774E0,-1.579874634E1,-2.565514984E0,1.623067374E1
8.095605958E0,2.182910614E0,-1.271081772E1,-3.362757111E0,1.332809518E1
8.105661958E0,1.618883514E0,-9.063202972E0,-4.776567078E0,1.037198269E1
8.115716958E0,6.709048462E-1,-5.512736206E0,-9.566456451E0,1.106153076E1
8.125772958E0,-7.750881958E-1,-2.177222443E0,-2.431378922E1,2.442337825E1
8.135828958E0,-3.945794678E-1,-1.804946594E0,-1.998389328E1,2.006911846E1
8.145884958E0,7.716453552E-1,-2.062261505E0,-1.275542496E1,1.294408069E1
8.155940958E0,7.918533325E-1,-1.798809357E0,-7.341782684E0,7.600297349E0
8.165996958E0,3.200344849E-1,-1.537901917E0,-3.375929718E0,3.723501825E0
8.176052958E0,-3.083587646E-2,-9.831555176E-1,-1.339264984E0,1.661678766E0
8.186108958E0,-4.143383789E-1,-4.540058899E-1,-6.405180359E-1,8.877279958E-1
8.196164958E0,-5.923182678E-1,-4.326004028E-2,-3.514691162E-1,6.901035438E-1
8.206219958E0,-3.942800903E-1,2.345622253E-1,-9.550140381E-2,4.686115079E-1
8.216275958E0,-2.673440552E-1,3.716770935E-1,4.236190796E-2,4.597947770E-1
8.226331958E0,-3.152444458E-1,4.848417664E-1,1.790277100E-1,6.053936900E-1
8.236387958E0,-3.228785706E-1,6.149212646E-1,4.089495850E-1,8.059891414E-1
8.246443958E0,-3.312611389E-1,7.743397522E-1,7.987390137E-1,1.160741145E0
8.256499958E0,-3.113525391E-1,9.572593689E-1,1.282982025E0,1.630744854E0
8.266555958E0,-2.504292297E-1,1.119222565E0,1.727258148E0,2.073353481E0
8.276611958E0,-1.109193420E-1,1.250948639E0,2.055375824E0,2.408681252E0
8.286666958E0,4.281097412E-2,1.349294128E0,2.352507935E0,2.712327599E0
8.296722958E0,2.037263489E-1,1.399290161E0,2.581980743E0,2.943831167E0
8.306778958E0,4.177812195E-1,1.409768372E0,2.598147125E0,2.985357013E0
8.316834958E0,6.288423157E-1,1.401984558E0,2.394570465E0,2.845166264E0
8.326890958E0,8.611592102E-1,1.207389221E0,2.153571625E0,2.614814460E0
8.336946958E0,1.110540619E0,2.776725769E-1,1.924248505E0,2.239003089E0
8.347002958E0,5.803431702E-1,-1.009500732E0,1.947899323E0,2.269405582E0
8.357058958E0,4.791535950E-1,-1.802102509E0,2.497556305E0,3.116881312E0
8.367113958E0,2.721191254E0,-9.682165833E0,3.254981232E0,1.057090913E1
8.377169958E0,1.426039536E1,-5.641408630E1,-7.589218140E-1,5.819350455E1
8.387225958E0,1.183528839E1,-7.349880844E1,-9.210346985E-1,7.445130757E1
8.397281958E0,1.462159424E1,-5.702002625E1,1.365161133E0,5.888071056E1
8.407337958E0,9.709409180E0,-4.046071152E1,1.745969238E0,4.164601075E1
8.417393958E0,5.045408020E0,-2.584091354E1,1.006656647E0,2.634809884E1
8.427449958E0,4.436773682E0,-1.925969925E1,1.092727661E-1,1.976443565E1
8.437505958E0,4.559368744E0,-1.791175232E1,2.604583740E-2,1.848294871E1
8.447561958E0,4.543202362E0,-1.751133499E1,-8.168513489E-1,1.810952200E1
8.457616958E0,4.678670654E0,-1.574186462E1,-1.929337921E0,1.653537438E1
8.467672958E0,3.958667908E0,-1.329639999E1,-1.566342773E0,1.396132995E1
8.477728958E0,2.939138031E0,-1.035082535E1,-1.655108185E0,1.088657434E1
8.487784958E0,2.169588318E0,-7.144492950E0,-1.902244263E0,7.705155821E0
8.497840958E0,1.067280579E0,-4.469106445E0,-2.974165192E0,5.473359009E0
8.507896958E0,-7.490423584E-1,-2.439926147E0,-5.530100098E0,6.090674113E0
8.517950625E0,-4.446503448E0,-5.334906006E-1,-1.689850937E1,1.748186558E1
8.528006625E0,-4.079017639E0,1.558109894E0,-1.729728012E1,1.783989885E1
8.538061625E0,-1.263821869E0,1.608554993E0,-9.155411224E0,9.381164617E0
8.548117625E0,-7.381150818E-1,1.180894318E0,-6.001619568E0,6.161068308E0
8.558173625E0,-6.735992432E-1,7.726931763E-1,-3.416944427E0,3.567393994E0
8.568229625E0,-4.884342957E-1,5.294490051E-1,-1.635648651E0,1.787241120E0
8.578285625E0,-1.841171265E-1,5.418731689E-1,-7.071295166E-1,9.097020395E-1
8.588341625E0,-2.604583740E-2,5.080435181E-1,-3.556604004E-1,6.207100147E-1
8.598397625E0,-7.095245361E-2,4.192781067E-1,-2.871029663E-1,5.130852704E-1
8.608453625E0,-1.580712891E-1,4.200265503E-1,-2.600093079E-1,5.186652828E-1
8.618508625E0,-2.103126526E-1,4.736151123E-1,-1.407073975E-1,5.369741690E-1
8.628564625E0,-2.323168945E-1,5.424719238E-1,9.729766846E-3,5.902047069E-1
8.638620625E0,-2.430944824E-1,6.471043396E-1,1.625619507E-1,7.101164281E-1
8.648676625E0,-2.724334717E-1,7.987390137E-1,2.906954956E-1,8.925849425E-1
8.658732625E0,-2.926414490E-1,9.590556335E-1,5.093907166E-1,1.124680234E0
8.668788625E0,-2.939886475E-1,1.067130890E0,7.206015015E-1,1.320781657E0
8.678844625E0,-2.776725769E-1,1.183439026E0,9.461824036E-1,1.540419141E0
8.688900625E0,-2.682421875E-1,1.301992493E0,1.155447235E0,1.761305378E0
8.698956625E0,-3.490740967E-1,1.393452301E0,1.282832336E0,1.925933759E0
8.709011625E0,-6.200106812E-1,1.174757080E0,1.407523041E0,1.935352307E0
8.719067625E0,-6.746470642E-1,-8.996292114E-2,1.378932495E0,1.537757073E0
8.729123625E0,-1.088237000E-1,-1.004261627E0,1.341660004E0,1.679415249E0
8.739179625E0,2.022294617E-1,-1.722468109E0,1.979483643E0,2.631757708E0
8.749235625E0,1.681453400E0,-7.319029999E0,2.446213074E0,7.898065843E0
8.759291625E0,1.705568253E1,-6.265865067E1,-6.918313293E0,6.530594053E1
8.769347625E0,1.348306183E1,-7.894553192E1,-8.999285889E0,8.059266166E1
8.779403625E0,1.670541092E1,-5.943136185E1,1.319805450E0,6.174867943E1
8.789458625E0,9.188492432E0,-3.752277100E1,3.186124420E0,3.876258667E1
8.799514625E0,4.134701843E0,-2.120535324E1,1.491648102E0,2.165612568E1
8.809570625E0,3.448079681E0,-1.584185669E1,4.396357727E-1,1.621872241E1
8.819626625E0,3.696562958E0,-1.495809448E1,-8.129594421E-1,1.542951948E1
8.829682625E0,4.641248474E0,-1.621637787E1,-2.105521545E0,1.699839168E1
8.839738625E0,4.833149414E0,-1.633912262E1,-3.150498505E0,1.732777834E1
8.849794625E0,4.361629944E0,-1.404050262E1,-3.714675293E0,1.516437741E1
8.859850625E0,3.575614471E0,-1.137559433E1,-4.068689117E0,1.259934111E1
8.869906625E0,2.716999969E0,-8.927884369E0,-4.323758698E0,1.028513964E1
8.879961625E0,1.530567169E0,-6.642436981E0,-5.065466309E0,8.492558733E0
8.890017625E0,3.103047180E-1,-4.570445709E0,-6.372548218E0,7.848224881E0
8.900073625E0,-6.944059753E-1,-2.739602966E0,-7.393125916E0,7.914918501E0
8.910129625E0,-8.773255920E-1,-1.401685181E0,-6.762187958E0,6.961437173E0
8.920185625E0,-3.701802063E-1,-7.167095947E-1,-5.010979614E0,5.075492363E0
8.930241625E0,-7.170089722E-2,-5.188211060E-1,-3.496728516E0,3.535735662E0
8.940297625E0,-1.880090332E-1,-4.596940613E-1,-2.337539063E0,2.389718581E0
8.950353625E0,-3.233276367E-1,-3.354524231E-1,-1.368603973E0,1.445733698E0
8.960408625E0,-4.079017639E-1,-6.047424316E-2,-6.277944946E-1,7.511104517E-1
8.970464625E0,-4.707710266E-1,2.796185303E-1,-1.911524963E-1,5.799578940E-1
8.980520625E0,-3.760180664E-1,4.522096252E-1,5.448669434E-2,5.906368862E-1
8.990576625E0,-3.942800903E-1,4.827461243E-1,1.606159973E-1,6.436599325E-1
9.000632625E0,-4.297563171E-1,5.472619629E-1,3.456312561E-1,7.769473041E-1
9.010688625E0,-4.191284180E-1,6.545887756E-1,5.016069031E-1,9.250754462E-1
9.020744625E0,-3.350033569E-1,7.551795959E-1,7.282356262E-1,1.101294964E0
9.030800625E0,-2.275268555E-1,8.857081604E-1,9.747729492E-1,1.336573873E0
9.040855625E0,-1.585203552E-1,1.056952057E0,9.726773071E-1,1.445121966E0
9.050911625E0,-1.541793823E-1,1.249601440E0,9.831555176E-1,1.597457296E0
9.060967625E0,-1.341210938E-1,1.489103394E0,9.039701843E-1,1.747163266E0
9.071023625E0,-7.933502197E-2,1.647623749E0,9.607022095E-1,1.908901988E0
9.081079625E0,4.490661621E-4,1.665436707E0,9.818083191E-1,1.933294391E0
9.091135625E0,4.026626587E-2,1.591340790E0,9.186396790E-1,1.837902539E0
9.101191625E0,1.655557251E-1,1.355281677E0,8.072712708E-1,1.586153847E0
9.111247625E0,3.388952637E-1,4.137396240E-1,5.786965942E-1,7.879849138E-1
9.121302625E0,1.766326904E-1,-5.219645691E-1,4.463717651E-1,7.091501050E-1
9.131358625E0,2.300715637E-1,-1.085093536E0,9.256750488E-1,1.444726688E0
9.141414625E0,7.514373779E-1,-3.767066345E0,1.707199860E0,4.203567335E0
9.151470625E0,1.619557114E1,-5.448220367E1,-5.458099823E0,5.709989400E1
9.161526625E0,2.002685394E1,-7.984486176E1,-7.967631226E0,8.270284140E1
9.171582625E0,1.825558731E1,-6.287405273E1,-1.629511414E0,6.549097864E1
9.181638625E0,8.676107941E0,-4.291904938E1,3.396437073E-1,4.378852597E1
9.191694625E0,3.723207550E0,-2.464549942E1,1.309925995E0,2.495954371E1
9.201750625E0,3.001707916E0,-1.706780731E1,8.460406494E-1,1.735039140E1
9.211805625E0,3.358715515E0,-1.547960999E1,6.616241455E-2,1.583993916E1
9.221861625E0,3.607647858E0,-1.590547440E1,-7.551795959E-1,1.632695731E1
9.231917625E0,3.568279724E0,-1.530956360E1,-1.514400787E0,1.579268082E1
9.241973625E0,3.345542908E0,-1.283505936E1,-2.319576416E0,1.346520853E1
9.252029625E0,2.427501984E0,-9.972412262E0,-3.080294495E0,1.071587544E1
9.262085625E0,1.345851288E0,-7.393425293E0,-4.023782501E0,8.524369705E0
9.272141625E0,2.442919922E-1,-5.199138336E0,-5.505401459E0,7.576289543E0
9.282197625E0,-1.609752502E0,-2.963537292E0,-8.941805420E0,9.556659488E0
9.292252625E0,-2.574645996E0,-1.185684357E0,-1.008976822E1,1.048036603E1
9.302308625E0,-1.600172424E0,-3.706292725E-1,-7.215595093E0,7.400184483E0
9.312364625E0,-8.120613098E-1,1.520837402E-1,-4.950954437E0,5.019414595E0
9.322420625E0,-6.797364807E-1,3.393443298E-1,-3.100801849E0,3.192517559E0
9.332476625E0,-7.101232910E-1,4.080514526E-1,-1.773661652E0,1.953626559E0
9.342532625E0,-5.125341797E-1,5.056484985E-1,-9.301657104E-1,1.176256748E0
9.352588625E0,-2.415975952E-1,5.804928589E-1,-4.535568237E-1,7.752774662E-1
9.362644625E0,-2.933898926E-1,4.978646851E-1,-3.236270142E-1,6.623302182E-1
9.372699625E0,-4.080514526E-1,4.872367859E-1,-2.682421875E-1,6.898257350E-1
9.382755625E0,-5.101391602E-1,5.403762817E-1,-2.008822632E-1,7.698065811E-1
9.392811625E0,-5.477110291E-1,5.879772949E-1,-7.409591675E-2,8.069664650E-1
9.402867625E0,-5.125341797E-1,7.249424744E-1,4.805007935E-2,8.891241120E-1
9.412923625E0,-4.375401306E-1,9.098080444E-1,1.639091492E-1,1.022769892E0
9.422979625E0,-3.689826965E-1,1.076860657E0,1.673519897E-1,1.150558035E0
9.433035625E0,-3.061134338E-1,1.216819611E0,2.201921082E-1,1.273907361E0
9.443091625E0,-2.589614868E-1,1.388961639E0,3.779640198E-1,1.462577276E0
9.453146625E0,-2.116598511E-1,1.456770630E0,4.978646851E-1,1.553978702E0
9.463202625E0,-1.555265808E-1,1.433419189E0,5.409750366E-1,1.539978273E0
9.473258625E0,-1.128652954E-1,1.366059265E0,5.418731689E-1,1.473934538E0
9.483314625E0,1.571731567E-2,6.924600220E-1,4.939727783E-1,8.507391032E-1
9.493370625E0,3.832031250E-2,-2.501298523E-1,3.591032410E-1,4.393045948E-1
9.503426625E0,5.733078003E-2,-5.541476440E-1,4.818479919E-1,7.365758054E-1
9.513482625E0,3.323089600E-1,-1.889071655E0,6.012995911E-1,2.010119937E0
9.523538083E0,1.548065781E1,-4.768708420E1,-8.242609406E0,5.080993382E1
9.533593083E0,1.991249176E1,-8.070407501E1,-1.510673538E1,8.448590714E1
9.543649083E0,2.147449356E1,-6.759598343E1,-3.852538605E0,7.102966214E1
9.553705083E0,1.366238892E1,-4.480857010E1,1.008003845E0,4.685600172E1
9.563761083E0,4.412823486E0,-2.419568481E1,7.023394775E-1,2.460482586E1
9.573817083E0,2.254611511E0,-1.594065125E1,-8.008346558E-2,1.609950461E1
9.583873083E0,2.475701752E0,-1.284194504E1,-9.479786682E-1,1.311271578E1
9.593929083E0,3.085383911E0,-1.234288284E1,-2.680775299E0,1.300203472E1
9.603985083E0,2.838397522E0,-1.298205368E1,-4.703968048E0,1.409672067E1
9.614041083E0,2.203717346E0,-1.212448700E1,-6.051765289E0,1.372892633E1
9.624096083E0,1.907333679E0,-9.734856262E0,-6.573280792E0,1.190014154E1
9.634152083E0,1.415007477E0,-7.378306732E0,-6.524931335E0,9.950697731E0
9.644208083E0,8.057743835E-1,-5.298381958E0,-6.013594666E0,8.055150187E0
9.654264083E0,3.549119568E-1,-3.702849884E0,-4.709506531E0,6.001375803E0
9.664320083E0,-3.817062378E-2,-2.483036499E0,-3.090323639E0,3.964470639E0
9.674376083E0,-1.553768921E-1,-1.432071991E0,-1.871258698E0,2.361478621E0
9.684432083E0,-1.962419128E-1,-5.349874878E-1,-1.033899994E0,1.180538732E0
9.694488083E0,-2.763253784E-1,1.014889526E-1,-4.438270569E-1,5.325769228E-1
9.704543083E0,-3.354524231E-1,4.501139832E-1,-5.313949585E-2,5.638747485E-1
9.714599083E0,-3.248245239E-1,4.863386536E-1,1.549278259E-1,6.050114780E-1
9.724655083E0,-2.715353394E-1,4.945715332E-1,2.899470520E-1,6.343514286E-1
9.734711083E0,-2.354603577E-1,6.319857788E-1,4.167333984E-1,7.927889568E-1
9.744767083E0,-1.758842468E-1,8.044271851E-1,4.707710266E-1,9.485060484E-1
9.754823083E0,-1.290316772E-1,9.632469177E-1,4.324507141E-1,1.063723375E0
9.764879083E0,-8.652008057E-2,1.127904510E0,4.052073669E-1,1.201601980E0
9.774935083E0,-7.005432129E-2,1.267564087E0,3.474275208E-1,1.316180916E0
9.784990083E0,-8.637039185E-2,1.439406738E0,2.992277527E-1,1.472714789E0
9.795046083E0,-8.068222046E-2,1.732646942E0,3.989204407E-1,1.779806890E0
9.805102083E0,-1.044827271E-1,1.839973755E0,5.333409119E-1,1.918560030E0
9.815158083E0,-1.550775146E-1,1.701062622E0,7.220983887E-1,1.854478138E0
9.825214083E0,-1.809736633E-1,1.465302887E0,7.867639160E-1,1.672979820E0
9.835270083E0,-1.341210938E-1,1.393302612E0,7.725434875E-1,1.598782061E0
9.845326083E0,-1.820214844E-1,1.415157166E0,8.057743835E-1,1.638619535E0
9.855382083E0,-2.297721863E-1,1.375789032E0,8.610095215E-1,1.639185198E0
9.865437083E0,-2.642005920E-1,1.090482330E0,8.993298340E-1,1.437966556E0
9.875493083E0,-8.397537231E-2,-1.431024170E-1,7.930508423E-1,8.102220704E-1
9.885549083E0,6.556365967E-2,-6.044430542E-1,6.903643799E-1,9.199200923E-1
9.895605083E0,9.490264893E-2,-8.756790161E-1,7.050338745E-1,1.128225605E0
9.905661083E0,1.215472412E-1,-1.781595154E0,1.459315338E0,2.306177851E0
9.915717083E0,6.359824677E0,-2.261646881E1,-7.387138367E-1,2.350527025E1
9.925773083E0,2.473576172E1,-7.825292221E1,-1.103864502E1,8.280838983E1
9.935829083E0,2.162418228E1,-7.590415649E1,-2.816093903E0,7.897453145E1
9.945884083E0,1.611279327E1,-5.627637268E1,1.836830292E0,5.856642532E1
9.955940083E0,7.388335876E0,-3.112836823E1,1.697470093E0,3.203816818E1
9.965996083E0,4.878954163E0,-1.795336578E1,9.006770325E-1,1.862629206E1
9.976052083E0,4.399501190E0,-1.292487259E1,2.088157654E-1,1.365472615E1
9.986108083E0,5.186265106E0,-1.176209061E1,-4.722679138E-1,1.286340383E1
9.996164083E0,5.323978729E0,-1.205473206E1,-1.585951996E0,1.327315178E1
1.000622008E1,4.221820679E0,-1.146301254E1,-2.764750671E0,1.252470649E1
1.001627608E1,2.612367554E0,-9.856702881E0,-3.298989716E0,1.071738723E1
1.002633208E1,1.293460236E0,-7.963589630E0,-3.608396301E0,8.838117619E0
1.003638708E1,-6.047424316E-2,-5.990392914E0,-4.179758148E0,7.304713723E0
1.004644308E1,-1.531614990E0,-4.341272278E0,-5.046904907E0,6.831086196E0
1.005649908E1,-2.548600159E0,-2.915487213E0,-6.134992218E0,7.254898895E0
1.006655508E1,-3.201392670E0,-1.397643585E0,-6.869664459E0,7.706790019E0
1.007661108E1,-2.865042114E0,-2.070195007E-1,-5.625002747E0,6.316009760E0
1.008666708E1,-1.752854919E0,4.622387695E-1,-3.607647858E0,4.037485370E0
1.009672308E1,-9.885443115E-1,7.209008789E-1,-2.270328827E0,2.579013555E0
1.010677908E1,-6.652166748E-1,7.821235657E-1,-1.528321838E0,1.841194758E0
1.011683408E1,-4.679269409E-1,7.665559387E-1,-1.109343109E0,1.427307172E0
1.012689008E1,-2.802172852E-1,6.688092041E-1,-7.816744995E-1,1.066228166E0
1.013694608E1,-2.164498901E-1,6.345304871E-1,-5.604345703E-1,8.738228662E-1
1.014700208E1,-2.082170105E-1,6.288423157E-1,-4.343966675E-1,7.921473639E-1
1.015705808E1,-2.239343262E-1,6.015989685E-1,-2.558180237E-1,6.910215355E-1
1.016711408E1,-2.496807861E-1,6.506968689E-1,-2.769241333E-2,6.975053978E-1
1.017717008E1,-2.351609802E-1,7.069798279E-1,1.371148682E-1,7.575761683E-1
1.018722608E1,-2.163002014E-1,7.439529419E-1,3.480262756E-1,8.493374155E-1
1.019728108E1,-1.862127686E-1,9.217831421E-1,5.185217285E-1,1.073882740E0
1.020733708E1,-1.182540894E-1,1.168170776E0,7.152127075E-1,1.374822246E0
1.021739308E1,-5.269042969E-2,1.392254791E0,8.881031799E-1,1.652233925E0
1.022744908E1,3.742218018E-2,1.455722809E0,1.028211823E0,1.782624152E0
1.023750508E1,2.195933533E-1,1.357227631E0,1.199156342E0,1.824353040E0
1.024756108E1,4.523593140E-1,5.304968262E-1,1.190923462E0,1.379983523E0
1.025761708E1,2.709365845E-1,-5.602848816E-1,1.005608826E0,1.182613585E0
1.026767308E1,2.519261169E-1,-1.124761047E0,1.116677856E0,1.604843798E0
1.027772808E1,3.778143311E-1,-1.981728973E0,2.037862244E0,2.867555739E0
1.028778408E1,5.256618805E0,-1.806593170E1,5.388793945E-2,1.881522876E1
1.029784008E1,1.980037491E1,-7.546362259E1,-1.085662354E1,7.876978771E1
1.030789608E1,1.450064575E1,-7.482355362E1,-4.757556610E0,7.636404421E1
1.031795208E1,1.145208527E1,-5.371130676E1,2.178419952E0,5.496180714E1
1.032800808E1,4.872517548E0,-3.111250122E1,9.294172668E-1,3.150544359E1
1.033806408E1,2.537223816E0,-1.895403488E1,-1.176553345E-1,1.912346166E1
1.034812008E1,2.518363037E0,-1.460482910E1,-9.108558655E-1,1.484832798E1
1.035817508E1,3.204835510E0,-1.344893280E1,-1.781894531E0,1.393986773E1
1.036823108E1,3.509901123E0,-1.369008133E1,-2.793939972E0,1.440638169E1
1.037828708E1,2.782863007E0,-1.272967850E1,-4.016447754E0,1.363528121E1
1.038834308E1,1.372645569E0,-1.064960403E1,-5.444029083E0,1.203892332E1
1.039839908E1,2.874023438E-1,-8.204588470E0,-6.816375275E0,1.067055968E1
1.040845508E1,-6.484515381E-1,-5.774990845E0,-8.014483795E0,9.899644395E0
1.041851108E1,-1.189426575E0,-4.087849274E0,-7.998467102E0,9.060944942E0
1.042856708E1,-1.093326416E0,-3.054997101E0,-6.570736084E0,7.328229160E0
1.043862208E1,-8.032296753E-1,-2.145189056E0,-4.930896149E0,5.436979936E0
1.044867808E1,-5.863307190E-1,-1.238973541E0,-3.395089874E0,3.661348714E0
1.045873408E1,-4.854405212E-1,-5.177732849E-1,-2.069895630E0,2.188197796E0
1.046879008E1,-4.388873291E-1,-2.275268555E-2,-1.083896027E0,1.169602654E0
1.047884608E1,-3.375480652E-1,2.942880249E-1,-4.728666687E-1,6.512657094E-1
1.048890208E1,-2.814147949E-1,3.332070923E-1,-2.493814087E-1,5.024065487E-1
1.049895808E1,-2.576142883E-1,3.553610229E-1,-9.131011963E-3,4.390101976E-1
1.050901408E1,-2.535726929E-1,4.776567078E-1,2.555186462E-1,5.981177306E-1
1.051906938E1,-2.341131592E-1,6.902146912E-1,4.432283020E-1,8.530279121E-1
1.052912538E1,-1.892065430E-1,8.786727905E-1,7.123686218E-1,1.146880134E0
1.053918138E1,-1.576222229E-1,1.026415558E0,8.833131409E-1,1.363310591E0
1.054923738E1,-1.137634277E-1,1.159488831E0,9.903405762E-1,1.529094805E0
1.055929338E1,-6.780899048E-2,1.253493347E0,1.114731903E0,1.678830202E0
1.056934938E1,-4.266128540E-2,1.426234131E0,1.166075134E0,1.842741165E0
1.057940537E1,-7.469467163E-2,1.637444916E0,1.281185760E0,2.080442765E0
1.058946138E1,-8.143066406E-2,1.785037994E0,1.440155182E0,2.295002950E0
1.059951638E1,-4.460723877E-2,1.858086090E0,1.615290985E0,2.462445673E0
1.060957238E1,3.562591553E-2,1.808688812E0,1.744023285E0,2.512815481E0
1.061962838E1,1.826202393E-1,8.951385498E-1,1.765728149E0,1.988069182E0
1.062968438E1,1.688488770E-1,-7.303312683E-1,1.577569427E0,1.746602131E0
1.063974038E1,1.727407837E-1,-1.604363708E0,1.797462158E0,2.415510815E0
1.064979638E1,3.339555359E-1,-2.849025421E0,2.837349701E0,4.034727435E0
1.065985238E1,4.272415466E0,-1.665825897E1,2.095342712E0,1.732459486E1
1.066990838E1,2.101854172E1,-7.485064728E1,-6.226002960E0,7.799462550E1
1.067996338E1,1.638088577E1,-7.715675171E1,-3.062331848E0,7.893589570E1
1.069001938E1,1.375190277E1,-5.836617691E1,-2.221380615E-1,5.996477951E1
1.070007538E1,5.785019989E0,-3.284679474E1,8.846603394E-2,3.335245429E1
1.071013138E1,3.241658936E0,-1.882395538E1,-1.953437805E-1,1.910203675E1
1.072018738E1,3.456611938E0,-1.440274933E1,-7.441026306E-1,1.483040940E1
1.073024338E1,3.864364014E0,-1.390623184E1,-1.254391479E0,1.448758404E1
1.074029938E1,3.777993622E0,-1.362900833E1,-2.556533661E0,1.437215948E1
1.075035537E1,2.779569855E0,-1.150103348E1,-4.181404724E0,1.254925994E1
1.076041038E1,1.766626282E0,-8.765172729E0,-5.466033325E0,1.047982546E1
1.077046638E1,1.139580231E0,-5.320685577E0,-7.153474274E0,8.987799080E0
1.078052238E1,-7.783813477E-3,-2.316432953E0,-9.971065063E0,1.023660396E1
1.079057838E1,-6.086343384E-1,-9.840536499E-1,-9.673334198E0,9.742288840E0
1.080063438E1,-7.644602966E-1,-6.069877625E-1,-7.741002502E0,7.802304367E0
1.081069038E1,-6.905140686E-1,-1.034349060E-1,-5.590424652E0,5.633858025E0
1.082074638E1,-5.173242188E-1,3.047662354E-1,-3.324586487E0,3.378369742E0
1.083080238E1,-4.070036316E-1,4.549040222E-1,-1.753753052E0,1.856943562E0
1.084085738E1,-2.589614868E-1,5.069956970E-1,-8.316705322E-1,1.007859892E0
1.085091338E1,-1.968406677E-1,3.785627747E-1,-4.079017639E-1,5.902879567E-1
1.086096938E1,-2.559677124E-1,2.909948730E-1,-3.806584167E-1,5.432295244E-1
1.087102538E1,-3.115022278E-1,3.751199341E-1,-3.769161987E-1,6.162908597E-1
1.088108138E1,-3.162922668E-1,5.149291992E-1,-1.651066589E-1,6.264607626E-1
1.089113738E1,-2.552192688E-1,7.048841858E-1,-5.837860107E-3,7.496883827E-1
1.090119338E1,-1.986369324E-1,8.662486267E-1,2.273771667E-1,9.173569044E-1
1.091124938E1,-1.453477478E-1,9.957293701E-1,4.543052673E-1,1.104081619E0
1.092130438E1,-1.210981750E-1,1.129850464E0,5.990542603E-1,1.284559397E0
1.093136038E1,-1.390608215E-1,1.330732727E0,7.174580383E-1,1.518200757E0
1.094141638E1,-1.492396545E-1,1.554517365E0,8.887019348E-1,1.796827159E0
1.095147238E1,-1.850152588E-1,1.688788147E0,1.117276611E0,2.033357587E0
1.096152838E1,-2.121089172E-1,1.795067139E0,1.289119263E0,2.220154206E0
1.097158438E1,-2.737806702E-1,1.911075897E0,1.384620667E0,2.375782257E0
1.098164038E1,-4.424798584E-1,1.748064880E0,1.447040863E0,2.312022169E0
1.099169638E1,-5.824388123E-1,5.456153870E-1,1.371897125E0,1.587146132E0
1.100175138E1,-9.056167603E-2,-5.566923523E-1,1.130299530E0,1.263204188E0
1.101180738E1,7.529342651E-2,-1.119521942E0,1.203946381E0,1.645747662E0
1.102186338E1,2.360591125E-1,-2.266736298E0,2.319875793E0,3.252021071E0
1.103191938E1,6.445596313E0,-2.396965485E1,5.539979553E-1,2.482734337E1
1.104197538E1,2.003014709E1,-7.818616104E1,-1.088476501E1,8.144176251E1
1.105203138E1,1.768482422E1,-7.530270721E1,-4.589156799E0,7.748748984E1
1.106208738E1,1.449645447E1,-5.297798172E1,2.161056061E0,5.496802618E1
1.107214338E1,5.539680176E0,-2.776920364E1,1.546284485E0,2.835855644E1
1.108219838E1,3.525618439E0,-1.611982864E1,1.130748596E0,1.653957234E1
1.109225438E1,3.066972198E0,-1.218541031E1,6.503974915E-1,1.258227165E1
1.110231038E1,3.682492218E0,-1.132365234E1,-3.656895447E-1,1.191300047E1
1.111236638E1,4.566404114E0,-1.185729263E1,-9.657916260E-1,1.274284853E1
1.112242238E1,4.901407471E0,-1.147154480E1,-1.773362274E0,1.260019639E1
1.113247838E1,3.982767792E0,-9.539213104E0,-2.484234009E0,1.063157771E1
1.114253438E1,2.766696625E0,-7.309898987E0,-2.994223480E0,8.369863061E0
1.115259038E1,1.716181183E0,-5.133874054E0,-3.509302368E0,6.451135076E0
1.116264538E1,6.262976074E-1,-3.594924316E0,-4.061054993E0,5.459660904E0
1.117270138E1,-5.761518860E-1,-2.573747864E0,-4.814887390E0,5.489924375E0
1.118275738E1,-1.676214294E0,-1.465602264E0,-5.722450104E0,6.140368030E0
1.119281338E1,-2.098935242E0,-1.830693054E-1,-6.994654541E0,7.305082865E0
1.120286938E1,-1.496737518E0,1.154998169E0,-7.232958984E0,7.475957440E0
1.121292538E1,-3.643423462E-1,1.611249390E0,-4.674928436E0,4.958207925E0
1.122298138E1,-1.107696533E-1,1.393452301E0,-2.605481873E0,2.956774428E0
1.123303738E1,-9.789642334E-2,1.058448944E0,-1.620081024E0,1.937668806E0
1.124309237E1,-3.802093506E-2,8.249345398E-1,-1.255139923E0,1.502444279E0
1.125314838E1,7.783813477E-3,7.298822021E-1,-1.002315674E0,1.239929565E0
1.126320438E1,-1.137634277E-2,6.637197876E-1,-7.902067566E-1,1.032027178E0
1.127326038E1,-4.191284180E-2,6.185137939E-1,-6.490502930E-1,8.975423569E-1
1.128331638E1,-6.077362061E-2,6.264472961E-1,-5.547463989E-1,8.389715221E-1
1.129337238E1,-7.858657837E-2,6.661148071E-1,-4.320016479E-1,7.978159001E-1
1.130342838E1,-1.032852173E-1,7.113208008E-1,-2.625540161E-1,7.652318140E-1
1.131348438E1,-1.372645569E-1,8.875044250E-1,-9.400451660E-2,9.029631843E-1
1.132353938E1,-1.365161133E-1,1.180594940E0,1.441502380E-1,1.197171814E0
1.133359538E1,-1.445993042E-1,1.387165375E0,3.496728516E-1,1.437848337E0
1.134365138E1,-1.091230774E-1,1.469194794E0,5.083428955E-1,1.558478003E0
1.135370738E1,1.203497314E-1,1.154249725E0,6.617738342E-1,1.335934540E0
1.136376338E1,3.076103210E-1,1.281335449E-1,7.384144592E-1,8.101223541E-1
1.137381938E1,3.278182983E-1,-3.981719971E-1,7.453001404E-1,9.063542769E-1
1.138387538E1,4.424798584E-1,-8.669970703E-1,1.167272644E0,1.519867682E0
1.139393138E1,1.149160309E0,-3.996688843E0,2.147883453E0,4.680544247E0
1.140398638E1,1.366987335E1,-5.012745941E1,-7.703879700E0,5.252596869E1
1.141404237E1,1.637684418E1,-7.949354233E1,-1.349009720E1,8.227640621E1
1.142409838E1,1.803314987E1,-6.204163376E1,-3.858376465E0,6.472438399E1
1.143415438E1,1.063628174E1,-4.372272812E1,-4.799020386E-1,4.500041944E1
1.144421038E1,3.808380432E0,-2.586606125E1,1.619332581E0,2.619502098E1
1.145426638E1,2.556084595E0,-1.808928314E1,1.272952881E0,1.831327775E1
1.146432238E1,2.966680756E0,-1.578093338E1,2.814147949E-1,1.605983335E1
1.147437838E1,3.656147003E0,-1.583033066E1,-6.791377258E-1,1.626124250E1
1.148443338E1,3.341950378E0,-1.532153870E1,-1.841770020E0,1.578956292E1
1.149448938E1,2.633773041E0,-1.338621323E1,-2.345173187E0,1.384295136E1
1.150454538E1,2.295326843E0,-1.073013657E1,-2.332749023E0,1.121811366E1
1.151460138E1,1.578467560E0,-7.958649902E0,-2.373763733E0,8.453781542E0
1.152465746E1,7.450007629E-1,-5.601800995E0,-2.553839264E0,6.201394642E0
1.153471346E1,-2.880010986E-1,-3.867058411E0,-2.955753479E0,4.875814190E0
1.154476946E1,-1.221759338E0,-2.712808685E0,-3.362906799E0,4.490119039E0
1.155482546E1,-1.677860870E0,-1.814077606E0,-3.528013458E0,4.307316290E0
1.156488046E1,-1.666334839E0,-9.876461792E-1,-3.348686371E0,3.868567846E0
1.157493646E1,-1.569635925E0,-3.182382202E-1,-3.008144531E0,3.407926939E0
1.158499246E1,-1.335822144E0,2.598596191E-1,-2.727777557E0,3.048396008E0
1.159504846E1,-1.030008087E0,6.298901367E-1,-2.483485565E0,2.761408843E0
1.160510446E1,-9.174421692E-1,6.782395935E-1,-2.080673218E0,2.372953881E0
1.161516046E1,-9.062155151E-1,6.427633667E-1,-1.666484528E0,2.002883418E0
1.162521646E1,-7.599696350E-1,6.256988525E-1,-1.260229340E0,1.599134419E0
1.163527146E1,-5.522016907E-1,5.902226257E-1,-8.710386658E-1,1.188275142E0
1.164532746E1,-3.811074829E-1,5.701643372E-1,-5.454656982E-1,8.762779883E-1
1.165538346E1,-2.417472839E-1,5.306465149E-1,-2.631527710E-1,6.397474923E-1
1.166543946E1,-1.456471252E-1,5.069956970E-1,-1.393601990E-1,5.455996581E-1
1.167549546E1,-7.274871826E-2,5.411247253E-1,-2.679428101E-2,5.466500507E-1
1.168555146E1,6.346801758E-2,6.469546509E-1,6.481521606E-2,6.532836457E-1
1.169560746E1,1.067280579E-1,8.333171082E-1,8.592132568E-2,8.445062198E-1
1.170566346E1,1.505868530E-1,1.105151825E0,6.002517700E-2,1.116978056E0
1.171571846E1,1.559756470E-1,1.405128021E0,7.948471069E-2,1.415991164E0
1.172577446E1,9.325607300E-2,1.523831177E0,9.984237671E-2,1.529943349E0
1.173583046E1,1.514849854E-1,1.413809967E0,9.565109253E-2,1.425115944E0
1.174588646E1,1.812730408E-1,6.475534058E-1,1.501377869E-1,6.890041246E-1
1.175594246E1,1.673519897E-1,-1.017883301E-1,1.483415222E-1,2.457086890E-1
1.176599846E1,3.496728516E-1,-3.332070923E-1,-1.901046753E-2,4.833833544E-1
1.177605446E1,6.999444580E-1,-9.181906128E-1,-3.876937866E-2,1.155205311E0
1.178611046E1,5.360353088E0,-2.793401093E1,-7.814200287E0,2.949752664E1
1.179616546E1,1.378213989E1,-7.865034576E1,-2.054971664E1,8.245068297E1
1.180622146E1,1.318308563E1,-7.135242188E1,-6.938371582E0,7.289103412E1
1.181627746E1,7.915389862E0,-5.173451752E1,-1.481469269E0,5.235750615E1
1.182633346E1,7.580236816E-1,-3.087704086E1,4.071533203E-2,3.088637094E1
1.183638946E1,-1.984872437E-1,-1.946043182E1,6.596781921E-1,1.947262127E1
1.184644546E1,5.026547241E-1,-1.527288986E1,5.659730530E-1,1.529163667E1
1.185650146E1,2.039209442E0,-1.433119812E1,-4.001179504E-1,1.448108107E1
1.186655746E1,2.766996002E0,-1.474658432E1,-2.280208282E0,1.517621052E1
1.187661246E1,1.784738617E0,-1.418106033E1,-3.732787628E0,1.477232100E1
1.188666846E1,-3.712280273E-2,-1.273132507E1,-4.960833893E0,1.366374360E1
1.189672446E1,-1.119222565E0,-1.061008621E1,-6.034850464E0,1.225748786E1
1.190678046E1,-1.542991333E0,-7.759563904E0,-6.939868469E0,1.052394549E1
1.191683646E1,-1.233285370E0,-5.060227203E0,-7.319778442E0,8.983654524E0
1.192689246E1,-4.444258118E-1,-3.107088776E0,-5.985004120E0,6.758090653E0
1.193694846E1,-7.888595581E-2,-1.694775696E0,-4.294120331E0,4.617137324E0
1.194700446E1,-6.137237549E-2,-7.134164429E-1,-3.062631226E0,3.145224891E0
1.195705946E1,-9.280700684E-2,-8.367599487E-2,-2.127076721E0,2.130744046E0
1.196711546E1,-1.947450256E-1,3.303630066E-1,-1.448238373E0,1.498152104E0
1.197717146E1,-2.863545227E-1,5.948629761E-1,-8.855584717E-1,1.104569907E0
1.198722746E1,-2.752775574E-1,7.378157043E-1,-5.047503662E-1,9.353730162E-1
1.199728346E1,-2.794688416E-1,7.900570679E-1,-2.454895020E-1,8.732457268E-1
1.200733946E1,-2.844085693E-1,7.168592834E-1,-1.886077881E-2,7.714474678E-1
1.201739546E1,-1.014889526E-1,7.508386230E-1,2.844085693E-2,7.582001897E-1
1.202745146E1,1.172062683E-1,9.190887451E-1,-1.020877075E-1,9.321391156E-1
1.203750646E1,1.447489929E-1,9.846524048E-1,-1.335223389E-1,1.004151803E0
1.204756246E1,1.456471252E-1,1.034049683E0,-1.977388000E-1,1.062813466E0
1.205761846E1,2.028282166E-1,1.115480347E0,-1.872605896E-1,1.149131071E0
1.206767446E1,2.424957275E-1,1.250499573E0,-1.463955688E-1,1.282179793E0
1.207773046E1,2.540217590E-1,1.332229614E0,-7.259902954E-2,1.358172823E0
1.208778646E1,1.290316772E-1,1.444645844E0,-5.897735596E-2,1.451595369E0
1.209784246E1,-1.197509766E-1,1.578467560E0,-1.496887207E-2,1.583074288E0
1.210789846E1,-3.787124634E-1,1.601070557E0,8.637039185E-2,1.647516283E0
1.211795346E1,-6.352789307E-1,1.529519348E0,1.896556091E-1,1.667026696E0
1.212800946E1,-9.503736877E-1,1.058299255E0,3.240760803E-1,1.458846382E0
1.213806546E1,-9.048683167E-1,7.963439941E-2,3.745211792E-1,9.825448701E-1
1.214812146E1,-4.367916870E-1,-4.644841003E-1,1.990859985E-1,6.679578521E-1
1.215817746E1,-3.835025024E-1,-7.442523193E-1,2.868035889E-1,8.850095948E-1
1.216823346E1,2.802172852E-1,-6.939120026E0,3.210823059E-1,6.952194064E0
1.217828946E1,1.054197784E1,-6.662225830E1,-1.426144318E1,6.894234808E1
1.218834446E1,5.717360687E0,-7.840859848E1,-1.337813004E1,7.974691776E1
1.219840046E1,1.185444855E1,-5.993371719E1,-9.601034546E-1,6.110237480E1
1.220845646E1,5.012775879E0,-3.835354340E1,-1.303788757E-1,3.867995879E1
1.221851246E1,2.118544464E0,-2.153826096E1,-3.363505554E-1,2.164481572E1
1.222856846E1,1.792821808E0,-1.499476822E1,-2.782713318E-1,1.510412920E1
1.223862446E1,2.272274780E0,-1.243239670E1,-4.784051514E-1,1.264739467E1
1.224868046E1,2.941832428E0,-1.184382065E1,-1.992207184E0,1.236524788E1
1.225873646E1,3.419489136E0,-1.219334381E1,-3.296295319E0,1.308572130E1
1.226879146E1,2.867736511E0,-1.141077118E1,-3.373834076E0,1.223978627E1
1.227884746E1,2.003433838E0,-9.655670929E0,-3.426225128E0,1.043957599E1
1.228890346E1,1.188528442E0,-7.845185852E0,-3.596720581E0,8.711827584E0
1.229895946E1,1.945953369E-1,-5.982010345E0,-3.960763550E0,7.177044170E0
1.230901546E1,-4.971162415E-1,-4.190236359E0,-4.552183685E0,6.207059014E0
1.231907146E1,-5.514532471E-1,-2.501747589E0,-5.069807281E0,5.680298192E0
1.232912746E1,-3.472778320E-2,-9.936337280E-1,-4.981490936E0,5.079740737E0
1.233918346E1,4.258644104E-1,-7.903564453E-2,-3.852688293E0,3.876959403E0
1.234923846E1,3.454815674E-1,3.658392334E-1,-2.549198914E0,2.598386222E0
1.235929446E1,1.152603149E-2,6.423143005E-1,-1.606908417E0,1.730564986E0
1.236935046E1,-2.055226135E-1,7.773335266E-1,-8.659492493E-1,1.181674684E0
1.237940646E1,-2.200424194E-1,7.598199463E-1,-3.932322693E-1,8.833892883E-1
1.238946246E1,-2.049238586E-1,6.429130554E-1,-2.341131592E-1,7.142408249E-1
1.239951846E1,-2.420466614E-1,5.909710693E-1,-1.604663086E-1,6.584700656E-1
1.240957446E1,-2.377056885E-1,6.490502930E-1,-3.981719971E-2,6.923551737E-1
1.241962946E1,-2.152523804E-1,7.485932922E-1,8.622070312E-2,7.836832996E-1
1.242968546E1,-2.435435486E-1,8.126600647E-1,2.019300842E-1,8.720697218E-1
1.243974146E1,-2.755769348E-1,9.101074219E-1,2.621049500E-1,9.863757758E-1
1.244979746E1,-3.147953796E-1,9.813592529E-1,2.459385681E-1,1.059550798E0
1.245985346E1,-2.983296204E-1,8.532257080E-1,3.240760803E-1,9.602187131E-1
1.246990946E1,-2.890489197E-1,9.535171509E-1,3.787124634E-1,1.065911518E0
1.247996546E1,-3.098556519E-1,1.285676422E0,2.698887634E-1,1.349746025E0
1.249002146E1,-2.594105530E-1,1.507215729E0,1.886077881E-1,1.540962681E0
1.250007646E1,-1.371148682E-1,1.535806274E0,7.753875732E-2,1.543863225E0
1.251013246E1,6.017486572E-2,1.044378204E0,1.302291870E-2,1.046191400E0
1.252018846E1,9.445358276E-2,-2.709365845E-2,-2.580633545E-1,2.761380824E-1
1.253024437E1,1.610650635E-1,-6.283932495E-1,-1.139879608E0,1.311543195E0
1.254030038E1,1.106199646E-1,-1.400188293E0,-2.877466278E0,3.201964431E0
1.255035637E1,3.598516846E-1,-4.064198456E0,-4.527934113E0,6.095029914E0
1.256041238E1,1.197345108E1,-5.414585312E1,-1.810979050E1,5.833610762E1
1.257046837E1,1.600352051E1,-7.850514771E1,-1.530567169E1,8.156858752E1
1.258052338E1,1.642833710E1,-6.005002533E1,-1.173709259E0,6.226775566E1
1.259057938E1,8.178392944E0,-4.257626221E1,1.194216614E0,4.337107755E1
1.260063538E1,3.732039185E0,-2.561727859E1,5.821394348E-1,2.589424580E1
1.261069138E1,3.151546326E0,-1.775398041E1,1.396595764E-1,1.803207058E1
1.262074738E1,4.197870483E0,-1.489507553E1,-5.442681885E-1,1.548488358E1
1.263080338E1,5.568121033E0,-1.516616180E1,-2.189646606E0,1.630371086E1
1.264085938E1,5.831273804E0,-1.584006042E1,-4.102369080E0,1.737068509E1
1.265091438E1,5.020260315E0,-1.468476288E1,-5.201533356E0,1.636768840E1
1.266097038E1,3.776496735E0,-1.222388031E1,-5.431006165E0,1.389895699E1
1.267102638E1,2.214944000E0,-9.648336182E0,-5.403164062E0,1.127787878E1
1.268108237E1,9.096583557E-1,-7.206913147E0,-5.543422394E0,9.137647797E0
1.269113838E1,-3.487747192E-2,-5.101840668E0,-5.758225708E0,7.693319046E0
1.270119437E1,-6.950047302E-1,-3.462150421E0,-5.718109131E0,6.720586964E0
1.271125038E1,-1.141376495E0,-2.264191589E0,-5.182822266E0,5.769831063E0
1.272130637E1,-1.169517975E0,-1.400188293E0,-4.201313324E0,4.580320207E0
1.273136138E1,-1.059796143E0,-6.945556641E-1,-3.200195160E0,3.441921628E0
1.274141738E1,-1.031055908E0,-1.393601990E-1,-2.373614044E0,2.591629059E0
1.275147338E1,-9.464817810E-1,3.065625000E-1,-1.807940369E0,2.063602846E0
1.276152938E1,-6.632707214E-1,5.921685791E-1,-1.450184326E0,1.701066211E0
1.277158538E1,-7.403604126E-1,5.984555054E-1,-1.271905060E0,1.588718041E0
1.278164138E1,-8.274792480E-1,6.183641052E-1,-1.100062408E0,1.509050488E0
1.279169738E1,-7.325765991E-1,6.914122009E-1,-7.833210754E-1,1.276052982E0
1.280175238E1,-5.486091614E-1,7.367678833E-1,-4.438270569E-1,1.020186935E0
1.281180838E1,-4.064048767E-1,8.045768738E-1,-1.266366577E-1,9.102448641E-1
1.282186438E1,-3.399430847E-1,9.222322083E-1,8.532257080E-2,9.865867868E-1
1.283192037E1,-3.025209045E-1,1.001118164E0,2.731819153E-1,1.080918514E0
1.284197638E1,-2.664459229E-1,9.903405762E-1,5.131329346E-1,1.146766452E0
1.285203237E1,-2.814147949E-1,9.062155151E-1,8.584648132E-1,1.279602549E0
1.286208838E1,-2.475851440E-1,1.329984283E0,1.129251709E0,1.762204875E0
1.287214437E1,-1.916015625E-1,1.745071106E0,1.230441284E0,2.143821373E0
1.288219938E1,-2.341131592E-1,1.875000916E0,1.312321014E0,2.300570331E0
1.289225538E1,-4.343966675E-1,1.735640717E0,1.328337708E0,2.228369410E0
1.290231138E1,-5.423222351E-1,6.587800598E-1,1.249751129E0,1.513268799E0
1.291236738E1,-7.334747314E-3,-5.318440247E-1,1.045426025E0,1.172956708E0
1.292242338E1,8.128097534E-2,-7.982899475E-1,1.020877075E0,1.298485056E0
1.293247938E1,1.689985657E-1,-1.953587494E0,2.238744507E0,2.976078221E0
1.294253538E1,8.434210968E0,-2.635674088E1,-8.229885864E-1,2.768557412E1
1.295259138E1,1.894355667E1,-7.902082535E1,-1.694042221E1,8.300678938E1
1.296264638E1,1.387419846E1,-7.539910675E1,-9.832752686E0,7.729296027E1
1.297270238E1,1.347138611E1,-5.277081253E1,-1.146465912E0,5.447523550E1
1.298275838E1,5.267695770E0,-2.701058121E1,-4.595443726E-1,2.752328645E1
1.299281438E1,2.838846588E0,-1.570623871E1,-6.421646118E-1,1.597364579E1
1.300287037E1,2.923720093E0,-1.087039490E1,-1.228794708E0,1.132358428E1
1.301292638E1,3.494034119E0,-8.694819031E0,-1.381926270E0,9.471951890E0
1.302298237E1,4.119732971E0,-7.877368927E0,-2.074535980E0,9.128463206E0
1.303303838E1,3.910318451E0,-6.884932709E0,-2.551593933E0,8.318865331E0
1.304309338E1,2.542462921E0,-5.871689758E0,-2.893932037E0,7.022513863E0
1.305314938E1,7.779322815E-1,-4.619842987E0,-3.170706482E0,5.656987489E0
1.306320538E1,-1.023721161E0,-3.464096375E0,-3.732787628E0,5.194388528E0
1.307326138E1,-2.558329926E0,-2.693648529E0,-4.959786072E0,6.196795324E0
1.308331738E1,-2.881507874E0,-1.876497803E0,-6.338419189E0,7.211094886E0
1.309337338E1,-1.750609589E0,-8.593629456E-1,-6.255491638E0,6.552428118E0
1.310342938E1,-7.214996338E-1,7.020401001E-2,-4.699926453E0,4.755501970E0
1.311348438E1,-4.252656555E-1,5.870791626E-1,-2.763852539E0,2.857340316E0
1.312354038E1,-2.888992310E-1,7.011419678E-1,-1.398242340E0,1.590642784E0
1.313359638E1,-2.948867798E-1,5.697152710E-1,-9.053173828E-1,1.109564449E0
1.314365238E1,-3.167413330E-1,4.981640625E-1,-7.502398682E-1,9.546477701E-1
1.315370838E1,-3.347039795E-1,4.812492371E-1,-5.668711853E-1,8.154572477E-1
1.316376438E1,-3.285667419E-1,4.842430115E-1,-4.034111023E-1,7.107657248E-1
1.317382037E1,-2.796185303E-1,5.846841431E-1,-2.353106689E-1,6.895021251E-1
1.318387638E1,-2.345622253E-1,7.158114624E-1,-3.712280273E-2,7.541774259E-1
1.319393138E1,-2.233355713E-1,8.839118958E-1,2.279759216E-1,9.397616920E-1
1.320398738E1,-1.971400452E-1,1.096469879E0,4.644841003E-1,1.207002847E0
1.321404338E1,-1.916015625E-1,1.296004944E0,6.947053528E-1,1.482887555E0
1.322409938E1,-2.643502808E-1,1.518891449E0,8.493338013E-1,1.760193231E0
1.323415538E1,-3.852987671E-1,1.635049896E0,1.012045441E0,1.961142340E0
1.324421138E1,-5.164260864E-1,1.452878723E0,1.173709259E0,1.937819886E0
1.325426738E1,-6.494993591E-1,1.430275726E0,1.183888092E0,1.967010189E0
1.326432238E1,-7.378157043E-1,3.691323853E-1,1.184187469E0,1.443236188E0
1.327437838E1,-3.041674805E-1,-6.595285034E-1,1.046174469E0,1.273568499E0
1.328443438E1,-1.285826111E-1,-1.109343109E0,1.129401398E0,1.588308263E0
1.329449038E1,4.819976807E-2,-2.492766266E0,2.402054901E0,3.462091076E0
1.330454638E1,8.104446716E0,-3.412902832E1,-1.360820160E0,3.510447923E1
1.331460238E1,1.676468765E1,-8.005113281E1,-1.267594025E1,8.276423187E1
1.332465838E1,1.582598969E1,-7.439334824E1,-4.534819794E0,7.619315456E1
1.333471438E1,1.181852325E1,-5.006893112E1,8.393046570E-1,5.145172289E1
1.334476938E1,4.243675232E0,-2.520758057E1,-2.724334717E-2,2.556230897E1
1.335482538E1,2.522404633E0,-1.500060608E1,-3.353027344E-2,1.521124032E1
1.336488138E1,2.610271912E0,-1.107007965E1,-1.148561554E0,1.143150806E1
1.337493738E1,3.745511169E0,-9.789342957E0,-2.697091370E0,1.082286428E1
1.338499338E1,3.837719421E0,-9.888137512E0,-4.582720184E0,1.155442245E1
1.339504938E1,2.837948456E0,-9.392817535E0,-6.209537201E0,1.161194751E1
1.340510538E1,1.918410645E0,-6.844666443E0,-8.529412994E0,1.110318171E1
1.341516038E1,1.375639343E0,-5.044210510E0,-1.057251434E1,1.179468112E1
1.342521638E1,1.435065765E0,-3.908522186E0,-1.008752289E1,1.091302330E1
1.343527238E1,1.368603973E0,-2.683619385E0,-7.892188110E0,8.447574978E0
1.344532838E1,7.677534485E-1,-1.668131104E0,-5.233566742E0,5.546379682E0
1.345538438E1,5.358856201E-2,-8.422984314E-1,-2.948718109E0,3.067128440E0
1.346544038E1,-4.978646851E-1,-2.408491516E-1,-1.415157166E0,1.519390457E0
1.347549638E1,-6.942562866E-1,2.122586060E-1,-5.400769043E-1,9.048362116E-1
1.348555238E1,-5.421725464E-1,4.555027771E-1,-9.505233765E-2,7.144709909E-1
1.349560737E1,-5.840853882E-1,4.894821167E-1,1.790277100E-1,7.828150511E-1
1.350566338E1,-6.370751953E-1,5.514532471E-1,4.908293152E-1,9.751301989E-1
1.351571938E1,-5.614823914E-1,6.701564026E-1,9.565109253E-1,1.295872382E0
1.352577525E1,-4.415817261E-1,8.937913513E-1,1.357676697E0,1.684382205E0
1.353583125E1,-2.784210205E-1,1.106049957E0,1.678609314E0,2.029431941E0
1.354588725E1,-1.194515991E-1,1.253493347E0,1.855541382E0,2.242442435E0
1.355594325E1,-1.032852173E-2,1.381477203E0,1.986069946E0,2.419309772E0
1.356599825E1,1.020877075E-1,1.540446625E0,1.990111542E0,2.518718256E0
1.357605425E1,1.481918335E-1,1.606758728E0,1.971101074E0,2.547326809E0
1.358611025E1,2.149530029E-1,1.751657410E0,1.966610413E0,2.642359739E0
1.359616625E1,2.845582581E-1,1.866318970E0,1.987566833E0,2.741266462E0
1.360622225E1,3.255729675E-1,1.871558075E0,1.882036285E0,2.674095728E0
1.361627825E1,4.424798584E-1,1.787433014E0,1.714534607E0,2.516015525E0
1.362633425E1,7.973918152E-1,1.226998444E0,1.602567444E0,2.170156976E0
1.363639025E1,6.469546509E-1,-3.942800903E-1,1.337768097E0,1.537410352E0
1.364644525E1,4.189787292E-1,-1.220412140E0,1.426234131E0,1.923302567E0
1.365650125E1,6.884184265E-1,-2.326312408E0,2.403701477E0,3.415176444E0
1.366655725E1,1.918260956E0,-5.806575165E0,3.160827026E0,6.883812006E0
1.367661325E1,1.966056564E1,-5.556699783E1,-3.490890656E0,5.904587545E1
1.368666925E1,1.895119080E1,-7.988662491E1,-6.477180634E0,8.235881459E1
1.369672525E1,1.549218384E1,-6.068754959E1,-1.646276550E0,6.265538015E1
1.370678125E1,8.630602570E0,-3.820011246E1,-3.143463135E-1,3.916420184E1
1.371683725E1,4.787943420E0,-2.233370682E1,-2.832110596E-1,2.284292168E1
1.372689225E1,3.908522186E0,-1.661993866E1,-7.149133301E-1,1.708830032E1
1.373694825E1,3.838767242E0,-1.587149506E1,-2.018402710E0,1.645340204E1
1.374700425E1,4.598287811E0,-1.734128860E1,-4.050277405E0,1.839209853E1
1.375706025E1,4.273912354E0,-1.796174835E1,-4.809199219E0,1.907928531E1
1.376711625E1,3.342698822E0,-1.586026840E1,-4.812492371E0,1.690804045E1
1.377717225E1,3.195554810E0,-1.210772186E1,-4.952750702E0,1.346618872E1
1.378722825E1,2.626887360E0,-8.375233612E0,-5.743406525E0,1.048960408E1
1.379728325E1,1.142723694E0,-4.971761169E0,-7.691904602E0,9.229822478E0
1.380733925E1,-7.955955505E-1,-1.768272858E0,-1.135074600E1,1.151517243E1
1.381739525E1,-1.662143555E0,-8.909472656E-1,-1.157288406E1,1.172553426E1
1.382745125E1,-1.292412415E0,-1.451681213E0,-8.643924866E0,8.859748601E0
1.383750725E1,-6.788383484E-1,-1.441502380E0,-5.965993652E0,6.175097641E0
1.384756325E1,-4.204756165E-1,-1.165476379E0,-3.765270081E0,3.963886188E0
1.385761925E1,-3.998185730E-1,-8.125103760E-1,-2.079026642E0,2.267681587E0
1.386767425E1,-5.777984619E-1,-4.096980286E-1,-9.662406921E-1,1.198050338E0
1.387773025E1,-6.192622375E-1,-4.939727783E-3,-3.445834351E-1,7.086944782E-1
1.388778625E1,-4.052073669E-1,2.965333557E-1,-3.023712158E-2,5.030301430E-1
1.389784225E1,-3.351530457E-1,3.429368591E-1,2.127076721E-1,5.245739291E-1
1.390789825E1,-3.748205566E-1,3.797602844E-1,4.584965515E-1,7.035107754E-1
1.391795425E1,-3.171903992E-1,4.769082642E-1,7.253915405E-1,9.242532817E-1
1.392801025E1,-2.326162720E-1,6.348298645E-1,9.967771912E-1,1.204443463E0
1.393806625E1,-1.558259583E-1,8.954379272E-1,1.182091827E0,1.491117668E0
1.394812125E1,-7.708969116E-2,1.014889526E0,1.296454010E0,1.648252581E0
1.395817725E1,-3.697311401E-2,1.125359802E0,1.239272919E0,1.674395133E0
1.396823325E1,-2.484832764E-2,1.242416382E0,1.221909027E0,1.742778694E0
1.397828925E1,-3.472778320E-2,1.323697357E0,1.219813385E0,1.800368131E0
1.398834525E1,-7.574249268E-2,1.318458252E0,1.266665955E0,1.829893912E0
1.399840125E1,-1.200503540E-1,1.374741211E0,1.171912994E0,1.810443468E0
1.400845725E1,-8.247848511E-2,1.333127747E0,1.203796692E0,1.798098653E0
1.401851225E1,1.577719116E-1,5.288502502E-1,1.315913544E0,1.426955857E0
1.402856825E1,2.305206299E-1,-9.744735718E-1,1.336420898E0,1.669957880E0
1.403862425E1,1.938468933E-1,-1.569486237E0,1.815275116E0,2.407506472E0
1.404868025E1,1.790576477E0,-7.350165253E0,2.223775635E0,7.885193177E0
1.405873625E1,2.124292511E1,-6.311115967E1,-4.354145508E0,6.673259267E1
1.406879225E1,2.018312897E1,-7.975355164E1,-4.729415131E0,8.240361073E1
1.407884825E1,1.830588272E1,-6.222215836E1,2.374512177E0,6.490254726E1
1.408890325E1,1.010593460E1,-3.647105804E1,1.408570862E0,3.787152045E1
1.409895925E1,5.848038940E0,-1.998943176E1,1.719923401E-1,2.082802254E1
1.410901525E1,4.663552094E0,-1.431263672E1,-9.125024414E-1,1.508088024E1
1.411907125E1,4.971611481E0,-1.251128265E1,-1.926344147E0,1.359999692E1
1.412912725E1,5.335654449E0,-1.219948105E1,-2.385140076E0,1.352721107E1
1.413918325E1,4.548142090E0,-1.107337280E1,-2.836002502E0,1.230236123E1
1.414923925E1,3.254831543E0,-9.016649780E0,-3.294948120E0,1.013659631E1
1.415929525E1,1.913021851E0,-6.524482269E0,-3.596570892E0,7.691803668E0
1.416935025E1,6.036946106E-1,-4.258195038E0,-4.010759583E0,5.880719734E0
1.417940625E1,-4.852908325E-1,-2.311044159E0,-4.805457001E0,5.354329956E0
1.418946225E1,-1.234183502E0,-4.526586914E-1,-5.938151550E0,6.081920144E0
1.419951825E1,-1.297801208E0,7.484436035E-1,-6.590494995E0,6.758630045E0
1.420957425E1,-9.226812744E-1,1.232686615E0,-6.375841370E0,6.559131817E0
1.421963025E1,-5.284011841E-1,1.423689423E0,-5.078189850E0,5.300387866E0
1.422968625E1,-2.893482971E-1,1.368304596E0,-3.253634033E0,3.541484763E0
1.423974125E1,-8.696914673E-2,1.088985443E0,-1.781744843E0,2.089992252E0
1.424979725E1,-2.290237427E-2,8.425978088E-1,-8.740324402E-1,1.214260389E0
1.425985325E1,-8.996292114E-2,7.015910339E-1,-4.767585754E-1,8.530076467E-1
1.426990925E1,-1.601669312E-1,6.667135620E-1,-3.607498169E-1,7.747908427E-1
1.427996525E1,-2.001338196E-1,6.997947693E-1,-2.366578674E-1,7.653582240E-1
1.429002125E1,-2.302212524E-1,7.674540710E-1,3.308120728E-2,8.019239007E-1
1.430007725E1,-2.856060791E-1,8.963360596E-1,4.046086121E-1,1.024059223E0
1.431013225E1,-3.104544067E-1,9.741741943E-1,7.264393616E-1,1.254237396E0
1.432018825E1,-3.507206726E-1,1.178199921E0,9.698332214E-1,1.565802197E0
1.433024425E1,-4.137396240E-1,1.496288452E0,1.137035522E0,1.924294517E0
1.434030025E1,-4.336482239E-1,1.818418579E0,1.281185760E0,2.266304010E0
1.435035625E1,-4.311035156E-1,2.092199249E0,1.341061249E0,2.522219898E0
1.436041225E1,-4.608915710E-1,2.280357971E0,1.306183777E0,2.668064762E0
1.437046825E1,-5.212161255E-1,2.220183105E0,1.346599731E0,2.648435408E0
1.438052425E1,-6.652166748E-1,1.129850464E0,1.307231598E0,1.851466917E0
1.439057925E1,-2.432441711E-1,-5.252577209E-1,1.062640228E0,1.210069277E0
1.440063525E1,6.885681152E-2,-1.202449493E0,9.243278503E-1,1.518225286E0
1.441069125E1,5.893244934E-1,-2.320324860E0,5.385800171E-1,2.453829507E0
1.442074725E1,1.278790741E0,-3.608695679E0,2.409988403E-1,3.836153112E0
1.443080325E1,1.441996353E1,-3.410373093E1,-1.059406952E1,3.851277866E1
1.444085925E1,2.413805466E1,-7.774218430E1,-2.022683807E1,8.387859012E1
1.445091525E1,1.326736038E1,-5.670193771E1,3.544628906E-1,5.823451070E1
1.446097025E1,1.006596771E1,-4.040338074E1,3.857029266E0,4.181666600E1
1.447102625E1,6.812633057E0,-2.820764191E1,1.075064392E0,2.903857425E1
1.448108225E1,6.187532959E0,-2.127286285E1,-1.182091827E0,2.218597754E1
1.449113825E1,5.190755768E0,-1.933918396E1,-3.010838928E0,2.024878102E1
1.450119425E1,5.052443390E0,-2.003867935E1,-4.634063416E0,2.117900843E1
1.451125025E1,4.778812408E0,-2.061303497E1,-4.937632141E0,2.172819528E1
1.452130625E1,3.900738373E0,-1.905971512E1,-4.550537109E0,1.997988709E1
1.453136221E1,3.337609406E0,-1.635289398E1,-4.002826080E0,1.716331538E1
1.454141721E1,2.548600159E0,-1.319027069E1,-3.982618103E0,1.401213227E1
1.455147321E1,1.393452301E0,-1.062580353E1,-4.572241974E0,1.165138647E1
1.456152921E1,4.556524658E-1,-8.551417236E0,-5.150639191E0,9.993169667E0
1.457158521E1,-1.299298096E-1,-6.529571686E0,-5.137466583E0,8.309377296E0
1.458164121E1,-3.748205566E-1,-4.864883423E0,-4.645739136E0,6.737245230E0
1.459169721E1,-3.017724609E-1,-3.447780304E0,-3.896247711E0,5.211429926E0
1.460175321E1,-1.378633118E-1,-2.372566223E0,-3.026855621E0,3.848367411E0
1.461180821E1,-1.116677856E-1,-1.473236389E0,-2.290387115E0,2.725576690E0
1.462186421E1,-3.129991150E-1,-7.203021240E-1,-1.731150055E0,1.900969255E0
1.463192021E1,-5.454656982E-1,-1.637594604E-1,-1.281634827E0,1.402475603E0
1.464197621E1,-5.658233643E-1,2.046244812E-1,-9.641450500E-1,1.136487103E0
1.465203221E1,-3.635939026E-1,3.607498169E-1,-7.238946533E-1,8.867719129E-1
1.466208821E1,-3.212319946E-1,3.115022278E-1,-5.896238708E-1,7.401891254E-1
1.467214421E1,-2.990780640E-1,2.719844055E-1,-5.114863586E-1,6.519520690E-1
1.468219921E1,-2.418969727E-1,3.194357300E-1,-3.415896606E-1,5.265328358E-1
1.469225521E1,-2.318678284E-1,4.318519592E-1,-1.570234680E-1,5.146991102E-1
1.470231121E1,-2.100132751E-1,5.300477600E-1,-1.826202393E-2,5.704294042E-1
1.471236721E1,-1.797761536E-1,6.427633667E-1,3.712280273E-2,6.684626493E-1
1.472242321E1,-1.570234680E-1,7.429051208E-1,1.043330383E-1,7.664527193E-1
1.473247921E1,-1.499880981E-1,9.580078125E-1,1.954934692E-1,9.891880989E-1
1.474253521E1,-1.610650635E-1,1.233435059E0,2.661465454E-1,1.272060526E0
1.475259121E1,-1.913021851E-1,1.506467285E0,3.734733582E-1,1.563816663E0
1.476264621E1,-2.026785278E-1,1.695973206E0,4.348457336E-1,1.762525039E0
1.477270221E1,-2.077679443E-1,1.693727875E0,4.728666687E-1,1.770729940E0
1.478275821E1,-2.131567383E-1,1.632355499E0,4.436773682E-1,1.704954509E0
1.479281421E1,-9.924362183E-2,1.409918060E0,4.423301697E-1,1.481004461E0
1.480287021E1,7.409591675E-2,2.718347168E-1,3.475772095E-1,4.474307038E-1
1.481292621E1,8.008346558E-2,-3.061134338E-1,2.621049500E-1,4.108744341E-1
1.482298221E1,9.535171509E-2,-3.641926575E-1,2.761756897E-1,4.669060429E-1
1.483303721E1,1.585203552E-1,-1.158590698E0,4.634362793E-1,1.257868949E0
1.484309321E1,1.560145660E1,-4.436803619E1,-5.796396332E0,4.738698444E1
1.485314921E1,2.477752487E1,-8.077038712E1,-1.154159912E1,8.527009842E1
1.486320521E1,2.191098587E1,-6.796182266E1,-2.613565063E0,7.145440059E1
1.487326121E1,1.393901367E1,-4.485467422E1,8.199948120E-1,4.697776382E1
1.488331721E1,5.293142853E0,-2.384601196E1,1.508562927E0,2.447295262E1
1.489337321E1,2.858006744E0,-1.534818329E1,9.601034546E-1,1.564150669E1
1.490342821E1,2.934198303E0,-1.282503021E1,-2.897973633E-1,1.315959354E1
1.491348421E1,4.197720795E0,-1.297022827E1,-1.731449432E0,1.374211041E1
1.492354021E1,4.592749329E0,-1.306243652E1,-3.019969940E0,1.417183167E1
1.493359621E1,3.634891205E0,-1.130239655E1,-3.174598389E0,1.228961662E1
1.494365221E1,2.872526550E0,-8.762628021E0,-2.656825104E0,9.596550331E0
1.495370821E1,2.243983612E0,-6.127058716E0,-2.292033691E0,6.915904091E0
1.496376421E1,1.333876190E0,-3.998784485E0,-2.076182556E0,4.698939993E0
1.497382021E1,3.363505554E-1,-2.407144318E0,-2.165247345E0,3.255114672E0
1.498387521E1,-7.153623962E-1,-1.492995300E0,-2.659519501E0,3.132702076E0
1.499393121E1,-1.784588928E0,-1.286574554E0,-3.306474152E0,3.971498841E0
1.500398721E1,-2.416125641E0,-1.017883301E0,-3.851041718E0,4.658784373E0
1.501404321E1,-2.428998871E0,-2.591111755E-1,-4.482728119E0,5.105097992E0
1.502409921E1,-2.387535095E0,6.147715759E-1,-5.237758026E0,5.788987568E0
1.503415521E1,-1.741777954E0,9.809101868E-1,-4.057312775E0,4.523025778E0
1.504421121E1,-1.027613068E0,8.313711548E-1,-2.130220184E0,2.506991154E0
1.505426621E1,-6.399192810E-1,6.128256226E-1,-1.124311981E0,1.431478034E0
1.506432221E1,-4.010160828E-1,4.709207153E-1,-6.788383484E-1,9.183690554E-1
1.507437821E1,-2.676434326E-1,4.683760071E-1,-4.363426208E-1,6.938328140E-1
1.508443421E1,-2.112107849E-1,4.632865906E-1,-2.761756897E-1,5.792387006E-1
1.509449021E1,-2.165995789E-1,5.754034424E-1,-8.173004150E-2,6.202292308E-1
1.510454621E1,-2.044747925E-1,6.827302551E-1,1.598675537E-1,7.304027497E-1
1.511460221E1,-2.040257263E-1,7.277865601E-1,2.547702026E-1,7.976262472E-1
1.512465721E1,-1.923500061E-1,8.309220886E-1,4.046086121E-1,9.440011500E-1
1.513471321E1,-2.094145203E-1,9.705816650E-1,5.143304443E-1,1.118221363E0
1.514476921E1,-2.752775574E-1,1.069974976E0,6.273454285E-1,1.270506383E0
1.515482521E1,-2.990780640E-1,1.094823303E0,7.212002563E-1,1.344699061E0
1.516488121E1,-2.529739380E-1,1.159937897E0,7.204518127E-1,1.388705351E0
1.517493721E1,-4.056564331E-2,3.462300110E-1,5.929170227E-1,6.878018521E-1
1.518499321E1,1.076261902E-1,-3.448828125E-1,3.508703613E-1,5.036244252E-1
1.519504821E1,7.708969116E-2,-4.523593140E-1,3.432362366E-1,5.730470168E-1
1.520510421E1,5.313949585E-2,-2.356699219E0,4.890330505E-1,2.407490049E0
1.521516021E1,1.267489243E1,-5.556475250E1,-1.098595459E1,5.804124238E1
1.522521621E1,1.087787933E1,-8.080301926E1,-1.207299408E1,8.242095223E1
1.523527221E1,1.283401154E1,-7.116067062E1,3.467838593E0,7.239184208E1
1.524532821E1,6.995552673E0,-4.467370056E1,3.843257904E0,4.538114047E1
1.525538421E1,1.434317322E0,-2.366384079E1,8.776249695E-1,2.372350844E1
1.526543921E1,9.918374634E-1,-1.581760712E1,1.898052979E-1,1.584980954E1
1.527549521E1,1.208437042E0,-1.221430023E1,-1.160386963E0,1.232866368E1
1.528555121E1,1.437610474E0,-1.083102676E1,-2.230062561E0,1.115127991E1
1.529560721E1,1.550775146E0,-9.894424438E0,-3.239712982E0,1.052617113E1
1.530566321E1,9.148974609E-1,-8.300389252E0,-4.552782440E0,9.511115972E0
1.531571921E1,-2.634521484E-2,-6.084397430E0,-5.735323334E0,8.361490292E0
1.532577521E1,-7.652087402E-1,-3.933071136E0,-6.498735809E0,7.634668303E0
1.533583121E1,-9.443861389E-1,-2.070644073E0,-6.334078217E0,6.730525902E0
1.534588621E1,-5.891748047E-1,-6.747967529E-1,-4.953499146E0,5.033848567E0
1.535594221E1,-8.846603394E-2,2.439926147E-1,-3.304228821E0,3.314405940E0
1.536599821E1,2.155517578E-2,6.888674927E-1,-1.921554108E0,2.041414519E0
1.537605421E1,-1.254391479E-1,7.545808411E-1,-9.470805359E-1,1.217410681E0
1.538611021E1,-1.504371643E-1,5.930667114E-1,-3.496728516E-1,7.047202053E-1
1.539616621E1,-1.062789917E-1,4.881349182E-1,-9.834548950E-2,5.091588728E-1
1.540622221E1,-6.855743408E-2,5.032534790E-1,5.164260864E-2,5.105204647E-1
1.541627721E1,-2.664459229E-2,5.873785400E-1,1.610650635E-1,6.096436978E-1
1.542633321E1,-1.945953369E-2,6.490502930E-1,1.842668152E-1,6.749809001E-1
1.543638921E1,-8.532257080E-3,7.174580383E-1,2.350112915E-1,7.550159888E-1
1.544644521E1,1.676513672E-2,8.051756287E-1,2.752775574E-1,8.510972896E-1
1.545650121E1,9.011260986E-2,8.352630615E-1,3.165916443E-1,8.977833445E-1
1.546655721E1,1.609153748E-1,8.957373047E-1,3.875440979E-1,9.891559557E-1
1.547661321E1,1.613644409E-1,9.933343506E-1,4.185296631E-1,1.089916829E0
1.548666821E1,1.514849854E-1,1.066681824E0,4.921765137E-1,1.184481125E0
1.549672421E1,1.689985657E-1,1.209035797E0,5.557942200E-1,1.341355765E0
1.550678021E1,1.525328064E-1,1.356628876E0,6.026467896E-1,1.492277225E0
1.551683621E1,1.619631958E-1,1.360670471E0,6.418652344E-1,1.513158018E0
1.552689221E1,2.387535095E-1,1.253942413E0,6.295907593E-1,1.423291726E0
1.553694821E1,3.493734741E-1,6.271957397E-1,5.240602112E-1,8.888618708E-1
1.554700421E1,2.168989563E-1,-3.300636292E-1,4.593946838E-1,6.058305308E-1
1.555706021E1,2.529739380E-1,-5.855822754E-1,4.390370178E-1,7.743745331E-1
1.556711521E1,3.935316467E-1,-8.252339172E-1,4.737648010E-1,1.029723876E0
1.557717121E1,5.942642212E-1,-1.687291260E0,6.656657410E-1,1.908720157E0
1.558722721E1,6.690037994E0,-3.250206161E1,-6.293961639E0,3.377505841E1
1.559728321E1,1.549442917E1,-7.973903183E1,-1.559008026E1,8.271300463E1
1.560733921E1,1.620799530E1,-7.094856171E1,-3.502865753E0,7.286060382E1
1.561739521E1,1.004890320E1,-4.979200699E1,7.926017761E-1,5.080209280E1
1.562745121E1,2.249372406E0,-2.843217499E1,2.927911377E-1,2.852251702E1
1.563750621E1,1.624571686E0,-1.848535950E1,1.537303162E-1,1.855724608E1
1.564756221E1,1.775607605E0,-1.474853027E1,-3.357518005E-1,1.485882421E1
1.565761821E1,2.009720764E0,-1.334445007E1,-1.246907043E0,1.355242054E1
1.566767421E1,2.335443420E0,-1.270991959E1,-2.728526001E0,1.320761924E1
1.567773021E1,1.934876404E0,-1.135478760E1,-3.778292999E0,1.212231191E1
1.568778621E1,1.276844788E0,-9.754016418E0,-4.251459045E0,1.071662600E1
1.569784221E1,6.083349609E-1,-7.852071533E0,-4.743336182E0,9.193711814E0
1.570789721E1,-9.774673462E-2,-5.973777466E0,-5.402265930E0,8.054815256E0
1.571795321E1,-7.017407227E-1,-4.257147217E0,-5.950875092E0,7.350418820E0
1.572800921E1,-1.043779449E0,-3.028801575E0,-5.738466797E0,6.572146963E0
1.573806521E1,-8.047265625E-1,-2.288141785E0,-4.514312439E0,5.124665303E0
1.574812121E1,-3.478765869E-1,-1.728006592E0,-3.100053406E0,3.566140213E0
1.575817721E1,-1.592687988E-1,-1.147663422E0,-1.935175781E0,2.255527252E0
1.576823321E1,-1.549278259E-1,-5.436694336E-1,-1.082249451E0,1.221000802E0
1.577828821E1,-2.453398132E-1,-1.496887207E-2,-5.279521179E-1,5.823651173E-1
1.578834421E1,-2.883004761E-1,3.586541748E-1,-1.781295776E-1,4.934370558E-1
1.579840021E1,-2.189945984E-1,5.782475281E-1,-1.242416382E-2,6.184522598E-1
1.580845621E1,-1.453477478E-1,6.227050781E-1,-5.807922363E-2,6.420753681E-1
1.581851221E1,-1.294807434E-1,6.867718506E-1,-1.053808594E-1,7.067715071E-1
1.582856821E1,-8.607101440E-2,7.647596741E-1,-1.297801208E-1,7.804540079E-1
1.583862421E1,8.382568359E-3,8.934919739E-1,-1.660047913E-1,9.088210856E-1
1.584867921E1,4.700225830E-2,9.927355957E-1,-1.570234680E-1,1.006175703E0
1.585873521E1,6.256988525E-2,1.080602875E0,-1.471440125E-1,1.092368493E0
1.586879121E1,2.245330811E-2,1.210532684E0,-1.513352966E-1,1.220162244E0
1.587884721E1,5.284011841E-2,1.243613892E0,-5.284011841E-2,1.245857001E0
1.588890321E1,4.700225830E-2,1.184935913E0,3.607498169E-2,1.186416341E0
1.589895921E1,-3.921844482E-2,1.212179260E0,1.073268127E-1,1.217553157E0
1.590901521E1,-1.782792664E-1,1.183588715E0,1.407073975E-1,1.205182274E0
1.591907021E1,-3.589535522E-1,1.039887543E0,2.032772827E-1,1.118720433E0
1.592912621E1,-6.562353516E-1,6.882687378E-1,3.737727356E-1,1.021794867E0
1.593918221E1,-3.207829285E-1,-1.603166199E-1,3.296145630E-1,4.870819910E-1
1.594923821E1,4.939727783E-2,-5.023553467E-1,2.258802795E-1,5.530125551E-1
1.595929421E1,-9.430389404E-3,-5.182223511E-1,2.543211365E-1,5.773409546E-1
1.596935021E1,1.883832550E0,-1.047895889E1,-1.814376984E0,1.080043371E1
1.597940621E1,1.488639359E1,-6.953265610E1,-1.258477982E1,7.221337591E1
1.598946121E1,1.616174149E1,-7.792525360E1,-5.655239868E0,7.978426395E1
1.599951721E1,1.589529556E1,-5.803446671E1,2.228865051E0,6.021318449E1
1.600957321E1,6.154751129E0,-3.335783203E1,1.788480835E0,3.396799351E1
1.601962921E1,2.753973083E0,-2.002969803E1,7.653584290E-1,2.023262080E1
1.602968521E1,2.567760315E0,-1.698742447E1,-2.871029663E-1,1.718279405E1
1.603974121E1,3.030897217E0,-1.790890823E1,-1.983525238E0,1.827155452E1
1.604979721E1,3.256029053E0,-1.872785522E1,-3.785178680E0,1.938199846E1
1.605985321E1,2.743794250E0,-1.671529037E1,-4.261338501E0,1.746677832E1
1.606990821E1,2.386786652E0,-1.327738953E1,-3.908522186E0,1.404501224E1
1.607996421E1,1.852697296E0,-9.640851746E0,-3.521576843E0,1.042976573E1
1.609002021E1,9.595046997E-1,-6.609655151E0,-3.624712372E0,7.599126941E0
1.610007621E1,-1.639091492E-1,-4.270768890E0,-4.536765747E0,6.232862630E0
1.611013221E1,-1.572629700E0,-2.666105804E0,-6.210585022E0,6.939211097E0
1.612018821E1,-2.439327393E0,-1.369053040E0,-7.713310089E0,8.204863002E0
1.613024321E1,-1.757944336E0,-5.346881104E-1,-6.280040588E0,6.543330150E0
1.614029921E1,-7.384144592E-1,-1.782792664E-1,-3.740870819E0,3.817218083E0
1.615035521E1,-4.468208313E-1,5.897735596E-2,-2.106269989E0,2.153949965E0
1.616041121E1,-5.029541016E-1,2.790197754E-1,-1.204395447E0,1.334684703E0
1.617046721E1,-3.827540588E-1,4.153862000E-1,-7.481442261E-1,9.374252758E-1
1.618052321E1,-3.092568970E-1,3.454815674E-1,-4.980143738E-1,6.804525393E-1
1.619057921E1,-3.122506714E-1,3.007246399E-1,-3.517684937E-1,5.582802736E-1
1.620063521E1,-2.912942505E-1,3.171903992E-1,-2.715353394E-1,5.091105285E-1
1.621069021E1,-2.224374390E-1,3.540138245E-1,-8.008346558E-2,4.256965629E-1
1.622074621E1,-1.884580994E-1,4.379891968E-1,1.493893433E-1,4.996680574E-1
1.623080221E1,-1.724414062E-1,5.219645691E-1,3.134481812E-1,6.327976076E-1
1.624085821E1,-1.437011719E-1,6.391708374E-1,4.569996643E-1,7.987728584E-1
1.625091421E1,-1.242416382E-1,7.622149658E-1,5.890251160E-1,9.712663003E-1
1.626097021E1,-9.939331055E-2,9.110055542E-1,6.903643799E-1,1.147350481E0
1.627102521E1,-9.610015869E-2,1.066681824E0,6.836283875E-1,1.270587709E0
1.628108121E1,-8.038284302E-2,1.232686615E0,7.878117371E-1,1.465136521E0
1.629113721E1,-8.053253174E-2,1.459764404E0,9.216334534E-1,1.728237781E0
1.630119321E1,-7.125183105E-2,1.548529816E0,9.990225220E-1,1.844198312E0
1.631124921E1,-3.412902832E-2,1.495689697E0,1.075962524E0,1.842809761E0
1.632130521E1,5.134323120E-2,9.240284729E-1,1.142574005E0,1.470353734E0
1.633136121E1,7.259902954E-2,-4.099974060E-1,9.045689392E-1,9.957979001E-1
1.634141721E1,5.298980713E-2,-8.439450073E-1,9.056167603E-1,1.239028979E0
1.635147221E1,-7.259902954E-2,-2.139800262E0,1.881287842E0,2.850133282E0
1.636152821E1,2.983894958E0,-1.941118423E1,1.279389496E0,1.968081655E1
1.637158421E1,1.672966049E1,-7.695317505E1,-1.206775497E1,7.966996549E1
1.638164021E1,1.413914749E1,-7.735913086E1,-4.931045837E0,7.879508761E1
1.639169621E1,1.355251740E1,-5.904426682E1,9.150471497E-1,6.058657840E1
1.640175221E1,4.143533478E0,-3.203323654E1,7.089257812E-1,3.230788896E1
1.641180821E1,1.313518524E0,-1.782059189E1,1.559756470E-1,1.786961540E1
1.642186321E1,9.919871521E-1,-1.255229736E1,-1.948947144E-1,1.259294213E1
1.643191921E1,1.103505249E0,-1.076321777E1,-6.697073364E-1,1.084034541E1
1.644197521E1,2.044747925E0,-9.474397888E0,-1.571132813E0,9.819046172E0
1.645203121E1,2.985391846E0,-7.676786041E0,-3.035836945E0,8.778491576E0
1.646208721E1,2.984942780E0,-4.525688782E0,-5.833070068E0,7.963444529E0
1.647214321E1,9.363029480E-1,-3.289110260E0,-1.684177734E1,1.718546984E1
1.648219921E1,2.432441711E-1,-1.805395660E0,-2.159589111E1,2.167258947E1
1.649225421E1,1.327738953E0,-1.805545349E0,-1.364966537E1,1.383243469E1
1.650231021E1,1.432970123E0,-2.013163605E0,-8.943601685E0,9.278698301E0
