"Time (s)","Acceleration x (m/s^2)","Acceleration y (m/s^2)","Acceleration z (m/s^2)","Absolute acceleration (m/s^2)"
1.668250014E-3,2.587668915E0,6.826404419E0,6.313720551E0,9.651885562E0
1.172424998E-2,2.393522644E0,6.770271149E0,6.375092926E0,9.602464886E0
2.177925000E-2,2.359842682E0,6.781348114E0,6.507866821E0,9.690607323E0
3.183525003E-2,2.503693542E0,6.841073914E0,6.420149231E0,9.710153953E0
4.189025000E-2,2.700234833E0,6.931934967E0,6.128705292E0,9.638673098E0
5.194525002E-2,2.845582581E0,6.982080688E0,5.987548828E0,9.627955750E0
6.200124999E-2,3.074606323E0,7.036717072E0,6.152206421E0,9.839625757E0
7.205625001E-2,3.345991974E0,7.103328552E0,6.405030670E0,1.013298360E1
8.211225003E-2,3.383863220E0,7.145989838E0,6.417454834E0,1.018329159E1
9.216725000E-2,3.142864380E0,7.068600769E0,6.239474945E0,9.938498928E0
1.022222500E-1,2.822380829E0,6.922654266E0,6.042933655E0,9.612805147E0
1.122782500E-1,2.516267395E0,6.809788971E0,5.990542603E0,9.412301956E0
1.223332500E-1,1.856888580E0,6.686744843E0,6.437662811E0,9.465943918E0
1.323892500E-1,1.160836029E0,6.504423981E0,7.000791779E0,9.626326253E0
1.424442500E-1,9.159452820E-1,6.425987091E0,7.225773926E0,9.713087804E0
1.524992500E-1,7.755372620E-1,6.381978607E0,7.264692993E0,9.700869717E0
1.625552500E-1,7.794291687E-1,6.342760162E0,7.167844391E0,9.602921926E0
1.726102500E-1,8.107141113E-1,6.383325806E0,7.169341278E0,9.633460441E0
1.826662500E-1,6.530918884E-1,6.462361450E0,7.218588867E0,9.710647237E0
1.927212500E-1,5.227130127E-1,6.418652344E0,7.286248169E0,9.724286050E0
2.027762500E-1,3.704795837E-1,6.375242615E0,7.421866150E0,9.791070966E0
2.128322500E-1,2.041754150E-1,6.347550201E0,7.506140900E0,9.832356399E0
2.228872500E-1,7.319778442E-2,6.271358643E0,7.498806152E0,9.775857551E0
2.329432500E-1,-1.050814819E-1,6.248156891E0,7.375762024E0,9.667076708E0
2.429982500E-1,-3.192860413E-1,6.209686890E0,7.153025208E0,9.477759464E0
2.530532500E-1,-5.066963196E-1,6.150110779E0,6.865772552E0,9.231437401E0
2.631092500E-1,-7.126679993E-1,6.089037781E0,6.568939819E0,8.985279468E0
2.731642500E-1,-9.035211182E-1,6.008954315E0,6.266568604E0,8.728903965E0
2.832202500E-1,-1.075363770E0,5.902525635E0,5.979765015E0,8.470761816E0
2.932752500E-1,-1.149908752E0,5.799988861E0,5.671855316E0,8.193418313E0
3.033302500E-1,9.964778137E-1,5.310357056E0,4.870571594E0,7.274292251E0
3.133862500E-1,3.781137085E0,5.598058777E0,4.324207764E0,8.020849862E0
3.234412500E-1,2.506238251E0,6.919660492E0,5.081333313E0,8.943314807E0
3.334972500E-1,-4.534071350E-1,6.554869080E0,7.836952972E0,1.022691149E1
3.435522500E-1,-4.231251068E0,5.517975311E0,6.594087524E0,9.582981134E0
3.536072500E-1,-4.373155975E0,4.254602509E0,4.816533966E0,7.773360608E0
3.636632500E-1,-5.005890198E0,4.421505432E0,3.570375366E0,7.573389414E0
3.737182500E-1,-5.049299927E0,4.474345551E0,4.409979401E0,8.059969986E0
3.837742500E-1,-3.453468475E0,4.405339050E0,4.906347198E0,7.443500486E0
3.938292500E-1,-2.370769958E0,4.650828552E0,4.717589722E0,7.036079107E0
4.038842500E-1,-1.606459351E0,4.681065674E0,4.522545319E0,6.704215364E0
4.139402500E-1,-1.756597137E0,5.450166321E0,4.187541962E0,7.094043565E0
4.239952500E-1,-2.486179962E0,6.224955139E0,3.455564117E0,7.541358012E0
4.340512500E-1,-2.420466614E0,5.644013214E0,3.089126129E0,6.874317714E0
4.441062500E-1,-1.897753601E0,4.710404663E0,3.022364960E0,5.909659108E0
4.541612500E-1,-1.249751129E0,4.033063202E0,3.003803558E0,5.181728717E0
4.642168750E-1,-1.050814819E0,3.406915283E0,3.052452393E0,4.693479428E0
4.742718750E-1,-1.849853210E0,2.546205139E0,3.466790771E0,4.682281043E0
4.843278750E-1,-2.274220734E0,1.848955078E0,4.251608734E0,5.163999579E0
4.943828750E-1,-2.121238861E0,1.678759003E0,4.528682556E0,5.275116282E0
5.044378750E-1,-2.751428375E0,1.440753937E0,4.610562286E0,5.559083972E0
5.144938750E-1,-2.747237091E0,1.497186584E0,4.968018951E0,5.871123539E0
5.245488750E-1,-3.221001892E0,1.181343384E0,5.133125610E0,6.174091343E0
5.346048750E-1,-3.377276917E0,6.854246521E-1,5.379363556E0,6.388533368E0
5.446598750E-1,-3.549568634E0,2.423460388E-1,5.666915588E0,6.691195811E0
5.547148750E-1,-3.636238403E0,-1.463955688E-1,5.775140533E0,6.826119657E0
5.647708750E-1,-3.695515137E0,-4.261637878E-1,5.633235626E0,6.750688211E0
5.748258750E-1,-4.195176086E0,-4.275109863E-1,5.433850250E0,6.878153574E0
5.848818750E-1,-5.504653015E0,-8.786727905E-2,5.333858185E0,7.665439884E0
5.949368750E-1,-7.176226959E0,2.853067017E-1,5.497617645E0,9.044525032E0
6.049918750E-1,-8.911568298E0,6.354286194E-1,5.857469330E0,1.068315337E1
6.150478750E-1,-1.000369720E1,9.541159058E-1,6.240373077E0,1.182905538E1
6.251028750E-1,-1.023002655E1,9.089099121E-1,6.465804291E0,1.213615201E1
6.351588750E-1,-9.963880005E0,5.442681885E-1,6.482719116E0,1.189961259E1
6.452138750E-1,-9.532028046E0,1.522334290E-1,6.323749695E0,1.143995384E1
6.552698750E-1,-9.202563171E0,-4.236190796E-2,6.089337158E0,1.103489875E1
6.653248750E-1,-8.968899078E0,7.873626709E-2,5.978417816E0,1.077909225E1
6.753798750E-1,-8.839717712E0,3.929328918E-1,5.976322174E0,1.067761360E1
6.854358750E-1,-8.838220825E0,5.468128967E-1,5.836363220E0,1.060548383E1
6.954908750E-1,-8.828790436E0,4.228706360E-1,5.511389008E0,1.041641824E1
7.055468750E-1,-8.663085022E0,3.257226562E-1,5.172643433E0,1.009511651E1
7.156018750E-1,-8.363258514E0,1.095721436E-1,4.801415405E0,9.644153095E0
7.256568750E-1,-8.233478394E0,-2.004331970E-1,4.388274536E0,9.332057293E0
7.357128750E-1,-8.077951813E0,-4.598437500E-1,3.979923706E0,9.016903818E0
7.457678750E-1,-7.861651611E0,-6.806346130E-1,3.610342255E0,8.677753207E0
7.558238750E-1,-7.985144806E0,-9.584568787E-1,3.402723999E0,8.732680446E0
7.658788750E-1,-8.410111084E0,-1.036444702E0,3.278182983E0,9.085739911E0
7.759338750E-1,-9.017098846E0,-9.093589783E-1,3.270099792E0,9.634757808E0
7.859898750E-1,-9.964478760E0,-8.319699097E-1,3.502117310E0,1.059470795E1
7.960448750E-1,-1.033555710E1,-8.424481201E-1,3.910617828E0,1.108270685E1
8.061008750E-1,-1.010383896E1,-1.174158325E0,4.245621185E0,1.102231866E1
8.161558750E-1,-9.842482452E0,-2.062860260E0,4.627327423E0,1.106986957E1
8.262108750E-1,-9.033714294E0,-2.730621643E0,4.978048096E0,1.066982902E1
8.362668750E-1,-8.096962280E0,-2.751877441E0,4.999004517E0,9.905739436E0
8.463218750E-1,-8.268505554E0,-2.338736572E0,4.918471985E0,9.900971645E0
8.563778750E-1,-9.473499756E0,-1.825903015E0,5.331463165E0,1.102295872E1
8.664328750E-1,-1.139400604E1,-1.629361725E0,6.489604797E0,1.321337064E1
8.764878750E-1,-1.318473221E1,-1.861678619E0,7.340136108E0,1.520462459E1
8.865438750E-1,-1.416100204E1,-2.018253021E0,7.245832214E0,1.603463154E1
8.965988750E-1,-1.418600006E1,-2.015558624E0,7.070995789E0,1.597823694E1
9.066548750E-1,-1.396880173E1,-2.220781860E0,6.713539124E0,1.565665677E1
9.167098750E-1,-1.400233200E1,-2.208956451E0,6.318360901E0,1.551987353E1
9.267648750E-1,-1.404873550E1,-2.124532013E0,5.427563324E0,1.520983396E1
9.368208750E-1,-1.394036087E1,-2.098785553E0,4.205803986E0,1.471146999E1
9.468758750E-1,-1.349354004E1,-1.745520172E0,3.257525940E0,1.399049458E1
9.569318750E-1,-1.279673904E1,-1.494342499E0,2.475552063E0,1.311937299E1
9.669868750E-1,-1.278446457E1,-1.527124329E0,1.400487671E0,1.295129371E1
9.770418750E-1,-1.305899368E1,-2.394121399E0,6.902146912E-1,1.329456767E1
9.870978750E-1,-1.298295181E1,-2.796933746E0,2.883004761E-1,1.328393742E1
9.971528750E-1,-1.251322861E1,-2.367327118E0,-3.367996216E-2,1.273523703E1
1.007208875E0,-1.162752045E1,-2.227218475E0,-8.626560974E-1,1.187029525E1
1.017263875E0,-1.122021744E1,-2.406695251E0,-1.861528931E0,1.162543553E1
1.027318875E0,-1.175176208E1,-3.301235046E0,-2.436333618E0,1.244740079E1
1.037374875E0,-1.257100845E1,-3.971391449E0,-2.362537079E0,1.339342320E1
1.047429875E0,-1.275452682E1,-4.587210846E0,-1.452279968E0,1.363193218E1
1.057485875E0,-1.223271194E1,-5.123096466E0,-5.358856201E-2,1.326228603E1
1.067540875E0,-1.276740005E1,-5.645959167E0,5.649252319E-1,1.397148881E1
1.077595875E0,-1.513622406E1,-4.843777313E0,-1.378633118E-1,1.589296900E1
1.087651875E0,-1.583527039E1,-3.337310028E0,-1.973346405E0,1.630299121E1
1.097706875E0,-1.469898331E1,-2.537373505E0,-3.694018250E0,1.536698231E1
1.107762875E0,-1.051308792E1,-3.791764984E0,-3.275039520E0,1.164595995E1
1.117817875E0,-1.207269470E1,-5.053341522E0,-2.912493439E0,1.340779012E1
1.127872875E0,-1.412043640E1,-4.433031464E0,-2.498155060E0,1.500930614E1
1.137928875E0,-9.128167877E0,-5.761818237E0,-3.164419556E-1,1.079917283E1
1.147983875E0,-8.968599701E0,-7.350165253E0,1.535506897E0,1.169694367E1
1.158039875E0,-9.958940277E0,-7.390132141E0,1.365310822E0,1.247632230E1
1.168094875E0,-8.659193115E0,-7.830216980E0,1.755549316E0,1.180575609E1
1.178149875E0,-8.750353546E0,-8.399034119E0,2.521506500E0,1.238831935E1
1.188205875E0,-9.227112122E0,-8.659941559E0,3.359164581E0,1.309267630E1
1.198260875E0,-9.126221924E0,-8.823102264E0,4.115092621E0,1.334425148E1
1.208316875E0,-8.613088989E0,-9.383087769E0,4.959337006E0,1.366830866E1
1.218371875E0,-7.403604126E0,-9.715247040E0,5.186414795E0,1.327020262E1
1.228426875E0,-6.185437317E0,-1.027957352E1,6.039191437E0,1.343134765E1
1.238482875E0,-5.383405151E0,-1.004561005E1,5.399721222E0,1.261159472E1
1.248537875E0,-5.726491699E0,-9.541907501E0,2.074236603E0,1.132003372E1
1.258593875E0,-6.737639008E0,-8.336464233E0,-9.006770325E-1,1.075656239E1
1.268648875E0,-8.372389526E0,-6.840325470E0,-1.199006653E-1,1.081209208E1
1.278704875E0,-9.251212006E0,-6.552773438E0,2.220632172E0,1.155227123E1
1.288759875E0,-1.022493713E1,-6.797215118E0,3.951632538E0,1.289832828E1
1.298814875E0,-8.889713745E0,-8.898545380E0,5.168601837E0,1.359873396E1
1.308870875E0,-7.536527710E0,-1.129461273E1,6.171067200E0,1.491474428E1
1.318925875E0,-7.125931549E0,-9.230854340E0,2.202370148E0,1.186751897E1
1.328981875E0,-7.271129608E0,-7.475155334E0,-3.676354980E-1,1.043467436E1
1.339036875E0,-7.920329590E0,-6.327791290E0,4.849914551E-1,1.014927486E1
1.349091875E0,-6.691534882E0,-7.265740814E0,1.092128906E0,9.937825426E0
1.359147875E0,-5.438490601E0,-9.281449127E0,1.964814148E0,1.093539997E1
1.369202875E0,-3.606001282E0,-9.841434631E0,2.328557739E0,1.073681806E1
1.379258875E0,-2.146985321E0,-1.004321503E1,4.074077911E0,1.104870241E1
1.389313875E0,-1.974244537E0,-1.003752686E1,5.864055634E0,1.179138395E1
1.399368875E0,-2.563868408E0,-8.955127716E0,5.741310883E0,1.094213801E1
1.409424875E0,-1.859732666E0,-8.669671326E0,4.374503174E0,9.887268809E0
1.419479875E0,-2.734214172E0,-8.299191742E0,3.466341705E0,9.400427412E0
1.429535875E0,-4.226461029E0,-7.861202545E0,3.154989166E0,9.466542924E0
1.439590875E0,-5.343288574E0,-7.078031158E0,4.202510834E0,9.813783938E0
1.449645875E0,-4.256997528E0,-7.164700928E0,5.606591034E0,1.004434320E1
1.459702250E0,-2.077380066E0,-9.171727295E0,6.746919708E0,1.157398009E1
1.469757250E0,-9.740245056E-1,-9.814939728E0,9.283993835E0,1.354526881E1
1.479813250E0,3.616479492E-1,-1.075019485E1,1.068463120E1,1.516109569E1
1.489868250E0,1.225950623E-1,-1.041519150E1,1.103849533E1,1.517694379E1
1.499923250E0,-1.412911835E0,-9.111702118E0,9.540859680E0,1.326828696E1
1.509979250E0,-2.756667480E0,-6.895410919E0,5.383554840E0,9.172162780E0
1.520034250E0,-3.743265839E0,-4.843178558E0,-1.141975250E0,6.226758800E0
1.530090250E0,-4.453089752E0,-3.982468414E0,-6.848258972E-1,6.013239520E0
1.540145250E0,-5.071753235E0,-5.970484314E0,5.251080322E0,9.430970701E0
1.550200250E0,-5.973178711E0,-7.079827423E0,5.401966553E0,1.072306220E1
1.560256250E0,-5.628146210E0,-6.797664185E0,3.475323029E0,9.484837283E0
1.570311250E0,-3.999981995E0,-7.354356537E0,3.800895996E0,9.194195256E0
1.580367250E0,-3.319197693E0,-7.823630676E0,4.117637329E0,9.443580225E0
1.590422250E0,-2.772384796E0,-8.044571228E0,2.662064209E0,8.915594739E0
1.600477250E0,-9.541159058E-1,-8.964109039E0,3.445235596E0,9.650659891E0
1.610533250E0,5.010081482E-1,-9.462422791E0,6.544390869E0,1.151596744E1
1.620588250E0,4.123924255E-1,-9.367669830E0,5.620811462E0,1.093237518E1
1.630644250E0,9.153465271E-1,-8.850345612E0,6.240522766E0,1.086787013E1
1.640699250E0,2.943628693E0,-9.124425659E0,1.495644791E1,1.776556859E1
1.650754250E0,-1.453627167E0,-7.100035400E0,-6.234535217E-1,7.274079249E0
1.660810250E0,-5.117857361E-1,-4.686753845E0,1.576222229E-1,4.717248246E0
1.670865250E0,4.063749390E0,-7.042105865E0,9.841734009E0,1.276577622E1
1.680921250E0,4.601431274E0,-9.407936096E0,1.326122314E1,1.689800197E1
1.690976250E0,1.899250488E0,-9.153165894E0,1.230620911E1,1.545413799E1
1.701032250E0,-1.636097717E0,-4.227209473E0,3.929328918E0,5.998811667E0
1.711087250E0,-9.117539978E-1,3.062631226E-1,-3.004851379E0,3.155031579E0
1.721142250E0,-9.867480469E-1,2.346370697E0,3.763922882E0,4.543813665E0
1.731198250E0,-3.175197144E0,-8.625064087E-1,4.103716278E0,5.259874665E0
1.741253250E0,-4.704417114E0,-6.906637573E-1,2.692900085E0,5.464454930E0
1.751309250E0,-5.570516052E0,-5.129832458E-1,2.330653381E-1,5.598939217E0
1.761364250E0,-4.737348633E0,-1.833836517E0,1.880539398E0,5.416812427E0
1.771419250E0,-3.103496246E0,-4.312831421E0,3.745960236E0,6.501109282E0
1.781475250E0,-8.488847351E-1,-5.934409332E0,3.543132019E0,6.963591309E0
1.791530250E0,3.523672485E-1,-6.465953979E0,2.892285461E0,7.092111021E0
1.801586250E0,9.849517822E-1,-7.037465515E0,2.784958649E0,7.632302769E0
1.811641250E0,1.502126312E0,-7.606731720E0,3.327729950E0,8.437567039E0
1.821696250E0,1.604064331E0,-8.882378998E0,4.514462128E0,1.009207845E1
1.831752250E0,1.341061249E0,-9.393266602E0,5.297783203E0,1.086730922E1
1.841807250E0,1.233435059E0,-8.787775726E0,5.865103455E0,1.063700159E1
1.851863250E0,1.483564911E0,-7.976762238E0,5.335804138E0,9.710844785E0
1.861918250E0,8.909472656E-1,-5.960155792E0,3.857178955E0,7.155073276E0
1.871973250E0,1.719923401E-1,-4.478387146E0,3.954776001E0,5.977105153E0
1.882029250E0,-1.569785614E0,-4.111799469E0,3.558549957E0,5.659893952E0
1.892084250E0,-3.490890656E0,-5.583538971E0,5.141657867E0,8.354571840E0
1.902140250E0,-8.367599487E-1,-9.194929047E0,5.838758240E0,1.092419266E1
1.912195250E0,3.125500488E-1,-1.229827560E1,6.065836029E0,1.371640030E1
1.922250250E0,2.146536255E0,-1.483220627E1,6.515650635E0,1.634183784E1
1.932306250E0,2.148482208E0,-1.257549911E1,5.770051117E0,1.400188001E1
1.942361250E0,3.540138245E-1,-7.651039581E0,2.040556641E0,7.926386558E0
1.952417250E0,-1.969753876E0,-5.555846558E0,2.596650238E0,6.441269577E0
1.962472250E0,-2.461032257E0,-6.837182007E0,2.382146301E0,7.647114395E0
1.972527250E0,-4.242477722E0,-9.142088928E0,8.436456299E-1,1.011376019E1
1.982583250E0,-2.701132965E0,-1.148636398E1,2.089654541E-1,1.180153987E1
1.992638250E0,-2.610870667E0,-1.023466690E1,-7.476951599E-1,1.058886681E1
2.002694250E0,-3.345093842E0,-9.513167267E0,-1.013392639E-1,1.008465537E1
2.012749250E0,-4.335135040E0,-8.875044250E0,-1.498384094E0,9.990243298E0
2.022805250E0,-3.262465668E0,-8.431366882E0,-2.510279846E-1,9.044039185E0
2.032860250E0,-3.690874786E0,-9.637109528E0,9.361532593E-1,1.036208568E1
2.042915250E0,-4.696782990E0,-9.894723816E0,2.431393890E0,1.121949224E1
2.052971250E0,-4.767286377E0,-8.557404785E0,4.741689606E0,1.088300585E1
2.063026250E0,-3.320245514E0,-7.372618561E0,3.502416687E0,8.811722724E0
2.073082250E0,-2.805915070E0,-7.693401489E0,7.262896729E-1,8.221257966E0
2.083137250E0,-3.966451721E0,-7.422913971E0,6.312373352E-1,8.439837181E0
2.093192250E0,-4.142335968E0,-6.246510315E0,7.167095947E-1,7.529376537E0
2.103248250E0,-4.286935272E0,-6.568490753E0,9.714797974E-1,7.903585123E0
2.113303250E0,-4.748425598E0,-7.691006470E0,1.933080139E0,9.243155576E0
2.123359250E0,-5.430856476E0,-8.863967285E0,2.798131256E0,1.076539161E1
2.133414250E0,-6.014193420E0,-9.755962372E0,3.172353058E0,1.189172604E1
2.143469250E0,-5.202281799E0,-9.794731750E0,4.356540527E0,1.191553404E1
2.153525250E0,-5.152435455E0,-9.907147980E0,4.477339325E0,1.203103236E1
2.163580250E0,-5.457501068E0,-1.021071671E1,3.378923492E0,1.206068727E1
2.173636250E0,-5.001998291E0,-1.073313034E1,3.087928619E0,1.223745795E1
2.183691250E0,-3.377725983E0,-1.125763962E1,1.913321228E0,1.190816026E1
2.193746250E0,-3.083887024E0,-1.104732697E1,-2.169887695E0,1.167314032E1
2.203802250E0,-6.366860046E0,-1.091649902E1,-3.375031586E0,1.308043180E1
2.213857250E0,-8.094716949E0,-1.129296616E1,-2.439926147E0,1.410704670E1
2.223913250E0,-7.357200623E0,-1.174742111E1,-1.721719666E0,1.396762766E1
2.233968250E0,-6.213129730E0,-1.212373856E1,-4.212240601E-1,1.362957987E1
2.244023250E0,-6.149062958E0,-1.257325378E1,9.485774231E-1,1.402845270E1
2.254079250E0,-6.813980255E0,-1.271156616E1,2.052831116E0,1.456805947E1
2.264134250E0,-7.548802185E0,-1.184636536E1,2.663710785E0,1.429741731E1
2.274190250E0,-7.531138916E0,-1.145088776E1,2.829416199E0,1.399451606E1
2.284245250E0,-6.908284149E0,-1.169068909E1,3.376079407E0,1.399265927E1
2.294301250E0,-6.308481445E0,-1.166269730E1,3.413052521E0,1.369176299E1
2.304356250E0,-6.109545135E0,-1.088057373E1,2.424508209E0,1.271187109E1
2.314411250E0,-5.579497375E0,-1.005264542E1,1.839075623E0,1.164339598E1
2.324467250E0,-5.502707062E0,-9.665251007E0,1.586999817E0,1.123456410E1
2.334522250E0,-5.789211273E0,-9.479786682E0,1.592388611E0,1.122127552E1
2.344578250E0,-5.604495392E0,-9.838590546E0,1.935325470E0,1.148711092E1
2.354633250E0,-7.436685333E0,-1.015697845E1,3.806284790E0,1.315128526E1
2.364688250E0,-6.392456818E0,-1.062041473E1,7.063062286E0,1.426686939E1
2.374744250E0,-7.683522034E0,-1.100526443E1,8.201295319E0,1.572938654E1
2.384799250E0,-8.315208435E0,-1.006327332E1,8.527766418E0,1.559278555E1
2.394855250E0,-5.898334351E0,-8.724457397E0,2.059417419E0,1.073068987E1
2.404910250E0,-8.860973511E0,-9.463171234E0,2.701282654E0,1.324255977E1
2.414965250E0,-5.171595612E0,-7.218738556E0,1.074315948E0,8.944816503E0
2.425021250E0,-5.510041809E0,-8.345595245E0,5.898783417E0,1.161056271E1
2.435076250E0,-5.846542053E0,-9.542655945E0,5.829178162E0,1.261838557E1
2.445132250E0,-5.610033875E0,-8.924441528E0,4.069437561E0,1.129948931E1
2.455187250E0,-4.372557220E0,-8.199798431E0,3.307821350E0,9.863956257E0
2.465242167E0,-3.151246948E0,-7.847880249E0,2.720742188E0,8.883806604E0
2.475298167E0,-2.812501373E0,-7.192243652E0,2.469863892E0,8.107944275E0
2.485353167E0,-3.204835510E0,-8.572074280E0,5.711822205E0,1.078778666E1
2.495409167E0,-2.434537354E0,-8.125552826E0,6.267317047E0,1.054660343E1
2.505464167E0,-1.121617584E0,-4.415817261E0,1.748064880E0,4.879876936E0
2.515519167E0,3.869453430E-1,-1.958078156E0,-2.314936066E0,3.056587272E0
2.525575167E0,3.201841736E-1,-1.459465027E0,-3.849993896E-1,1.542977835E0
2.535630167E0,-7.945477295E-1,-2.151475983E0,1.567540283E0,2.778009636E0
2.545686167E0,-1.358574829E0,-2.265389099E0,4.064048767E0,4.847082186E0
2.555741167E0,5.134323120E-1,-1.183738403E0,2.586471405E0,2.890446968E0
2.565796167E0,2.844085693E-2,-1.235231323E0,2.230661316E0,2.549991218E0
2.575852167E0,-1.391356659E0,-2.145638123E0,3.737427979E0,4.528576399E0
2.585907167E0,-1.882185974E0,-3.557202759E0,4.651427307E0,6.150779747E0
2.595963167E0,-1.547332306E0,-5.068310394E0,4.687202911E0,7.074735235E0
2.606018167E0,-1.403780823E0,-6.016139374E0,4.127816162E0,7.429899046E0
2.616074167E0,-1.811233521E0,-6.271358643E0,3.710783386E0,7.508689595E0
2.626129167E0,-2.122586060E0,-6.413562927E0,3.354075165E0,7.542478453E0
2.636184167E0,-2.216889954E0,-6.650520172E0,3.192261658E0,7.702892581E0
2.646240167E0,-2.472408600E0,-6.997648315E0,3.292253723E0,8.119040634E0
2.656295167E0,-2.678679657E0,-7.118297424E0,3.557502136E0,8.396505486E0
2.666351167E0,-2.794089661E0,-7.234006805E0,4.041894836E0,8.744981724E0
2.676406167E0,-3.485950928E0,-8.342152405E0,5.805826721E0,1.074481198E1
2.686461167E0,-3.620221710E0,-8.955127716E0,5.936804352E0,1.133781123E1
2.696517167E0,-3.831881561E0,-8.309520264E0,6.189029846E0,1.104696944E1
2.706572167E0,-3.599864044E0,-8.695118408E0,6.744824066E0,1.157828817E1
2.716628167E0,-3.587439880E0,-9.121581573E0,6.333180084E0,1.166971059E1
2.726683167E0,-3.075953522E0,-9.049281921E0,5.682183838E0,1.111927185E1
2.736738167E0,-3.301833801E0,-9.138197021E0,6.324049072E0,1.159320266E1
2.746794167E0,-3.464246063E0,-9.118887177E0,5.365143127E0,1.113282825E1
2.756849167E0,-3.836072845E0,-8.406967621E0,4.344864807E0,1.021128834E1
2.766905167E0,-4.204456787E0,-7.858657837E0,3.333268433E0,9.515599735E0
2.776960167E0,-3.825744324E0,-8.236921234E0,4.167932739E0,9.992740083E0
2.787015167E0,-4.471052399E0,-9.081764374E0,4.461322632E0,1.106219478E1
2.797071167E0,-4.751419373E0,-9.488318939E0,5.136568451E0,1.178933916E1
2.807126167E0,-4.255949707E0,-9.618099060E0,5.442831573E0,1.184252308E1
2.817182167E0,-3.850293274E0,-1.020757324E1,5.861510925E0,1.238453149E1
2.827237167E0,-3.746858368E0,-1.017988083E1,5.298381958E0,1.207235572E1
2.837292167E0,-3.948489075E0,-9.672735443E0,4.610562286E0,1.141970497E1
2.847348167E0,-4.366869049E0,-9.543254700E0,4.415368195E0,1.138590057E1
2.857403167E0,-4.966821442E0,-9.381141815E0,4.518204346E0,1.153643392E1
2.867459167E0,-5.177583160E0,-9.255552979E0,4.356839905E0,1.146536882E1
2.877514167E0,-4.885690155E0,-8.744964752E0,4.204007721E0,1.086361163E1
2.887570167E0,-4.450245667E0,-8.520431671E0,4.097878418E0,1.044964353E1
2.897625167E0,-4.554578705E0,-7.934100952E0,4.062252502E0,1.000979723E1
2.907680167E0,-5.154980164E0,-8.236472168E0,4.414320374E0,1.067237174E1
2.917736167E0,-5.818999329E0,-7.606432343E0,3.290607147E0,1.012653255E1
2.927791167E0,-6.537654877E0,-7.758516083E0,3.888164520E0,1.086523476E1
2.937847167E0,-7.387437744E0,-8.766070862E0,4.409530334E0,1.228259714E1
2.947902167E0,-6.923702087E0,-8.448281708E0,3.847000122E0,1.158060984E1
2.957957167E0,-6.327342224E0,-7.492519226E0,2.637964325E0,1.015539067E1
2.968013167E0,-6.272406464E0,-6.469247131E0,2.769690399E0,9.426846037E0
2.978068167E0,-5.807173920E0,-6.419700165E0,2.547252960E0,9.023542363E0
2.988124167E0,-6.358926544E0,-6.421646118E0,2.248773651E0,9.312919445E0
2.998179167E0,-4.563260651E0,-6.947053528E0,2.193388824E0,8.596269832E0
3.008234167E0,-3.121758270E0,-7.697742462E0,2.743943939E0,8.748133633E0
3.018290167E0,-2.984793091E0,-8.041577454E0,3.048261108E0,9.103178210E0
3.028345167E0,-2.410138092E0,-8.144712982E0,2.693349152E0,8.910625390E0
3.038401167E0,-1.946103058E0,-8.320297852E0,2.190544739E0,8.821176775E0
3.048456167E0,-2.030976563E0,-8.383765869E0,2.081721039E0,8.873891955E0
3.058511167E0,-2.676883392E0,-7.918832703E0,2.194286957E0,8.642251519E0
3.068567167E0,-5.179978180E0,-7.798632660E0,2.198777618E0,9.616936535E0
3.078622167E0,-6.406078491E0,-7.878416748E0,1.983674927E0,1.034612286E1
3.088678167E0,-6.474336548E0,-7.071444855E0,1.801054688E0,9.755314657E0
3.098733167E0,-6.087391205E0,-6.721472626E0,1.676214294E0,9.221942328E0
3.108789167E0,-6.004014587E0,-6.459816742E0,2.339185638E0,9.124100666E0
3.118844167E0,-5.851182404E0,-6.437812500E0,2.519710236E0,9.057080378E0
3.128899167E0,-5.982609100E0,-7.063960419E0,1.505718842E0,9.378610647E0
3.138955167E0,-6.300997009E0,-6.941215668E0,1.805844727E0,9.546942622E0
3.149010167E0,-6.363716583E0,-7.139702911E0,1.588347015E0,9.695106635E0
3.159066167E0,-5.809419250E0,-7.440577240E0,1.551673279E0,9.566568437E0
3.169121167E0,-5.535488892E0,-7.663463745E0,1.486408997E0,9.569729649E0
3.179176167E0,-5.595514069E0,-8.131690063E0,1.292562103E0,9.955143282E0
3.189232167E0,-5.228926392E0,-8.333620148E0,8.650511169E-1,9.876194075E0
3.199287167E0,-4.491260376E0,-8.364755402E0,8.012837219E-1,9.527990780E0
3.209343167E0,-3.952830048E0,-8.271499329E0,9.565109253E-1,9.217238181E0
3.219398167E0,-2.648442535E0,-8.200546875E0,1.209035797E0,8.702010370E0
3.229453167E0,-1.041384430E0,-8.019573212E0,1.685195618E0,8.260624692E0
3.239509167E0,-1.428329773E0,-8.135282593E0,1.442849579E0,8.384793600E0
3.249564167E0,-2.257754974E0,-8.693022766E0,1.401236115E0,9.090080582E0
3.259620167E0,-3.089126129E0,-8.852441254E0,1.885928192E0,9.563740980E0
3.269675167E0,-3.761677551E0,-8.788524170E0,2.065404968E0,9.780300239E0
3.279730167E0,-2.584076385E0,-8.435258789E0,2.288740540E0,9.114240224E0
3.289786167E0,-2.407443695E0,-8.422086182E0,1.875599670E0,8.957968236E0
3.299841167E0,-5.014123077E0,-8.398585052E0,2.342927856E0,1.005817936E1
3.309897167E0,-5.849535828E0,-8.081843719E0,2.748733978E0,1.034837213E1
3.319952167E0,-7.980205078E0,-8.477471008E0,2.487527161E0,1.190541806E1
3.330008167E0,-1.083701431E1,-8.496631165E0,2.875220947E0,1.406771182E1
3.340063167E0,-8.494236145E0,-8.492140503E0,2.775677948E0,1.232772834E1
3.350118167E0,-7.080426178E0,-8.856632538E0,2.400258636E0,1.159023797E1
3.360174167E0,-6.050118713E0,-9.098529510E0,2.218087463E0,1.114930884E1
3.370229167E0,-5.449417877E0,-9.769584045E0,2.053130493E0,1.137348990E1
3.380285167E0,-4.944966888E0,-1.021520737E1,2.295476532E0,1.157896246E1
3.390340167E0,-4.098926239E0,-1.037208115E1,2.204765167E0,1.136847629E1
3.400395167E0,-3.064577179E0,-9.944121094E0,1.829495544E0,1.056523694E1
3.410451167E0,-2.268233185E0,-9.873318329E0,1.171763306E0,1.019805500E1
3.420506167E0,-2.283501434E0,-1.011416748E1,1.438658295E0,1.046807052E1
3.430562167E0,-2.064057770E0,-1.015847534E1,1.627715149E0,1.049306496E1
3.440617167E0,-2.786156158E0,-9.994266815E0,1.880689087E0,1.054443108E1
3.450672167E0,-3.012784882E0,-9.792935486E0,2.009870453E0,1.044117031E1
3.460728167E0,-4.256548462E0,-9.476343842E0,2.516117706E0,1.068878598E1
3.470782750E0,-4.707859955E0,-9.251960449E0,2.526296539E0,1.068386127E1
3.480838750E0,-3.023263092E0,-9.419013062E0,1.815724182E0,1.005757332E1
3.490893750E0,-2.019001465E0,-8.879385223E0,1.778601379E0,9.278107120E0
3.500949750E0,-1.381477203E0,-8.793314209E0,1.402134247E0,9.010928614E0
3.511004750E0,-1.204096069E0,-9.053173828E0,1.236728210E0,9.216251970E0
3.521059750E0,-1.145867157E0,-8.792116699E0,1.264570312E0,8.956197054E0
3.531115750E0,-1.741777954E0,-8.754844208E0,1.529519348E0,9.056517928E0
3.541170750E0,-1.793270874E0,-9.153465271E0,1.390757904E0,9.430586113E0
3.551226750E0,-7.664062500E-1,-9.973759460E0,8.683442688E-1,1.004078075E1
3.561281750E0,-1.011895752E-1,-1.050380722E1,7.095245361E-1,1.052823017E1
3.571336750E0,-5.798941040E-1,-1.062580353E1,5.141807556E-1,1.065403021E1
3.581392750E0,-1.020877075E0,-1.037357803E1,3.933819580E-1,1.043111023E1
3.591447750E0,-1.389859772E0,-1.021640488E1,6.601272583E-1,1.033162169E1
3.601503750E0,-1.740580444E0,-9.773925018E0,7.090754700E-1,9.952990433E0
3.611558750E0,-2.255060577E0,-8.807684326E0,6.999444580E-1,9.118690895E0
3.621613750E0,-3.111878815E0,-8.743767242E0,1.025517426E0,9.337501879E0
3.631669750E0,-1.740730133E0,-8.932674408E0,1.313368835E0,9.194985110E0
3.641724750E0,-8.740324402E-1,-9.324260101E0,1.376836853E0,9.465803656E0
3.651780750E0,-9.580078125E-1,-9.797875214E0,1.310674438E0,9.931465408E0
3.661835750E0,-1.103056183E0,-9.595196686E0,6.280938721E-1,9.678793018E0
3.671890750E0,-2.777324524E0,-9.626930695E0,-5.005590820E-1,1.003204294E1
3.681946750E0,-4.412374420E0,-9.810748444E0,-8.146060181E-1,1.078811457E1
3.692001750E0,-4.251459045E0,-9.962682495E0,1.239422607E0,1.090257377E1
3.702057750E0,-3.831881561E0,-1.039528290E1,5.200186157E-1,1.109124169E1
3.712112750E0,-3.643273773E0,-9.723180542E0,-2.631527710E-1,1.038667093E1
3.722168750E0,-2.957100677E0,-9.971514130E0,1.267414398E0,1.047768475E1
3.732223750E0,-2.856958923E0,-1.054826477E1,3.716621246E0,1.154302289E1
3.742278750E0,-3.210224304E0,-1.182540894E1,3.916006622E0,1.286393969E1
3.752334750E0,-3.270399170E0,-1.225950623E1,2.997217255E0,1.303741979E1
3.762389750E0,-2.678679657E0,-1.099119370E1,2.336341553E0,1.155162999E1
3.772445750E0,-2.860252075E0,-1.026355682E1,1.861229553E0,1.081599815E1
3.782500750E0,-1.397194519E0,-9.325158234E0,1.971699829E0,9.633188923E0
3.792555750E0,1.799258423E-1,-9.442813568E0,2.517464905E0,9.774289280E0
3.802611750E0,3.203338623E-1,-9.775870972E0,2.579136658E0,1.011544428E1
3.812666750E0,1.531165924E0,-9.104217682E0,2.250869293E0,9.502508156E0
3.822722750E0,4.453239441E-1,-8.322393494E0,1.414558411E0,8.453491727E0
3.832777750E0,-6.792874146E-1,-9.323661346E0,-4.815486145E-1,9.360768204E0
3.842832750E0,-1.692829742E0,-8.900940399E0,-9.131011963E-3,9.060490931E0
3.852888750E0,-3.123404846E0,-7.369924164E0,9.234297180E-1,8.057553131E0
3.862943750E0,-3.524271240E0,-7.537725220E0,1.386865997E0,8.435709013E0
3.872999750E0,-3.767365723E0,-7.854017487E0,1.757046204E0,8.886272927E0
3.883054750E0,-4.352498932E0,-7.700885925E0,1.651665344E0,8.998660422E0
3.893110750E0,-3.848197632E0,-7.582033081E0,1.391656036E0,8.615831775E0
3.903165750E0,-2.769241333E0,-7.911497955E0,1.127305756E0,8.457618798E0
3.913220750E0,-1.807940369E0,-8.444539490E0,1.237177277E0,8.724076065E0
3.923276750E0,-1.359472961E0,-8.477770386E0,1.429227905E0,8.704220232E0
3.933331750E0,-6.304888916E-1,-8.619675293E0,2.037113800E0,8.879535519E0
3.943387750E0,-7.047344971E-1,-9.851463776E0,2.369123383E0,1.015680732E1
3.953442750E0,-5.167254639E-1,-1.091200836E1,2.301164703E0,1.116397289E1
3.963497750E0,9.632469177E-1,-1.119462067E1,2.254761200E0,1.145998798E1
3.973553750E0,-2.580334167E0,-1.221729401E1,2.668800201E0,1.276882500E1
3.983608750E0,8.228538666E0,-9.672286377E0,2.521356812E0,1.294678387E1
3.993664750E0,1.188917633E1,-1.096544724E1,4.216282196E0,1.671438250E1
4.003719750E0,4.395609283E0,-1.702020630E1,3.887565765E0,1.800338776E1
4.013774750E0,-1.329265778E1,-1.661110703E1,4.826114044E0,2.181547625E1
4.023830750E0,-3.392245789E1,-1.415441574E1,1.058658508E1,3.825122766E1
4.033885750E0,-2.078637451E1,-1.124042542E1,7.028933258E0,2.465413620E1
4.043941750E0,-6.797813873E0,-8.202043762E0,2.200573883E0,1.087779025E1
4.053996750E0,-4.984784088E0,-9.291777649E0,6.491999817E-1,1.056440556E1
4.064052750E0,-7.582033081E0,-9.650880890E0,1.208586731E0,1.233237242E1
4.074107750E0,-7.056625671E0,-7.689060516E0,1.212478638E-1,1.043706465E1
4.084162750E0,-4.497397614E0,-7.382048950E0,-1.113684082E0,8.715590871E0
4.094218750E0,-2.311343536E0,-7.482789459E0,-1.252445526E0,7.931145367E0
4.104273750E0,-1.618584137E0,-7.325316925E0,-3.376977539E-1,7.509602016E0
4.114329750E0,-1.935624847E0,-7.229965210E0,2.658471680E-1,7.489306724E0
4.124384750E0,-1.999392242E0,-6.839277649E0,6.530918884E-1,7.155404748E0
4.134439750E0,-2.697839813E0,-6.764433289E0,1.065783691E0,7.360148929E0
4.144495750E0,-3.663332062E0,-6.873107300E0,1.498384094E0,7.931252149E0
4.154550750E0,-3.490890656E0,-7.024143219E0,2.212848358E0,8.149944993E0
4.164606750E0,-3.169359283E0,-7.378606110E0,3.080743561E0,8.601142208E0
4.174661750E0,-2.681823120E0,-8.039032745E0,4.134851532E0,9.429486726E0
4.184716750E0,-3.069516907E0,-7.958500214E0,4.785847778E0,9.780797444E0
4.194772750E0,-3.999532928E0,-8.255033569E0,3.873195648E0,9.957082274E0
4.204827750E0,-3.107687531E0,-9.346563721E0,2.205363922E0,1.009354275E1
4.214883750E0,-1.243015137E0,-1.019230499E1,7.524851990E-1,1.029535826E1
4.224938750E0,-7.833210754E-1,-1.057206528E1,1.181044006E0,1.066663120E1
4.234994750E0,1.440753937E0,-1.131482071E1,2.221829681E0,1.162056224E1
4.245049750E0,3.543431396E0,-1.189381668E1,2.751128998E0,1.271170689E1
4.255104750E0,4.248614960E0,-1.177241913E1,2.996468811E0,1.286932036E1
4.265160750E0,4.853806458E0,-1.144969025E1,2.292033691E0,1.264548387E1
4.275215750E0,4.957989807E0,-1.151016449E1,5.769003296E-1,1.254585045E1
4.285271750E0,2.956501923E0,-1.189636139E1,1.153650970E0,1.231240141E1
4.295326750E0,2.048190765E0,-1.205548050E1,1.537153473E0,1.232446901E1
4.305381750E0,2.223476257E0,-1.147723297E1,1.752705231E0,1.182128161E1
4.315437750E0,-5.189707947E-1,-1.317485275E1,1.511107635E0,1.327137981E1
4.325492750E0,-1.293759613E0,-1.345447128E1,1.911375275E0,1.365100608E1
4.335548750E0,-9.972262573E-1,-1.302995407E1,1.771116943E0,1.318753269E1
4.345603750E0,-1.321452026E0,-1.193303513E1,1.587149506E0,1.211043378E1
4.355659750E0,-9.613009644E-1,-1.089853638E1,1.798210602E0,1.108763979E1
4.365714750E0,-8.428971863E-1,-1.028526169E1,1.716480560E0,1.046151945E1
4.375769750E0,-7.364685059E-1,-9.878258057E0,1.629960480E0,1.003888137E1
4.385825750E0,-5.397775269E-1,-9.598340149E0,1.714235229E0,9.765146994E0
4.395880750E0,-9.985734558E-1,-9.164542236E0,1.707948303E0,9.375663750E0
4.405936750E0,-9.723779297E-1,-8.821605377E0,1.592837677E0,9.016838256E0
4.415991750E0,-1.277144165E0,-8.576115875E0,1.305884399E0,8.768477336E0
4.426046750E0,-1.709594879E0,-8.421188049E0,8.560697937E-1,8.635506835E0
4.436102750E0,-2.141895905E0,-8.084238739E0,8.966354370E-2,8.363651930E0
4.446157750E0,-2.159259796E0,-7.654931488E0,-3.847000122E-2,7.953732388E0
4.456213750E0,-2.157912598E0,-7.283254395E0,2.053729248E-1,7.598984103E0
4.466268375E0,-2.701881409E0,-7.643405457E0,-1.469943237E-1,8.108231463E0
4.476323375E0,-3.228336639E0,-8.036787415E0,-3.323089600E-2,8.661016897E0
4.486379375E0,-2.783461761E0,-8.430319061E0,-5.279521179E-1,8.893630996E0
4.496434375E0,-2.028880920E0,-8.049660645E0,-9.303153992E-1,8.353375427E0
4.506490375E0,-2.106120300E0,-8.007747803E0,2.487826538E-1,8.283819192E0
4.516545375E0,-1.871109009E0,-8.208031311E0,1.162931671E0,8.498543228E0
4.526601375E0,-1.410516815E0,-7.909102936E0,7.831713867E-1,8.071977723E0
4.536656375E0,-9.419911194E-1,-7.660619659E0,-1.441502380E-1,7.719664509E0
4.546711375E0,-2.163002014E-1,-9.152716827E0,-9.047186279E-1,9.199865591E0
4.556767375E0,-1.035097504E0,-1.114866623E1,-6.734495544E-1,1.121684982E1
4.566822375E0,-1.414708099E0,-1.124132355E1,-8.732839966E-1,1.136359886E1
4.576878375E0,-1.201401672E0,-1.054691757E1,-1.059047699E0,1.066782163E1
4.586933375E0,-1.117126923E0,-1.048419800E1,-5.234614563E-1,1.055653315E1
4.596988375E0,-1.323996735E0,-1.025517426E1,-6.730004883E-1,1.036216657E1
4.607044375E0,-1.614841919E0,-9.896071014E0,-8.587641907E-1,1.006366791E1
4.617099375E0,-1.544338531E0,-9.517059174E0,-9.339079285E-1,9.686670265E0
4.627155375E0,-1.711690521E0,-9.668394470E0,-9.198371887E-1,9.861735979E0
4.637210375E0,-1.540296936E0,-9.028475189E0,-5.632786560E-1,9.176228078E0
4.647266375E0,-1.532363434E0,-8.515342255E0,-3.165916443E-1,8.657910930E0
4.657321375E0,-1.659598846E0,-8.614136810E0,-4.221221924E-1,8.782699384E0
4.667376375E0,-1.835632782E0,-8.843010864E0,-4.046086121E-1,9.040580567E0
4.677432375E0,-1.742526398E0,-9.032965851E0,-2.480342102E-1,9.202846912E0
4.687487375E0,-1.603016510E0,-9.208251343E0,4.939727783E-2,9.346870857E0
4.697543375E0,-1.270557861E0,-9.254056091E0,2.294728088E-1,9.343689271E0
4.707598375E0,-1.002764740E0,-9.526938629E0,3.353027344E-2,9.579625308E0
4.717653375E0,-1.084644470E0,-1.028391449E1,3.185375977E-1,1.034585990E1
4.727709375E0,-1.400337982E0,-1.141346558E1,2.366578674E-1,1.150148468E1
4.737764375E0,-1.542841644E0,-1.328008392E1,2.462379456E-1,1.337167239E1
4.747820375E0,-6.668632507E-1,-1.300660263E1,6.271957397E-2,1.302383785E1
4.757875375E0,-6.601272583E-1,-1.230366440E1,-9.635462952E-1,1.235897840E1
4.767931375E0,-9.891430664E-1,-1.283041901E1,-1.013841705E0,1.290836670E1
4.777986375E0,-7.232958984E-1,-1.235994736E1,-8.620573425E-1,1.241106758E1
4.788041375E0,-1.269060974E0,-1.213541428E1,-1.257085876E0,1.226617546E1
4.798097375E0,-2.376158752E0,-1.129191833E1,-1.667232971E0,1.165904009E1
4.808152375E0,-1.372346191E0,-1.240485397E1,-2.252366180E0,1.268214846E1
4.818208375E0,5.408253479E-1,-1.336989716E1,-1.222058716E0,1.343651999E1
4.828263375E0,1.571731567E-2,-1.343890366E1,-3.207829285E-1,1.344274080E1
4.838318375E0,-3.879931641E-1,-1.227208008E1,-2.853067017E-1,1.228152629E1
4.848374375E0,-7.526348877E-1,-1.145897095E1,-4.300556946E-1,1.149171103E1
4.858429375E0,-8.631051636E-1,-1.072130493E1,-1.131497040E0,1.081534167E1
4.868485375E0,-8.587641907E-1,-9.725126495E0,-1.552421722E0,9.885624638E0
4.878540375E0,-5.450166321E-1,-8.817264404E0,-2.085463257E0,9.076913115E0
4.888596375E0,-1.920506287E-1,-8.227640533E0,-2.056124268E0,8.482841458E0
4.898651375E0,-1.330732727E-1,-7.799231415E0,-1.244811401E0,7.899067957E0
4.908706375E0,-4.926255798E-1,-8.081394653E0,-5.031037903E-1,8.112011645E0
4.918762375E0,-4.433779907E-1,-9.096134491E0,-7.032376099E-1,9.134045646E0
4.928817375E0,-8.000862122E-1,-9.710606689E0,-1.330732727E-1,9.744420389E0
4.938873375E0,-8.327183533E-1,-8.708740082E0,5.528004456E-1,8.765909080E0
4.948928375E0,-4.770579529E-1,-7.610174561E0,1.049766998E0,7.697035266E0
4.958983375E0,7.795788574E-1,-8.655001831E0,3.433859253E-1,8.696822051E0
4.969039375E0,4.619393921E-1,-9.462722168E0,-3.677851868E-1,9.481126767E0
4.979094375E0,-7.559280396E-2,-9.713450775E0,-9.288185120E-1,9.758050218E0
4.989150375E0,-1.181044006E-1,-9.707014160E0,-1.398990784E0,9.808019564E0
4.999205375E0,-4.320016479E-1,-9.445657654E0,-1.130748596E0,9.522902201E0
5.009261375E0,-2.965333557E-1,-9.793683929E0,-1.362466736E0,9.892446237E0
5.019316375E0,-2.050735474E-1,-1.008991791E1,-1.516496429E0,1.020530548E1
5.029371375E0,-3.457809448E-1,-1.001746857E1,-1.387315063E0,1.011898631E1
5.039427375E0,-3.186872864E-1,-9.876461792E0,-1.225501556E0,9.957304514E0
5.049482375E0,-3.089575195E-1,-9.959239655E0,-1.147663422E0,1.002990731E1
5.059538375E0,-4.052073669E-1,-1.002151016E1,-1.059496765E0,1.008550407E1
5.069593375E0,-5.309458923E-1,-9.960886230E0,-9.042695618E-1,1.001593039E1
5.079649375E0,-5.777984619E-1,-9.849218445E0,-8.283773804E-1,9.900866837E0
5.089704375E0,-5.608836365E-1,-9.814191284E0,-8.663983154E-1,9.868312270E0
5.099759375E0,-5.541476440E-1,-9.717043304E0,-9.220825195E-1,9.776412755E0
5.109815375E0,-5.565426636E-1,-9.609117737E0,-9.457333374E-1,9.671571484E0
5.119870375E0,-5.466632080E-1,-9.513915710E0,-9.587562561E-1,9.577716135E0
5.129926375E0,-5.999523926E-1,-9.418114929E0,-9.747729492E-1,9.487413451E0
5.139981375E0,-6.935078430E-1,-9.345216522E0,-9.693841553E-1,9.420919839E0
5.150036375E0,-7.018904114E-1,-9.327852631E0,-9.976753235E-1,9.407275955E0
5.160092375E0,-7.102729797E-1,-9.348659363E0,-1.025367737E0,9.431505637E0
5.170147375E0,-6.638694763E-1,-9.416318665E0,-1.061592407E0,9.499197772E0
5.180203375E0,-6.375242615E-1,-9.473799133E0,-1.098715210E0,9.558581606E0
5.190258375E0,-6.303392029E-1,-9.573791199E0,-1.103056183E0,9.657719108E0
5.200314375E0,-5.971083069E-1,-9.618099060E0,-1.101559296E0,9.699371152E0
5.210369375E0,-5.840853882E-1,-9.637259216E0,-1.088835754E0,9.716145545E0
5.220424375E0,-5.418731689E-1,-9.606273651E0,-1.091979218E0,9.683312378E0
5.230480375E0,-4.960684204E-1,-9.597292328E0,-1.075363770E0,9.670083306E0
5.240535375E0,-4.369413757E-1,-9.572294312E0,-1.061442719E0,9.640871164E0
5.250591375E0,-3.619473267E-1,-9.530381470E0,-1.091530151E0,9.599511180E0
5.260646375E0,-3.517684937E-1,-9.582473145E0,-1.117725677E0,9.653851217E0
5.270701375E0,-3.930825806E-1,-9.614955597E0,-1.116677856E0,9.687561844E0
5.280757375E0,-4.152365112E-1,-9.514065399E0,-1.167572021E0,9.594429957E0
5.290812375E0,-5.278024292E-1,-9.626331940E0,-1.252146149E0,9.721764860E0
5.300868375E0,-5.364843750E-1,-9.727970581E0,-1.296154633E0,9.828593182E0
5.310923375E0,-6.246510315E-1,-9.807754669E0,-1.327439575E0,9.916871300E0
5.320979375E0,-1.018482056E0,-1.001148102E1,-1.259331207E0,1.014164548E1
5.331034375E0,-1.224154358E0,-9.850415955E0,-1.125659180E0,9.989812659E0
5.341089375E0,-7.755372620E-1,-9.417815552E0,-1.398990784E0,9.552689832E0
5.351145375E0,-3.056643677E-1,-9.573940887E0,-1.486408997E0,9.693461019E0
5.361200375E0,-9.684860229E-2,-9.751920776E0,-1.665586395E0,9.893609883E0
5.371256375E0,-2.405497742E-1,-9.736951904E0,-1.469643860E0,9.850175108E0
5.381311375E0,-3.686833191E-1,-9.705816650E0,-1.263372803E0,9.794637057E0
5.391367375E0,-5.858816528E-1,-9.671088867E0,-1.162183228E0,9.758272749E0
5.401422375E0,-6.291416931E-1,-9.604776764E0,-1.076411591E0,9.685361009E0
5.411477375E0,-5.517526245E-1,-9.676178284E0,-1.160985718E0,9.761185634E0
5.421533375E0,-4.797523499E-1,-9.686955872E0,-1.304387512E0,9.786148535E0
5.431588375E0,-4.119433594E-1,-9.668095093E0,-1.344504089E0,9.769823504E0
5.441644375E0,-4.270619202E-1,-9.675729218E0,-1.404678955E0,9.786482552E0
5.451699375E0,-4.013154602E-1,-9.713750153E0,-1.370699615E0,9.818187896E0
5.461754375E0,-3.363505554E-1,-9.818981323E0,-1.323248291E0,9.913451062E0
5.471810792E0,-2.797682190E-1,-9.860295410E0,-1.360520782E0,9.957645938E0
5.481865792E0,-2.676434326E-1,-9.820627899E0,-1.393003235E0,9.922541174E0
5.491921792E0,-2.794688416E-1,-9.751022644E0,-1.316811676E0,9.843502346E0
5.501976792E0,-3.234773254E-1,-9.688452759E0,-1.202000427E0,9.768088834E0
5.512032792E0,-4.266128540E-1,-9.636061707E0,-1.093775482E0,9.707318298E0
5.522087792E0,-5.435197449E-1,-9.576036530E0,-1.008901978E0,9.644364807E0
5.532142792E0,-6.870712280E-1,-9.582323456E0,-9.780661011E-1,9.656583401E0
5.542198792E0,-8.235873413E-1,-9.628128204E0,-9.812095642E-1,9.712976940E0
5.552253792E0,-9.354048157E-1,-9.677974548E0,-1.026265869E0,9.777085208E0
5.562309792E0,-9.943821716E-1,-9.703571320E0,-1.102906494E0,9.816541906E0
5.572364792E0,-9.895921326E-1,-9.682914276E0,-1.198108521E0,9.806813218E0
5.582419792E0,-9.630972290E-1,-9.680369568E0,-1.224902802E0,9.804973132E0
5.592475792E0,-9.262738037E-1,-9.691745911E0,-1.205143890E0,9.810213747E0
5.602530792E0,-8.933422852E-1,-9.704469452E0,-1.139879608E0,9.811937286E0
5.612586792E0,-8.779243469E-1,-9.712103577E0,-1.055754547E0,9.808686187E0
5.622641792E0,-8.502319336E-1,-9.735904083E0,-1.009949799E0,9.825004898E0
5.632697792E0,-8.223898315E-1,-9.775721283E0,-9.728269958E-1,9.858369236E0
5.642752792E0,-7.945477295E-1,-9.791887665E0,-9.731263733E-1,9.872149972E0
5.652807792E0,-7.860154724E-1,-9.801617432E0,-9.976753235E-1,9.883566191E0
5.662863792E0,-8.053253174E-1,-9.797276459E0,-1.031804352E0,9.884320669E0
5.672918792E0,-8.050259399E-1,-9.765093384E0,-1.045875092E0,9.853880975E0
5.682974792E0,-8.092172241E-1,-9.745933228E0,-1.048868866E0,9.835556562E0
5.693029792E0,-7.949967957E-1,-9.721983032E0,-1.041683807E0,9.809896999E0
5.703085792E0,-7.825726318E-1,-9.675130463E0,-1.050814819E0,9.763441052E0
5.713140792E0,-7.608677673E-1,-9.646090851E0,-1.044228516E0,9.732235183E0
5.723195792E0,-7.249424744E-1,-9.635163574E0,-1.029559021E0,9.717093726E0
5.733251792E0,-6.915618896E-1,-9.603130188E0,-1.022823029E0,9.682176109E0
5.743306792E0,-6.637197876E-1,-9.587412872E0,-1.009351044E0,9.663218877E0
5.753362792E0,-6.494993591E-1,-9.593849487E0,-9.839039612E-1,9.666015953E0
5.763417792E0,-6.397695923E-1,-9.620344391E0,-9.683363342E-1,9.690098379E0
5.773472792E0,-6.535409546E-1,-9.649982758E0,-9.559121704E-1,9.719210414E0
5.783528792E0,-6.782395935E-1,-9.717492371E0,-9.645941162E-1,9.788774629E0
5.793583792E0,-7.111711121E-1,-9.789792023E0,-9.868977356E-1,9.865077766E0
5.803639792E0,-7.418572998E-1,-9.851014709E0,-1.025667114E0,9.932010677E0
5.813694792E0,-7.616162109E-1,-9.886341248E0,-1.073717194E0,9.973598705E0
5.823750792E0,-7.756869507E-1,-9.879006500E0,-1.117126923E0,9.972182922E0
5.833805792E0,-7.873626709E-1,-9.870025177E0,-1.126856689E0,9.965296933E0
5.843860792E0,-7.936495972E-1,-9.824819183E0,-1.125509491E0,9.920873111E0
5.853916792E0,-8.038284302E-1,-9.765542450E0,-1.127904510E0,9.863271672E0
5.863971792E0,-8.568182373E-1,-9.705068207E0,-1.070573730E0,9.801459815E0
5.874027792E0,-9.032217407E-1,-9.671687622E0,-1.012644196E0,9.766411789E0
5.884082792E0,-9.276210022E-1,-9.652826843E0,-9.783654785E-1,9.746524806E0
5.894138792E0,-9.346563721E-1,-9.657467194E0,-9.342073059E-1,9.747461127E0
5.904193792E0,-9.030720520E-1,-9.663155365E0,-9.131011963E-1,9.748121077E0
5.914248792E0,-8.518785095E-1,-9.667346649E0,-9.201365662E-1,9.748330089E0
5.924304792E0,-7.946974182E-1,-9.674082642E0,-9.391470337E-1,9.751995493E0
5.934359792E0,-7.647596741E-1,-9.685908051E0,-9.424401855E-1,9.761652812E0
5.944415792E0,-7.282356262E-1,-9.696535950E0,-9.455836487E-1,9.769711612E0
5.954470792E0,-7.300318909E-1,-9.729467468E0,-9.539662170E-1,9.803343069E0
5.964525792E0,-7.650590515E-1,-9.755064240E0,-9.580078125E-1,9.831804140E0
5.974581792E0,-7.981402588E-1,-9.783056030E0,-9.764195251E-1,9.864005690E0
5.984636792E0,-7.840695190E-1,-9.781708832E0,-9.909393311E-1,9.862989072E0
5.994692792E0,-7.553292847E-1,-9.791139221E0,-9.699829102E-1,9.868018870E0
6.004747792E0,-7.381150818E-1,-9.801168365E0,-9.424401855E-1,9.874001656E0
6.014803792E0,-7.345225525E-1,-9.793534241E0,-9.252259827E-1,9.864526315E0
6.024858792E0,-7.089257812E-1,-9.773026886E0,-9.228309631E-1,9.842065193E0
6.034913792E0,-6.854246521E-1,-9.769733734E0,-9.373507690E-1,9.838502460E0
6.044969792E0,-6.685098267E-1,-9.765692139E0,-9.654922485E-1,9.836047154E0
6.055024792E0,-6.441105652E-1,-9.758207703E0,-9.892927551E-1,9.829353801E0
6.065080792E0,-5.972579956E-1,-9.732760620E0,-1.005758514E0,9.802800446E0
6.075135792E0,-5.403762817E-1,-9.702523499E0,-1.020128632E0,9.770958560E0
6.085191792E0,-5.245092773E-1,-9.707014160E0,-9.873468018E-1,9.771186601E0
6.095246792E0,-5.140310669E-1,-9.709708557E0,-9.496252441E-1,9.769567867E0
6.105301792E0,-5.423222351E-1,-9.718540192E0,-9.186396790E-1,9.776913405E0
6.115357792E0,-5.960604858E-1,-9.701325989E0,-9.014254761E-1,9.761330951E0
6.125412792E0,-6.423143005E-1,-9.671837311E0,-8.979826355E-1,9.734648296E0
6.135468792E0,-6.896159363E-1,-9.639803925E0,-9.159452820E-1,9.707746680E0
6.145523792E0,-7.322772217E-1,-9.616302795E0,-9.503736877E-1,9.690857523E0
6.155579792E0,-7.704478455E-1,-9.588311005E0,-9.836045837E-1,9.669373081E0
6.165634792E0,-8.223898315E-1,-9.577383728E0,-1.000818787E0,9.664587024E0
6.175689792E0,-8.493338013E-1,-9.587861938E0,-1.003812561E0,9.677608388E0
6.185745792E0,-8.825646973E-1,-9.596693573E0,-1.007255402E0,9.689685827E0
6.195800792E0,-9.044192505E-1,-9.626781006E0,-1.009650421E0,9.721742678E0
6.205856792E0,-9.087602234E-1,-9.675429840E0,-1.029409332E0,9.772383093E0
6.215911792E0,-8.937913513E-1,-9.720785522E0,-1.037043457E0,9.816720088E0
6.225967792E0,-8.723858643E-1,-9.762398987E0,-1.057999878E0,9.858237916E0
6.236022792E0,-8.690927124E-1,-9.803862762E0,-1.059646454E0,9.899186725E0
6.246077792E0,-8.789721680E-1,-9.831106110E0,-1.067130890E0,9.927840034E0
6.256133792E0,-9.015751648E-1,-9.856253815E0,-1.073717194E0,9.955473150E0
6.266188792E0,-9.303153992E-1,-9.833650818E0,-1.098715210E0,9.938478267E0
6.276244792E0,-9.367520142E-1,-9.798324280E0,-1.108444977E0,9.905216469E0
6.286299792E0,-9.126521301E-1,-9.780361633E0,-1.094374237E0,9.883625982E0
6.296354792E0,-8.702902222E-1,-9.755213928E0,-1.066532135E0,9.851857421E0
6.306410792E0,-8.301736450E-1,-9.718989258E0,-1.039737854E0,9.809637877E0
6.316465792E0,-7.920030212E-1,-9.718091125E0,-1.001866608E0,9.801647852E0
6.326521792E0,-7.569758606E-1,-9.731712799E0,-9.780661011E-1,9.809987755E0
6.336576792E0,-7.337741089E-1,-9.751621399E0,-9.675878906E-1,9.826941064E0
6.346632792E0,-7.098239136E-1,-9.767787781E0,-9.478289795E-1,9.839304238E0
6.356687792E0,-6.927593994E-1,-9.767338715E0,-9.797126770E-1,9.840765117E0
6.366742792E0,-6.839277649E-1,-9.758656769E0,-9.960287476E-1,9.833168990E0
6.376798792E0,-6.798861694E-1,-9.747280426E0,-1.011895752E0,9.823220140E0
6.386853792E0,-6.982978821E-1,-9.724677429E0,-1.026864624E0,9.803643302E0
6.396909792E0,-7.147636414E-1,-9.705816650E0,-1.023870850E0,9.785809902E0
6.406964792E0,-7.441026306E-1,-9.680519257E0,-9.991722107E-1,9.760352807E0
6.417020792E0,-7.729925537E-1,-9.655371552E0,-9.827064514E-1,9.735986301E0
6.427075792E0,-8.024812317E-1,-9.656718750E0,-9.696835327E-1,9.738402297E0
6.437130792E0,-8.295748901E-1,-9.660610657E0,-9.683363342E-1,9.744396750E0
6.447186792E0,-8.205935669E-1,-9.665550385E0,-9.584568787E-1,9.747557521E0
6.457241792E0,-8.065228271E-1,-9.689799957E0,-9.470805359E-1,9.769322588E0
6.467298000E0,-8.060737610E-1,-9.710457001E0,-9.638456726E-1,9.791410958E0
6.477353000E0,-8.018824768E-1,-9.713899841E0,-9.898915100E-1,9.797078689E0
6.487409000E0,-7.970924377E-1,-9.721983032E0,-1.003962250E0,9.806133317E0
6.497464000E0,-8.054750061E-1,-9.731263733E0,-1.015488281E0,9.817204300E0
6.507519000E0,-8.081694031E-1,-9.727072449E0,-1.009949799E0,9.812699669E0
6.517575000E0,-8.196954346E-1,-9.728719025E0,-1.016087036E0,9.815921115E0
6.527630000E0,-8.267308044E-1,-9.740843811E0,-1.003363495E0,9.827220374E0
6.537686000E0,-8.247848511E-1,-9.741741943E0,-1.009650421E0,9.828590953E0
6.547741000E0,-8.231382751E-1,-9.740245056E0,-1.003812561E0,9.826371153E0
6.557797000E0,-7.975415039E-1,-9.739945679E0,-1.004111938E0,9.823993845E0
6.567852000E0,-7.527845764E-1,-9.715546417E0,-1.013093262E0,9.797187594E0
6.577907000E0,-7.286846924E-1,-9.710157623E0,-9.952803040E-1,9.788193160E0
6.587963000E0,-7.268884277E-1,-9.733658752E0,-9.645941162E-1,9.808308789E0
6.598018000E0,-7.373666382E-1,-9.773625641E0,-9.482780457E-1,9.847167053E0
6.608074000E0,-7.649093628E-1,-9.793833618E0,-9.454339600E-1,9.869048011E0
6.618129000E0,-7.849676514E-1,-9.782008209E0,-9.526190186E-1,9.859581219E0
6.628185000E0,-7.810757446E-1,-9.762249298E0,-9.867480469E-1,9.843031158E0
6.638240000E0,-7.677534485E-1,-9.735305328E0,-1.002016296E0,9.816804564E0
6.648295000E0,-7.598199463E-1,-9.727970581E0,-1.009650421E0,9.809695813E0
6.658351000E0,-7.523355103E-1,-9.718540192E0,-1.016087036E0,9.800431880E0
6.668406000E0,-7.689509583E-1,-9.717642059E0,-1.010847931E0,9.800289093E0
6.678462000E0,-7.911048889E-1,-9.704170074E0,-9.867480469E-1,9.786237044E0
6.688517000E0,-7.888595581E-1,-9.700128479E0,-9.836045837E-1,9.781731436E0
6.698573000E0,-7.758366394E-1,-9.690249023E0,-9.593550110E-1,9.768480469E0
6.708628000E0,-7.692503357E-1,-9.680369568E0,-9.472302246E-1,9.756974231E0
6.718683000E0,-7.698490906E-1,-9.675280151E0,-9.419911194E-1,9.751464551E0
6.728739000E0,-7.744894409E-1,-9.677076416E0,-9.213340759E-1,9.751640802E0
6.738794000E0,-7.650590515E-1,-9.702224121E0,-9.222322083E-1,9.775938855E0
6.748850000E0,-7.611671448E-1,-9.714199219E0,-9.376501465E-1,9.788985120E0
6.758905000E0,-7.421566772E-1,-9.730814667E0,-9.463320923E-1,9.804850587E0
6.768961000E0,-7.093748474E-1,-9.738299103E0,-9.861492920E-1,9.813774631E0
6.779016000E0,-6.884184265E-1,-9.724677429E0,-1.018931122E0,9.802116693E0
6.789071000E0,-6.914122009E-1,-9.722731476E0,-1.016685791E0,9.800163681E0
6.799127000E0,-7.099736023E-1,-9.720037079E0,-9.867480469E-1,9.795756992E0
6.809182000E0,-7.421566772E-1,-9.724378052E0,-9.707313538E-1,9.800849167E0
6.819238000E0,-7.743397522E-1,-9.732012177E0,-9.502239990E-1,9.808903542E0
6.829293000E0,-8.063731384E-1,-9.719438324E0,-9.366023254E-1,9.797700898E0
6.839349000E0,-8.259823608E-1,-9.707912292E0,-9.237290955E-1,9.786678874E0
6.849404000E0,-8.463400269E-1,-9.693991241E0,-9.051676941E-1,9.772875021E0
6.859459000E0,-8.744815063E-1,-9.690698090E0,-9.202862549E-1,9.773498563E0
6.869515000E0,-8.749305725E-1,-9.704469452E0,-9.306147766E-1,9.788170141E0
6.879570000E0,-8.852590942E-1,-9.715995483E0,-9.524693298E-1,9.802624634E0
6.889626000E0,-8.533753967E-1,-9.735904083E0,-9.759704590E-1,9.821842812E0
6.899681000E0,-8.280780029E-1,-9.754764862E0,-9.816586304E-1,9.838943254E0
6.909737000E0,-8.020321655E-1,-9.758058014E0,-9.803114319E-1,9.839916783E0
6.919792000E0,-7.795788574E-1,-9.737400970E0,-9.716294861E-1,9.816760398E0
6.929847000E0,-7.767347717E-1,-9.710007935E0,-9.677375793E-1,9.788977833E0
6.939903000E0,-7.780819702E-1,-9.688153381E0,-9.491761780E-1,9.765585641E0
6.949958000E0,-7.665559387E-1,-9.690548401E0,-9.277706909E-1,9.764993332E0
6.960014000E0,-7.574249268E-1,-9.704020386E0,-9.169931030E-1,9.776634417E0
6.970069000E0,-7.262896729E-1,-9.715995483E0,-9.246272278E-1,9.786878993E0
6.980125000E0,-6.988966370E-1,-9.741891632E0,-9.157955933E-1,9.809770163E0
6.990180000E0,-6.798861694E-1,-9.750124512E0,-9.291178894E-1,9.817862968E0
7.000235000E0,-6.623725891E-1,-9.740993500E0,-9.509724426E-1,9.809691147E0
7.010291000E0,-6.348298645E-1,-9.745184784E0,-9.708810425E-1,9.813982139E0
7.020346000E0,-6.146218872E-1,-9.722132721E0,-9.792636108E-1,9.790637463E0
7.030402000E0,-6.273454285E-1,-9.710906067E0,-9.865983582E-1,9.781034467E0
7.040457000E0,-6.491999817E-1,-9.702373810E0,-1.001866608E0,9.775543712E0
7.050513000E0,-6.941065979E-1,-9.667047272E0,-9.918374634E-1,9.742552462E0
7.060568000E0,-7.485932922E-1,-9.634415131E0,-9.660910034E-1,9.711625953E0
7.070623000E0,-8.138575745E-1,-9.632319489E0,-9.505233765E-1,9.713260913E0
7.080679000E0,-8.774752808E-1,-9.659263458E0,-9.348060608E-1,9.743982543E0
7.090734000E0,-9.322613525E-1,-9.703271942E0,-9.168434143E-1,9.790975409E0
7.100790000E0,-9.840536499E-1,-9.727222137E0,-9.229806519E-1,9.820341409E0
7.110845000E0,-1.017883301E0,-9.756561127E0,-9.521699524E-1,9.855617639E0
7.120901000E0,-1.043779449E0,-9.775870972E0,-9.815089417E-1,9.880308123E0
7.130956000E0,-1.038390656E0,-9.762249298E0,-9.865983582E-1,9.866769625E0
7.141011000E0,-9.882449341E-1,-9.752818909E0,-9.889933777E-1,9.852523160E0
7.151067000E0,-9.470805359E-1,-9.738448792E0,-9.904902649E-1,9.834399696E0
7.161122000E0,-9.177415466E-1,-9.742490387E0,-9.729766846E-1,9.833872692E0
7.171178000E0,-8.788224792E-1,-9.741442566E0,-9.786648560E-1,9.829843189E0
7.181233000E0,-8.557704163E-1,-9.745184784E0,-9.556127930E-1,9.829250495E0
7.191289000E0,-8.321195984E-1,-9.744586029E0,-9.406439209E-1,9.825181469E0
7.201344000E0,-8.018824768E-1,-9.735005951E0,-9.289682007E-1,9.812050667E0
7.211399000E0,-7.581733704E-1,-9.728120270E0,-9.089099121E-1,9.799860615E0
7.221455000E0,-7.180567932E-1,-9.722581787E0,-8.803193665E-1,9.788726391E0
7.231510000E0,-6.804849243E-1,-9.716594238E0,-8.940907288E-1,9.781342523E0
7.241566000E0,-6.619235229E-1,-9.721983032E0,-8.882528687E-1,9.784890903E0
7.251621000E0,-6.691085815E-1,-9.739496613E0,-9.011260986E-1,9.803954753E0
7.261677000E0,-6.472540283E-1,-9.758806458E0,-9.476792908E-1,9.826054004E0
7.271732000E0,-6.566844177E-1,-9.758058014E0,-9.630972290E-1,9.827435418E0
7.281787000E0,-6.652166748E-1,-9.756411438E0,-9.586065674E-1,9.825935270E0
7.291843000E0,-6.858737183E-1,-9.740544434E0,-9.499246216E-1,9.810758656E0
7.301898000E0,-7.197033691E-1,-9.715995483E0,-9.099577332E-1,9.785017335E0
7.311954000E0,-7.734416199E-1,-9.688602448E0,-9.003776550E-1,9.761040377E0
7.322009000E0,-8.059240723E-1,-9.671837311E0,-8.913963318E-1,9.746206339E0
7.332065000E0,-8.307723999E-1,-9.660610657E0,-9.024732971E-1,9.738174320E0
7.342120000E0,-8.385562134E-1,-9.656718750E0,-8.994795227E-1,9.734703742E0
7.352176000E0,-8.508306885E-1,-9.675579529E0,-9.084608459E-1,9.755308974E0
7.362231000E0,-8.428971863E-1,-9.693991241E0,-9.027726746E-1,9.772355927E0
7.372286000E0,-8.122109985E-1,-9.717941437E0,-9.012757874E-1,9.793384018E0
7.382342000E0,-7.991880798E-1,-9.747130737E0,-8.918453979E-1,9.820419920E0
7.392397000E0,-7.750881958E-1,-9.766440582E0,-9.060658264E-1,9.838957193E0
7.402453000E0,-7.652087402E-1,-9.773775330E0,-9.282197571E-1,9.847528651E0
7.412508000E0,-7.565267944E-1,-9.775721283E0,-9.517208862E-1,9.851032029E0
7.422564000E0,-7.569758606E-1,-9.764344940E0,-9.689350891E-1,9.841457198E0
7.432619000E0,-7.649093628E-1,-9.746981049E0,-9.840536499E-1,9.826346599E0
7.442674000E0,-7.491920471E-1,-9.732311554E0,-9.704319763E-1,9.809226021E0
7.452730000E0,-7.370672607E-1,-9.719138947E0,-9.554631042E-1,9.793765351E0
7.462785000E0,-7.415579224E-1,-9.707762604E0,-9.313632202E-1,9.780490804E0
7.472840625E0,-7.360194397E-1,-9.690698090E0,-9.195378113E-1,9.762013310E0
7.482895625E0,-7.572752380E-1,-9.699230347E0,-9.075627136E-1,9.770987933E0
7.492951625E0,-7.837701416E-1,-9.699529724E0,-9.005273438E-1,9.772723367E0
7.503006625E0,-7.891589355E-1,-9.710606689E0,-9.214837646E-1,9.786101697E0
7.513061625E0,-7.819738770E-1,-9.721084900E0,-9.282197571E-1,9.796558921E0
7.523117625E0,-7.909552002E-1,-9.732910309E0,-9.499246216E-1,9.811091173E0
7.533172625E0,-7.885601807E-1,-9.736203461E0,-9.791139221E-1,9.817033618E0
7.543228625E0,-7.828720093E-1,-9.741592255E0,-9.915380859E-1,9.823169347E0
7.553283625E0,-7.788304138E-1,-9.747130737E0,-9.804611206E-1,9.827229438E0
7.563339625E0,-7.626640320E-1,-9.725425873E0,-9.830058289E-1,9.804685884E0
7.573394625E0,-7.450007629E-1,-9.702523499E0,-9.701325989E-1,9.779322351E0
7.583449625E0,-7.382647705E-1,-9.697134705E0,-9.425898743E-1,9.770769265E0
7.593505625E0,-7.548802185E-1,-9.721683655E0,-9.168434143E-1,9.793956252E0
7.603560625E0,-7.870632935E-1,-9.744286652E0,-9.039701843E-1,9.817726472E0
7.613616625E0,-7.857160950E-1,-9.760303345E0,-9.002279663E-1,9.833172507E0
7.623671625E0,-7.779322815E-1,-9.746981049E0,-9.151968384E-1,9.820712981E0
7.633727625E0,-7.553292847E-1,-9.711654510E0,-9.226812744E-1,9.784584631E0
7.643782625E0,-7.378157043E-1,-9.679920502E0,-9.192384338E-1,9.751422062E0
7.653838625E0,-7.113208008E-1,-9.647587738E0,-9.373507690E-1,9.719081896E0
7.663893625E0,-7.108717346E-1,-9.644593964E0,-9.526190186E-1,9.717562160E0
7.673948625E0,-7.298822021E-1,-9.628876648E0,-9.659413147E-1,9.704691451E0
7.684004625E0,-7.646099854E-1,-9.613907776E0,-9.699829102E-1,9.692921025E0
7.694059625E0,-7.863148499E-1,-9.625733185E0,-9.786648560E-1,9.707255806E0
7.704115625E0,-7.858657837E-1,-9.641749878E0,-9.693841553E-1,9.722172153E0
7.714170625E0,-7.524851990E-1,-9.682614899E0,-9.894424438E-1,9.762082852E0
7.724226625E0,-7.170089722E-1,-9.719588013E0,-1.006956024E0,9.797880048E0
7.734281625E0,-7.033872986E-1,-9.682764587E0,-1.009949799E0,9.760670179E0
7.744336625E0,-7.186555481E-1,-9.644444275E0,-1.005309448E0,9.723292562E0
7.754392625E0,-7.571255493E-1,-9.608518982E0,-1.013991394E0,9.691493934E0
7.764447625E0,-8.026309204E-1,-9.605076141E0,-1.025068359E0,9.692908192E0
7.774503625E0,-8.443940735E-1,-9.635163574E0,-1.037642212E0,9.727593732E0
7.784558625E0,-8.839118958E-1,-9.671088867E0,-1.055754547E0,9.768616984E0
7.794614625E0,-8.767268372E-1,-9.784552917E0,-1.077908478E0,9.882712807E0
7.804669625E0,-8.580157471E-1,-9.827363892E0,-1.064586182E0,9.922026800E0
7.814725625E0,-8.226892090E-1,-9.869426422E0,-1.057251434E0,9.959928515E0
7.824780625E0,-7.776329041E-1,-9.900411987E0,-1.032552795E0,9.984439680E0
7.834835625E0,-7.108717346E-1,-9.877210236E0,-1.035247192E0,9.956724231E0
7.844891625E0,-6.580316162E-1,-9.764494629E0,-1.042881317E0,9.842050722E0
7.854946625E0,-6.271957397E-1,-9.618697815E0,-1.033750305E0,9.694398478E0
7.865002625E0,-5.978567505E-1,-9.479636993E0,-1.001267853E0,9.551098761E0
7.875057625E0,-5.806425476E-1,-9.387877808E0,-9.604028320E-1,9.454722053E0
7.885113625E0,-5.740562439E-1,-9.326206055E0,-8.500822449E-1,9.382446364E0
7.895168625E0,-6.509962463E-1,-9.293124847E0,-6.996450806E-1,9.342134059E0
7.905223625E0,-7.680528259E-1,-9.300609283E0,-5.658233643E-1,9.349406092E0
7.915279625E0,-8.557704163E-1,-9.348210297E0,-4.662803650E-1,9.398872067E0
7.925334625E0,-9.053173828E-1,-9.407487030E0,-4.463717651E-1,9.461482946E0
7.935390625E0,-9.550140381E-1,-9.492659912E0,-5.059478760E-1,9.553984890E0
7.945445625E0,-9.880952454E-1,-9.563462677E0,-6.213578796E-1,9.634429729E0
7.955501625E0,-9.828561401E-1,-9.622889099E0,-7.482939148E-1,9.701852637E0
7.965556625E0,-9.657916260E-1,-9.678872681E0,-8.765771484E-1,9.766356400E0
7.975611625E0,-9.550140381E-1,-9.729916534E0,-9.831555176E-1,9.825982004E0
7.985667625E0,-9.596543884E-1,-9.772877197E0,-1.026714935E0,9.873409179E0
7.995722625E0,-9.331594849E-1,-9.781708832E0,-1.046473846E0,9.881686182E0
8.005778625E0,-8.984317017E-1,-9.754465485E0,-1.040037231E0,9.850809807E0
8.015833625E0,-8.529263306E-1,-9.708511047E0,-1.007255402E0,9.797817794E0
8.025889625E0,-8.041278076E-1,-9.630074158E0,-9.449848938E-1,9.709683119E0
8.035944625E0,-7.870632935E-1,-9.559421082E0,-8.791218567E-1,9.631970478E0
8.046000625E0,-7.882608032E-1,-9.512269135E0,-8.222401428E-1,9.580224321E0
8.056055625E0,-8.077203369E-1,-9.490115204E0,-7.420069885E-1,9.553285984E0
8.066110625E0,-8.250842285E-1,-9.476343842E0,-6.568341064E-1,9.534845968E0
8.076166625E0,-8.265811157E-1,-9.442364502E0,-5.945635986E-1,9.497104275E0
8.086221625E0,-8.381071472E-1,-9.428593140E0,-5.523513794E-1,9.481871346E0
8.096277625E0,-8.463400269E-1,-9.427245941E0,-5.596861267E-1,9.481693205E0
8.106332625E0,-8.933422852E-1,-9.437873840E0,-5.834866333E-1,9.497998722E0
8.116388625E0,-9.298663330E-1,-9.458081818E0,-5.915698242E-1,9.522075295E0
8.126443625E0,-9.868977356E-1,-9.502239990E0,-5.599855042E-1,9.569750035E0
8.136498625E0,-1.079854431E0,-9.552685089E0,-5.322930908E-1,9.628250824E0
8.146554625E0,-1.167871399E0,-9.554930420E0,-5.477110291E-1,9.641608077E0
8.156609625E0,-1.245260468E0,-9.535919952E0,-5.812413025E-1,9.634432231E0
8.166665625E0,-1.288520508E0,-9.546398163E0,-6.837780762E-1,9.657202257E0
8.176720625E0,-1.295705566E0,-9.541608124E0,-7.942483521E-1,9.661882267E0
8.186776625E0,-1.227297821E0,-9.561965790E0,-8.840615845E-1,9.680858154E0
8.196831625E0,-1.079105988E0,-9.572893066E0,-9.291178894E-1,9.678223569E0
8.206887625E0,-9.035211182E-1,-9.559570770E0,-9.172924805E-1,9.645888721E0
8.216942625E0,-7.400610352E-1,-9.573791199E0,-8.747808838E-1,9.642116461E0
8.226997625E0,-5.794450378E-1,-9.627529449E0,-8.632548523E-1,9.683506018E0
8.237053625E0,-4.369413757E-1,-9.717941437E0,-8.946894836E-1,9.768816346E0
8.247108625E0,-3.442840576E-1,-9.817634125E0,-9.632469177E-1,9.870780919E0
8.257164625E0,-2.893482971E-1,-9.898615723E0,-1.051563263E0,9.958519014E0
8.267219625E0,-2.633024597E-1,-9.948162689E0,-1.092278595E0,1.001141057E1
8.277275625E0,-2.665956116E-1,-1.001911514E1,-1.116079102E0,1.008461075E1
8.287330625E0,-3.664379883E-1,-1.010773087E1,-1.252146149E0,1.019158329E1
8.297385625E0,-5.264552307E-1,-1.023152344E1,-1.478026428E0,1.035112502E1
8.307441625E0,-5.914201355E-1,-1.033301239E1,-1.732048187E0,1.049385124E1
8.317496625E0,-5.337899780E-1,-1.037267990E1,-1.851649475E0,1.055016710E1
8.327552625E0,-4.824467468E-1,-1.034843033E1,-1.739382935E0,1.050467601E1
8.337607625E0,-4.824467468E-1,-1.034543655E1,-1.626517639E0,1.048362399E1
8.347663625E0,-5.706134033E-1,-1.049871780E1,-1.687740326E0,1.064880944E1
8.357718625E0,-7.640112305E-1,-1.075752960E1,-1.894460449E0,1.094975510E1
8.367774625E0,-8.710386658E-1,-1.096020813E1,-2.009870453E0,1.117696067E1
8.377829625E0,-9.101074219E-1,-1.098790054E1,-1.913321228E0,1.119031063E1
8.387884625E0,-1.015488281E0,-1.088072342E1,-1.627266083E0,1.104850006E1
8.397940625E0,-1.270408173E0,-1.081022003E1,-1.327738953E0,1.096529456E1
8.407995625E0,-1.578168182E0,-1.089988358E1,-1.172062683E0,1.107573057E1
8.418051625E0,-1.832040253E0,-1.113459549E1,-1.145118713E0,1.134226102E1
8.428106625E0,-1.893262939E0,-1.145103745E1,-1.204545135E0,1.166883165E1
8.438162625E0,-1.703457642E0,-1.172182434E1,-1.331630859E0,1.191957107E1
8.448217625E0,-1.315165100E0,-1.195653625E1,-1.543590088E0,1.212728695E1
8.458273625E0,-6.914122009E-1,-1.201790863E1,-1.702559509E0,1.215758560E1
8.468329417E0,-4.984634399E-2,-1.192809540E1,-1.609453125E0,1.203629029E1
8.478384417E0,3.379971313E-1,-1.182002014E1,-1.302291870E0,1.189634744E1
8.488440417E0,6.547384644E-1,-1.166943329E1,-9.473799133E-1,1.172611975E1
8.498495417E0,8.666976929E-1,-1.135838013E1,-4.703219604E-1,1.140110375E1
8.508551417E0,9.523196411E-1,-1.089913513E1,-2.395019531E-3,1.094066109E1
8.518606417E0,8.925938416E-1,-1.043225601E1,3.977229309E-1,1.047792311E1
8.528662417E0,9.604028320E-1,-9.822723541E0,7.307803345E-1,9.896580787E0
8.538717417E0,1.028211823E0,-9.290280762E0,9.768685913E-1,9.397915111E0
8.548773417E0,1.078207855E0,-8.817863159E0,1.292262726E0,8.977036584E0
8.558828417E0,1.359472961E0,-8.354875946E0,1.667831726E0,8.627501462E0
8.568883417E0,1.809886322E0,-8.161478119E0,2.034718781E0,8.603806954E0
8.578939417E0,2.299817505E0,-8.167166290E0,2.413431244E0,8.821361354E0
8.588994417E0,2.645448761E0,-8.239316254E0,2.823278961E0,9.102507103E0
8.599050417E0,2.981649628E0,-8.359815674E0,3.164718933E0,9.422961240E0
8.609105417E0,3.258873138E0,-8.457412720E0,3.277284851E0,9.637877362E0
8.619161417E0,3.751798096E0,-8.623567200E0,2.974913635E0,9.863671291E0
8.629216417E0,4.116589508E0,-8.937015381E0,2.470163269E0,1.014486371E1
8.639271417E0,4.063450012E0,-9.224567413E0,1.854343872E0,1.024904196E1
8.649327417E0,3.409609680E0,-9.399553528E0,1.163081360E0,1.006627056E1
8.659382417E0,2.107018433E0,-9.599387970E0,4.781057739E-1,9.839530538E0
8.669438417E0,6.783892822E-1,-9.571545868E0,7.170089722E-2,9.595824266E0
8.679493417E0,-3.755690002E-1,-9.522897034E0,-1.392105103E-2,9.530310267E0
8.689549417E0,-9.967771912E-1,-9.468560028E0,8.337661743E-2,9.521247052E0
8.699604417E0,-1.232536926E0,-9.047186279E0,8.756790161E-2,9.131177086E0
8.709660417E0,-1.045276337E0,-8.219407654E0,-7.259902954E-2,8.285923933E0
8.719715417E0,-6.571334839E-1,-7.166197815E0,-7.304809570E-2,7.196634739E0
8.729771417E0,-4.076023865E-1,-6.397546234E0,-7.499404907E-2,6.410956374E0
8.739826417E0,-4.107458496E-1,-5.855972443E0,2.903961182E-2,5.870431730E0
8.749881417E0,-5.367837524E-1,-5.407654724E0,3.155438232E-1,5.443384454E0
8.759937417E0,-4.944218445E-1,-4.963677979E0,5.554948425E-1,5.019076265E0
8.769992417E0,-5.164260864E-1,-4.749024353E0,7.206015015E-1,4.831065590E0
8.780048417E0,-7.140151978E-1,-4.809348907E0,8.689430237E-1,4.939100788E0
8.790103417E0,-1.084195404E0,-5.113815765E0,9.113049316E-1,5.306323401E0
8.800159417E0,-1.440604248E0,-5.677543488E0,7.689509583E-1,5.907717514E0
8.810214417E0,-1.753753052E0,-6.504124603E0,3.701802063E-1,6.746578393E0
8.820270417E0,-1.997895355E0,-7.383994904E0,-3.643423462E-1,7.658179414E0
8.830325417E0,-2.019001465E0,-8.185128937E0,-1.042581940E0,8.494685381E0
8.840380417E0,-1.583407288E0,-9.115893402E0,-1.052910461E0,9.312105648E0
8.850436417E0,-5.881269836E-1,-1.022942780E1,-1.845661926E-1,1.024798278E1
8.860491417E0,2.170486450E-2,-1.153156998E1,1.089434509E0,1.158293766E1
8.870547417E0,-2.188449097E-1,-1.313338898E1,2.151326294E0,1.331022178E1
8.880602417E0,-1.033450928E0,-1.510823227E1,2.793341217E0,1.539900835E1
8.890658417E0,-1.735041962E0,-1.786609726E1,3.586841125E0,1.830500563E1
8.900713417E0,-2.094594269E0,-2.181264038E1,4.301006012E0,2.233108278E1
8.910769417E0,-1.779798889E0,-2.606215347E1,4.094884644E0,2.644185334E1
8.920824417E0,-7.873626709E-1,-2.914169952E1,2.259850616E0,2.923979336E1
8.930879417E0,8.128097534E-1,-2.931503906E1,-1.030457153E0,2.934440350E1
8.940935417E0,3.031046906E0,-2.607068573E1,-3.857927399E0,2.652831513E1
8.950990417E0,4.679269409E0,-2.226604752E1,-4.226910095E0,2.314171997E1
8.961046417E0,4.150269470E0,-2.011247589E1,-2.518063660E0,2.069002339E1
8.971101417E0,2.875520325E0,-1.841665237E1,-3.106040955E-1,1.864237583E1
8.981157417E0,1.812730408E0,-1.672157730E1,9.961784363E-1,1.684902105E1
8.991212417E0,6.468049622E-1,-1.501961655E1,9.910890198E-1,1.506617056E1
9.001268417E0,-4.921765137E-1,-1.292217819E1,2.730322266E-1,1.293442977E1
9.011323417E0,-1.354383545E0,-1.082967957E1,-1.648072815E-1,1.091528633E1
9.021378417E0,-1.766476593E0,-8.786727905E0,-3.827540588E-1,8.970703847E0
9.031434417E0,-1.722318420E0,-6.541995850E0,-4.987628174E-1,6.783277584E0
9.041489417E0,-1.269360352E0,-4.383484497E0,-3.275189209E-1,4.575312086E0
9.051545417E0,-8.015830994E-1,-2.366728363E0,-3.472778320E-2,2.499028737E0
9.061600417E0,-4.257147217E-1,-5.864804077E-1,1.775308228E-1,7.461296710E-1
9.071656417E0,-1.246907043E-1,1.015937347E0,3.977229309E-1,1.098116567E0
9.081711417E0,9.011260986E-2,2.533182220E0,5.086422729E-1,2.585314179E0
9.091767417E0,2.215393066E-1,3.606300659E0,6.001020813E-1,3.662595612E0
9.101822417E0,2.562670898E-1,4.171076202E0,5.547463989E-1,4.215601152E0
9.111877417E0,4.047583008E-1,4.354893951E0,5.816903687E-1,4.412175687E0
9.121933417E0,5.137316895E-1,4.432732086E0,6.415658569E-1,4.508285788E0
9.131988417E0,5.056484985E-1,4.525688782E0,8.411009216E-1,4.630873580E0
9.142044417E0,4.995112610E-1,4.545148315E0,8.243357849E-1,4.646225801E0
9.152099417E0,3.787124634E-1,4.410727844E0,4.839436340E-1,4.453329618E0
9.162155417E0,1.889071655E-1,4.175866241E0,-3.083587646E-2,4.180250667E0
9.172210417E0,3.637435913E-2,4.005819855E0,-6.346801758E-1,4.055950533E0
9.182266417E0,2.218386841E-1,3.630699921E0,-1.131047974E0,3.809260274E0
9.192321417E0,4.469705200E-1,1.550026703E0,-1.250798950E0,2.041289651E0
9.202376417E0,4.068539429E-1,-8.216413879E-1,-8.315208435E-1,1.237760726E0
9.212432417E0,7.587721252E-1,-2.192490692E0,-3.100053406E-1,2.340695171E0
9.222487417E0,9.958790588E-1,-3.182382202E0,3.076103210E-1,3.348724487E0
9.232543417E0,8.473878479E-1,-4.102369080E0,1.280736694E0,4.380386365E0
9.242598417E0,7.152127075E-1,-4.881947937E0,2.661914520E0,5.606311960E0
9.252654417E0,7.077282715E-1,-5.301525421E0,3.650907898E0,6.475814974E0
9.262709417E0,6.348298645E-1,-5.993985443E0,4.382736053E0,7.452465751E0
9.272765417E0,9.196875000E-1,-1.230171844E1,5.287454681E0,1.342144846E1
9.282820417E0,1.846859436E0,-4.754652649E1,1.045396088E1,4.871722867E1
9.292875417E0,-3.750899963E0,-7.775161469E1,1.354578140E1,7.901184108E1
9.302931417E0,-5.867199097E0,-7.244290421E1,-1.337468719E0,7.269241513E1
9.312986417E0,-3.655398560E0,-4.431938736E1,-1.693967377E1,4.758700014E1
9.323042417E0,-2.159708862E0,-2.654025925E1,-1.453806793E1,3.033817929E1
9.333097417E0,-2.123334503E0,-2.026545776E1,-6.997049561E0,2.154428069E1
9.343153417E0,-2.255659332E0,-1.757615021E1,-2.496209106E0,1.789525398E1
9.353208417E0,-7.249424744E-1,-1.640872787E1,1.965412903E-1,1.642591004E1
9.363264417E0,1.292113037E0,-1.501377869E1,2.331401825E0,1.524855865E1
9.373319417E0,1.859433289E0,-1.316886520E1,4.030069427E0,1.389668890E1
9.383374417E0,1.317260742E0,-1.060170364E1,4.627776489E0,1.164249163E1
9.393430417E0,7.679031372E-1,-7.806865540E0,4.670587463E0,9.129688496E0
9.403485417E0,3.257226562E-1,-5.377267914E0,3.813469849E0,6.600277097E0
9.413541417E0,-3.387455750E-1,-3.281027069E0,2.787353668E0,4.318475155E0
9.423596417E0,-7.939489746E-1,-1.217268677E0,1.745370483E0,2.271214682E0
9.433652417E0,-6.249504089E-1,7.596702576E-1,8.024812317E-1,1.269503069E0
9.443707417E0,-3.764671326E-1,2.626288605E0,1.841171265E-2,2.653197755E0
9.453763417E0,-3.453318787E-1,3.893403625E0,-6.626719666E-1,3.964464659E0
9.463818417E0,-2.236349487E-1,4.660109253E0,-1.278790741E0,4.837554816E0
9.473873875E0,-1.043330383E-1,5.065615997E0,-1.323248291E0,5.236634115E0
9.483928875E0,-3.697311401E-2,5.046156464E0,-8.065228271E-1,5.110336695E0
9.493983875E0,-7.873626709E-2,4.981790314E0,-1.640588379E-1,4.985112780E0
9.504039875E0,-1.522334290E-1,4.915627899E0,4.772076416E-1,4.941082856E0
9.514094875E0,-3.460803223E-1,4.828658752E0,8.755293274E-1,4.919580118E0
9.524150875E0,-6.152206421E-1,4.729415131E0,1.139580231E0,4.903519860E0
9.534205875E0,-1.055455170E0,4.520299988E0,1.117426300E0,4.774488363E0
9.544261875E0,-1.878144379E0,3.918850708E0,9.159452820E-1,4.441145453E0
9.554316875E0,-2.582579498E0,1.760339355E0,7.631130981E-1,3.217274174E0
9.564372875E0,-2.123184814E0,-3.421884155E-1,6.348298645E-1,2.242323711E0
9.574427875E0,-7.520361328E-1,-1.461261292E0,6.159690857E-1,1.755067184E0
9.584482875E0,5.176235962E-1,-2.014660492E0,5.144801331E-1,2.142774111E0
9.594538875E0,1.291065216E0,-2.348915405E0,2.529739380E-1,2.692257192E0
9.604593875E0,1.993404694E0,-2.803370361E0,3.125500488E-1,3.454017254E0
9.614649875E0,2.130070496E0,-3.845802612E0,9.819580078E-1,4.504624244E0
9.624704875E0,1.455124054E0,-5.331163788E0,2.095941467E0,5.910301513E0
9.634760875E0,1.090931396E0,-6.621181183E0,2.715503082E0,7.239069592E0
9.644815875E0,9.601034546E-1,-8.866362305E0,3.345243530E0,9.524958448E0
9.654871875E0,2.498604126E0,-2.292916855E1,4.819378052E0,2.356302607E1
9.664926875E0,1.742825775E0,-6.085190781E1,1.074390793E1,6.181766481E1
9.674982875E0,-6.913972321E0,-7.887697449E1,1.060050613E1,7.988586138E1
9.685037875E0,-7.621251526E0,-6.172758682E1,-2.381248169E0,6.224185724E1
9.695092875E0,-4.267326050E0,-3.509377213E1,-1.098565521E1,3.701982623E1
9.705148875E0,-4.361779633E0,-2.454490860E1,-8.202792206E0,2.624430338E1
9.715203875E0,-4.758754120E0,-2.151011948E1,-3.466192017E0,2.230124364E1
9.725259875E0,-3.660487976E0,-2.050945038E1,2.646496582E-1,2.083522898E1
9.735314875E0,-1.305585022E0,-1.989482849E1,2.218386841E0,2.006065784E1
9.745370875E0,2.752775574E-1,-1.821621918E1,3.140918427E0,1.848707082E1
9.755425875E0,4.739144897E-1,-1.544593002E1,3.123704224E0,1.576575013E1
9.765481875E0,6.921606445E-1,-1.231953140E1,2.217039642E0,1.253655475E1
9.775536875E0,5.171745300E-1,-9.230255585E0,1.013991394E0,9.300175601E0
9.785591875E0,-8.592132568E-2,-6.459367676E0,-4.999603271E-2,6.460132572E0
9.795647875E0,-6.348298645E-1,-3.895499268E0,-5.126838684E-1,3.980046262E0
9.805702875E0,-7.943980408E-1,-1.526226196E0,-7.951464844E-1,1.895439944E0
9.815758875E0,-5.408253479E-1,6.758445740E-1,-1.025218048E0,1.341763761E0
9.825813875E0,-2.002835083E-1,2.702180786E0,-9.339079285E-1,2.866021372E0
9.835869875E0,-7.604187012E-2,4.270170135E0,-3.556604004E-1,4.285630604E0
9.845924875E0,7.080276489E-2,5.067262573E0,5.147795105E-1,5.093835585E0
9.855980875E0,2.393522644E-1,5.301525421E0,1.594035187E0,5.541155969E0
9.866035875E0,4.156855774E-1,5.332211609E0,2.445015564E0,5.880763237E0
9.876091875E0,6.084846497E-1,5.382956085E0,2.958447876E0,6.172429313E0
9.886146875E0,9.089099121E-1,5.383405151E0,2.989433441E0,6.224458254E0
9.896201875E0,1.277144165E0,5.450465698E0,2.623444519E0,6.182324376E0
9.906257875E0,1.722917175E0,5.520669708E0,2.155816956E0,6.172016232E0
9.916312875E0,2.058219910E0,5.362897797E0,1.571881256E0,5.955480892E0
9.926368875E0,2.385439453E0,4.955445099E0,8.545729065E-1,5.565703223E0
9.936423875E0,2.753823395E0,3.796704712E0,3.742218018E-3,4.690258411E0
9.946479875E0,2.043101349E0,1.223256226E0,-5.529501343E-1,2.444662097E0
9.956534875E0,9.484277344E-1,-9.800120544E-1,-4.637356567E-1,1.440482403E0
9.966590875E0,6.027964783E-1,-2.198927307E0,-2.318678284E-1,2.291813166E0
9.976645875E0,4.709207153E-1,-2.808908844E0,-3.787124634E-1,2.873179135E0
9.986701875E0,4.402345276E-1,-3.231180725E0,-4.818479919E-1,3.296439413E0
9.996756875E0,7.545808411E-1,-3.291355591E0,2.573149109E-1,3.386535816E0
1.000681188E1,9.554631042E-1,-3.453767853E0,1.409768372E0,3.850827052E0
1.001686788E1,5.767506409E-1,-4.185446320E0,2.173031158E0,4.751070049E0
1.002692288E1,2.335144043E-2,-4.865033112E0,2.784659271E0,5.605659615E0
1.003697887E1,-5.769003296E-1,-5.446424103E0,3.645818481E0,6.579387654E0
1.004703388E1,-1.235680389E0,-6.728657684E0,4.611759796E0,8.250458695E0
1.005708987E1,-2.151326294E0,-2.076796280E1,5.796096954E0,2.166866917E1
1.006714488E1,-6.624773712E0,-6.909212219E1,1.104627914E1,7.028249610E1
1.007720088E1,-1.343441299E1,-7.931541275E1,9.316176910E0,8.098277165E1
1.008725587E1,-4.865033112E0,-5.888634521E1,-6.701264648E0,5.946576450E1
1.009731088E1,7.640112305E-1,-3.241329620E1,-1.085901855E1,3.419245191E1
1.010736687E1,1.142124939E0,-2.136073013E1,-6.123765564E0,2.225052237E1
1.011742188E1,7.018904114E-1,-1.786654633E1,-2.177372131E0,1.801241453E1
1.012747788E1,1.223705292E0,-1.739712250E1,1.327888641E0,1.749058644E1
1.013753288E1,2.059267731E0,-1.786250473E1,3.469634857E0,1.831251006E1
1.014758888E1,1.280287628E0,-1.695748672E1,3.768563232E0,1.741831109E1
1.015764387E1,1.212478638E-1,-1.464584381E1,2.122136993E0,1.479928740E1
1.016769988E1,-7.376660156E-1,-1.221295303E1,3.686833191E-1,1.224076388E1
1.017775488E1,-1.493743744E0,-9.840087433E0,-6.721023560E-1,9.975485584E0
1.018781088E1,-2.059716797E0,-7.336094513E0,-1.209185486E0,7.715105024E0
1.019786588E1,-2.373763733E0,-5.086422729E0,-1.304088135E0,5.762559874E0
1.020792188E1,-2.176773376E0,-2.960244141E0,-1.307081909E0,3.899980875E0
1.021797688E1,-1.796564026E0,-8.809181213E-1,-1.232536926E0,2.350065171E0
1.022803187E1,-1.441352692E0,1.067579956E0,-6.361770630E-1,1.903141035E0
1.023808788E1,-1.038839722E0,2.616259460E0,2.754272461E-1,2.828402676E0
1.024814288E1,-5.972579956E-1,3.589385834E0,1.093625793E0,3.799529596E0
1.025819888E1,-3.791615295E-1,4.042044525E0,1.861379242E0,4.466163912E0
1.026825388E1,-1.707948303E-1,4.366569672E0,2.380649414E0,4.976303166E0
1.027830987E1,-1.410067749E-1,4.951104126E0,2.852767639E0,5.715907468E0
1.028836488E1,-1.393601990E-1,5.262306976E0,3.196452942E0,6.158620575E0
1.029842087E1,-3.921844482E-2,5.483846283E0,3.237767029E0,6.368456915E0
1.030847588E1,2.064207458E-1,5.306165771E0,3.099005585E0,6.148320123E0
1.031853188E1,4.743635559E-1,4.921765137E0,2.502645721E0,5.541843416E0
1.032858687E1,5.357359314E-1,4.688849487E0,1.597627716E0,4.982442857E0
1.033864188E1,5.933660889E-1,4.459526367E0,6.777905273E-1,4.549599843E0
1.034869787E1,6.469546509E-1,4.357139282E0,-3.055146790E-1,4.415490037E0
1.035875288E1,1.431024170E0,3.179388428E0,-2.907553711E0,4.539846862E0
1.036880888E1,1.603465576E0,9.490264893E-2,-4.177363129E0,4.475541428E0
1.037886387E1,1.044527893E0,-2.047741699E0,-3.077001343E0,3.840862123E0
1.038891988E1,8.452922058E-1,-3.331921234E0,-1.865121460E0,3.910868968E0
1.039897487E1,1.168170776E0,-4.137994995E0,-4.179309082E-1,4.319987475E0
1.040903088E1,1.460063782E0,-4.760101318E0,7.191046143E-1,5.030652269E0
1.041908588E1,1.469643860E0,-5.255720673E0,1.647474060E0,5.700580992E0
1.042914188E1,1.297651520E0,-5.649551697E0,2.454146576E0,6.294773170E0
1.043919688E1,7.685018921E-1,-6.396049347E0,3.142415314E0,7.167622787E0
1.044925187E1,2.869532776E-1,-1.174996582E1,5.329816589E0,1.290546333E1
1.045930788E1,5.026547241E-1,-4.479554718E1,1.096634537E1,4.612108455E1
1.046936275E1,-5.316494293E0,-7.172843994E1,1.686872131E1,7.387684324E1
1.047941875E1,-5.681585083E0,-6.470519485E1,1.191222839E1,6.603744268E1
1.048947375E1,-7.014563141E0,-4.165462875E1,7.012916565E-1,4.224694075E1
1.049952975E1,-9.131910095E0,-2.794808167E1,-4.749473419E0,2.978329311E1
1.050958475E1,-7.714657288E0,-2.235421417E1,-5.017266541E0,2.417436228E1
1.051964075E1,-5.207670593E0,-2.001143600E1,-3.676953735E0,2.100231875E1
1.052969575E1,-2.668201447E0,-1.958377533E1,-1.948198700E0,1.986048925E1
1.053975175E1,-9.204359436E-1,-2.001517822E1,-4.917274475E-1,2.004236407E1
1.054980675E1,-1.573228455E-1,-1.934771622E1,1.027313690E0,1.937560958E1
1.055986175E1,-7.020401001E-1,-1.755654099E1,2.410287781E0,1.773511993E1
1.056991775E1,-1.285526733E0,-1.497381180E1,2.623294830E0,1.525612318E1
1.057997275E1,-1.228495331E0,-1.196237411E1,1.713935852E0,1.214681733E1
1.059002875E1,-8.283773804E-1,-8.960965576E0,7.982899475E-1,9.034510500E0
1.060008375E1,-7.526348877E-1,-6.667135620E0,-6.541397095E-2,6.709801460E0
1.061013975E1,-7.122189331E-1,-4.944667511E0,-7.379653931E-1,5.049909457E0
1.062019475E1,-7.267387390E-1,-3.347039795E0,-7.973918152E-1,3.516625981E0
1.063025075E1,-5.409750366E-1,-1.769170990E0,-4.647834778E-1,1.907522913E0
1.064030575E1,-1.502874756E-1,-1.663041687E-1,-8.741821289E-2,2.405937360E-1
1.065036175E1,2.877017212E-1,1.588197327E0,3.206332397E-1,1.645584608E0
1.066041675E1,6.577322388E-1,3.059487762E0,6.950047302E-1,3.205637010E0
1.067047275E1,9.300160217E-1,3.948339386E0,9.871971130E-1,4.174790036E0
1.068052775E1,1.202150116E0,4.652624817E0,1.200204163E0,4.953036707E0
1.069058275E1,1.401834869E0,4.893773346E0,1.294358368E0,5.252572907E0
1.070063875E1,1.589245148E0,5.043611755E0,1.306782532E0,5.447146066E0
1.071069375E1,1.912572784E0,5.346881104E0,1.319356384E0,5.829903383E0
1.072074975E1,2.207758942E0,5.550008698E0,1.379830627E0,6.130312280E0
1.073080475E1,2.514022064E0,5.620811462E0,9.746232605E-1,6.234077232E0
1.074086075E1,2.741548920E0,5.645061035E0,-8.487350464E-2,6.276145958E0
1.075091575E1,2.711162109E0,5.366340637E0,-9.747729492E-1,6.090828689E0
1.076097175E1,2.701282654E0,4.015399933E0,-1.099763031E0,4.962846292E0
1.077102675E1,1.886077881E0,1.191821594E0,-5.941145325E-1,2.308830995E0
1.078108275E1,1.114432526E0,-9.870474243E-1,1.209484863E-1,1.493603364E0
1.079113775E1,9.289682007E-1,-2.373614044E0,6.982978821E-1,2.642847987E0
1.080119375E1,9.970765686E-1,-3.148253174E0,1.021176453E0,3.456654608E0
1.081124875E1,1.151255951E0,-3.592080231E0,9.990225220E-1,3.902111819E0
1.082130375E1,1.165476379E0,-4.023632812E0,8.662486267E-1,4.277656237E0
1.083135975E1,1.027912445E0,-4.579427032E0,9.319619751E-1,4.785008784E0
1.084141475E1,8.577163696E-1,-5.287005615E0,1.074465637E0,5.462836457E0
1.085147075E1,7.306306458E-1,-6.096971283E0,2.047142944E0,6.472841277E0
1.086152575E1,5.761518860E-1,-7.308252411E0,4.316873016E0,8.507520023E0
1.087158175E1,5.902226257E-1,-1.451351898E1,6.775659943E0,1.602810543E1
1.088163675E1,4.875361633E-1,-4.782629471E1,1.265812729E1,4.947545193E1
1.089169275E1,-7.931406555E0,-7.346228439E1,1.692784836E1,7.580347280E1
1.090174775E1,-1.522903107E1,-6.794266251E1,8.003706207E0,7.008700371E1
1.091180375E1,-1.459584778E1,-4.468238251E1,-4.893473969E0,4.725992135E1
1.092185875E1,-1.217358490E1,-2.757984741E1,-8.707841949E0,3.137946246E1
1.093191475E1,-1.036010605E1,-2.197999237E1,-6.710994415E0,2.520891326E1
1.094196975E1,-8.234376526E0,-2.023986099E1,-4.430187378E0,2.229536925E1
1.095202475E1,-4.686304779E0,-2.010813492E1,-2.935844879E0,2.085468119E1
1.096208075E1,-1.291364594E0,-2.063099762E1,-1.689686279E0,2.074031642E1
1.097213575E1,3.201841736E-1,-1.941118423E1,-2.604583740E-2,1.941384222E1
1.098219175E1,8.696914673E-1,-1.662547714E1,1.397194519E0,1.670673535E1
1.099224675E1,1.084045715E0,-1.307411224E1,1.745520172E0,1.323459129E1
1.100230275E1,5.780978394E-1,-9.595196686E0,1.308878174E0,9.701296750E0
1.101235775E1,3.719764709E-1,-6.619983673E0,6.489006042E-1,6.662103446E0
1.102241375E1,2.655477905E-1,-4.117787018E0,2.436932373E-1,4.133530204E0
1.103246875E1,-1.707948303E-1,-2.008672943E0,-1.365161133E-1,2.020538175E0
1.104252475E1,-3.647914124E-1,-3.173400879E-2,-4.875361633E-1,6.097305408E-1
1.105257975E1,4.041595459E-3,1.872156830E0,-5.734574890E-1,1.958019668E0
1.106263575E1,4.029620361E-1,3.348686371E0,-9.789642334E-2,3.374264738E0
1.107269075E1,7.104226685E-1,4.617148590E0,6.518943787E-1,4.716749702E0
1.108274575E1,1.088087311E0,5.261408844E0,1.471290436E0,5.570552268E0
1.109280175E1,1.296154633E0,5.360203400E0,2.019749908E0,5.872919803E0
1.110285675E1,1.445693665E0,5.598358154E0,2.146536255E0,6.167597757E0
1.111291275E1,1.581611023E0,5.757477264E0,2.108066254E0,6.331980828E0
1.112296775E1,1.694476318E0,5.774541779E0,1.823507996E0,6.288224245E0
1.113302375E1,1.782642975E0,5.657784576E0,1.306333466E0,6.074113056E0
1.114307875E1,1.773661652E0,5.576204224E0,5.833369446E-1,5.880494128E0
1.115313475E1,1.725761261E0,5.367538147E0,-2.841091919E-1,5.645302093E0
1.116318975E1,1.830693054E0,5.070855103E0,-1.156045990E0,5.513751070E0
1.117324575E1,2.445464630E0,3.466641083E0,-1.814526672E0,4.614152652E0
1.118330075E1,2.236050110E0,4.366419983E-1,-1.875749359E0,2.951103520E0
1.119335675E1,1.689985657E0,-1.409618683E0,-1.121318207E0,2.469905033E0
1.120341175E1,1.706750793E0,-2.453996887E0,-2.228865051E-1,2.997461824E0
1.121346675E1,2.286046143E0,-3.165467377E0,4.234693909E-1,3.927533196E0
1.122352275E1,2.682571564E0,-3.315305786E0,9.970765686E-1,4.379680848E0
1.123357775E1,2.415826263E0,-3.177741852E0,1.761387177E0,4.363111802E0
1.124363375E1,1.126557312E0,-3.065325623E0,2.938239899E0,4.393017898E0
1.125368875E1,-3.987707520E-1,-3.945345612E0,3.873495026E0,5.543350415E0
1.126374475E1,-1.113085327E0,-5.157524872E0,3.699856110E0,6.444218881E0
1.127379975E1,-1.117575989E0,-6.265820160E0,3.912863159E0,7.471276763E0
1.128385575E1,-9.776170349E-1,-7.956703949E0,5.927673340E0,9.970064394E0
1.129391075E1,-8.915460205E-1,-1.936762482E1,8.795559540E0,2.128994159E1
1.130396675E1,-2.566712494E0,-6.122268677E1,1.160297150E1,6.236532960E1
1.131402175E1,-1.249766098E1,-7.682414337E1,6.642436981E0,7.811697961E1
1.132407775E1,-1.541434570E1,-5.474655396E1,-5.139711914E0,5.710695108E1
1.133413275E1,-1.020293289E1,-3.231629791E1,-9.671837311E0,3.524184143E1
1.134418775E1,-8.006101227E0,-2.288725571E1,-6.104306030E0,2.500373338E1
1.135424375E1,-7.565417633E0,-1.987012985E1,-1.676813049E0,2.132766528E1
1.136429875E1,-5.318589935E0,-1.948707642E1,1.193917236E0,2.023509290E1
1.137435475E1,-2.458786926E0,-2.042727127E1,2.424657898E0,2.071709465E1
1.138440975E1,-7.797285461E-1,-2.030512527E1,2.544558563E0,2.047879067E1
1.139446575E1,-2.155517578E-1,-1.869222931E1,1.924996948E0,1.879232589E1
1.140452075E1,-4.266128540E-2,-1.606174942E1,9.822573853E-1,1.609181295E1
1.141457675E1,-2.799179077E-1,-1.328068268E1,2.418969727E-1,1.328583458E1
1.142463175E1,-3.760180664E-1,-1.095197525E1,-3.559597778E-1,1.096420808E1
1.143468775E1,-5.403762817E-2,-9.162147217E0,-8.816665649E-1,9.204629141E0
1.144474275E1,1.077758789E-1,-7.417076111E0,-1.133892059E0,7.504021913E0
1.145479875E1,1.197509766E-1,-5.712271271E0,-1.101110229E0,5.818661969E0
1.146485375E1,3.168910217E-1,-4.049528961E0,-7.002438354E-1,4.121825585E0
1.147491004E1,6.376739502E-1,-2.454595642E0,-8.247848511E-2,2.537414143E0
1.148496504E1,8.701405334E-1,-9.128018188E-1,4.499642944E-1,1.338962126E0
1.149502004E1,1.044527893E0,6.994953918E-1,6.893165588E-1,1.433697890E0
1.150507604E1,1.246008911E0,2.313738556E0,9.357041931E-1,2.789528033E0
1.151513104E1,1.400337982E0,3.545826416E0,1.159937897E0,3.984882352E0
1.152518704E1,1.257385254E0,4.308939514E0,1.367406464E0,4.692310502E0
1.153524204E1,1.146615601E0,4.566104736E0,1.396446075E0,4.910611107E0
1.154529804E1,1.152603149E0,5.010231171E0,1.320853271E0,5.308065916E0
1.155535304E1,1.107546844E0,5.544769592E0,1.242566071E0,5.789222770E0
1.156540904E1,9.577084351E-1,5.783223724E0,9.174421692E-1,5.933344944E0
1.157546404E1,8.104147339E-1,5.828429718E0,1.910028076E-1,5.887601132E0
1.158552004E1,5.438191223E-1,5.786516876E0,-9.458830261E-1,5.888481255E0
1.159557504E1,2.718347168E-1,5.696553955E0,-1.830543365E0,5.989616857E0
1.160563104E1,-1.796264648E-3,5.281167755E0,-1.846560059E0,5.594686777E0
1.161568604E1,-3.376977539E-1,3.151246948E0,-1.159189453E0,3.374628467E0
1.162574204E1,2.880010986E-1,-1.646575928E-2,-3.707789612E-1,4.697795143E-1
1.163579704E1,7.494914246E-1,-1.858684845E0,3.917353821E-1,2.042034123E0
1.164585304E1,1.044527893E0,-2.987337799E0,6.054908752E-1,3.222087033E0
1.165590804E1,1.506616974E0,-3.711831207E0,4.417314148E-1,4.030224840E0
1.166596304E1,1.582958221E0,-4.325704651E0,4.944218445E-1,4.632702280E0
1.167601904E1,1.118923187E0,-4.929399261E0,6.090834045E-1,5.091360208E0
1.168607404E1,5.845344543E-1,-5.672753448E0,6.129753113E-1,5.735638670E0
1.169613004E1,1.166075134E-1,-6.593189392E0,1.444496155E0,6.750578702E0
1.170618504E1,-6.219566345E-1,-7.862250366E0,3.995191956E0,8.841005013E0
1.171624104E1,-1.056053925E0,-1.708382401E1,6.274651794E0,1.823029203E1
1.172629604E1,-4.142485657E0,-5.795468262E1,1.117725677E1,5.916786707E1
1.173635204E1,-1.219079910E1,-7.461623474E1,1.090602081E1,7.638808389E1
1.174640704E1,-9.709409180E0,-5.342195847E1,4.810995483E-1,5.429926086E1
1.175646304E1,-8.173752594E0,-3.203892471E1,-5.339995422E0,3.349355877E1
1.176651804E1,-6.735243988E0,-2.452634720E1,-3.079096985E0,2.562003233E1
1.177657404E1,-4.759951630E0,-2.204675354E1,-4.571493530E-1,2.255937647E1
1.178662904E1,-2.336341553E0,-2.179512680E1,7.514373779E-1,2.193286808E1
1.179668504E1,-7.006929016E-1,-2.209390549E1,1.863025818E0,2.218338332E1
1.180674004E1,-2.595602417E-1,-2.156774963E1,2.280357971E0,2.168951886E1
1.181679504E1,-2.701881409E-1,-2.001353165E1,1.948049011E0,2.010993152E1
1.182685104E1,-7.099736023E-1,-1.752465729E1,1.301244049E0,1.758723718E1
1.183690604E1,-1.273252258E0,-1.444032120E1,3.900888062E-1,1.450159360E1
1.184696204E1,-1.538800049E0,-1.143621826E1,-3.344046021E-1,1.154412492E1
1.185701704E1,-1.758543091E0,-8.756490784E0,-8.819659424E-1,8.974768441E0
1.186707304E1,-1.900298309E0,-6.361171875E0,-1.269659729E0,6.759266019E0
1.187712804E1,-1.949545898E0,-4.241579590E0,-1.374292145E0,4.866251692E0
1.188718404E1,-1.859882355E0,-2.512824554E0,-1.195114746E0,3.346901384E0
1.189723904E1,-1.670675812E0,-1.026415558E0,-7.011419678E-1,2.082375236E0
1.190729504E1,-1.351389771E0,5.016069031E-1,-1.719923401E-1,1.451704227E0
1.191735004E1,-7.366181946E-1,2.201921082E0,2.790197754E-1,2.338571113E0
1.192740604E1,-1.978884888E-1,3.330274658E0,6.274951172E-1,3.394648623E0
1.193746104E1,1.842668152E-1,4.056863708E0,9.099577332E-1,4.161744885E0
1.194751704E1,5.556445312E-1,4.519401855E0,1.419348450E0,4.769516118E0
1.195757204E1,7.985893250E-1,4.800217896E0,1.632505188E0,5.132729288E0
1.196762804E1,1.043180695E0,5.250780945E0,1.651216278E0,5.602271119E0
1.197768304E1,1.390308838E0,5.779182129E0,1.629511414E0,6.163376687E0
1.198773904E1,1.624421997E0,6.002218323E0,1.519789581E0,6.401182078E0
1.199779404E1,1.865869904E0,5.922134857E0,1.206042023E0,6.325163170E0
1.200784904E1,2.071392517E0,5.657036133E0,6.988966370E-1,6.064749070E0
1.201790504E1,2.175126801E0,5.337450714E0,1.773811340E-1,5.766369810E0
1.202796004E1,2.043101349E0,4.441264343E0,-1.667532349E-1,4.891512929E0
1.203801604E1,1.634900208E0,1.636097717E0,-2.667453003E-1,2.328275646E0
1.204807104E1,1.288221130E0,-6.828799438E-1,-2.965333557E-1,1.487874568E0
1.205812704E1,1.256337433E0,-1.815574493E0,-5.501060486E-1,2.275370552E0
1.206818204E1,1.476379852E0,-2.615660706E0,-7.991880798E-1,3.108066920E0
1.207823804E1,1.589993591E0,-3.258573761E0,-5.251080322E-1,3.663621299E0
1.208829304E1,1.607357483E0,-3.792363739E0,2.642005920E-1,4.127399031E0
1.209834904E1,1.454076233E0,-4.346212006E0,1.138682098E0,4.722339824E0
1.210840404E1,1.026116180E0,-4.917573853E0,1.834435272E0,5.347952859E0
1.211846004E1,3.580554199E-1,-5.769602051E0,2.670596466E0,6.367778026E0
1.212851504E1,-2.865042114E-1,-7.375462646E0,4.577481079E0,8.685209666E0
1.213857104E1,2.395019531E-3,-2.159229858E1,7.374265137E0,2.281681727E1
1.214862604E1,-1.891466675E0,-6.010017105E1,1.151959488E1,6.122343728E1
1.215868204E1,-8.986712036E0,-7.254903351E1,6.658902740E0,7.340615943E1
1.216873704E1,-9.407337341E0,-5.240661987E1,-4.465813293E0,5.343122019E1
1.217879204E1,-9.164991302E0,-3.233994873E1,-8.208330688E0,3.460124336E1
1.218884804E1,-8.285121002E0,-2.425121933E1,-4.561314697E0,2.603018365E1
1.219890304E1,-7.404801636E0,-2.058968353E1,3.168910217E-1,2.188302025E1
1.220895904E1,-5.249733124E0,-2.003927811E1,2.528242493E0,2.086922076E1
1.221901404E1,-2.221230927E0,-2.114038834E1,4.057163086E0,2.164048193E1
1.222907004E1,-5.361849976E-1,-2.143647263E1,4.776716766E0,2.196877047E1
1.223912504E1,6.671626282E-1,-1.966954697E1,4.340374146E0,2.015378455E1
1.224918104E1,1.027762756E0,-1.711301331E1,2.786605225E0,1.736884249E1
1.225923604E1,8.126600647E-1,-1.450393890E1,7.168592834E-1,1.454436480E1
1.226929204E1,6.400689697E-1,-1.197584610E1,-6.021977234E-1,1.200804814E1
1.227934704E1,7.858657837E-2,-9.637857971E0,-1.402583313E0,9.739698254E0
1.228940304E1,-9.123527527E-1,-7.485483856E0,-1.860481110E0,7.766997236E0
1.229945804E1,-1.922751617E0,-5.542823639E0,-2.141446838E0,6.245451324E0
1.230951404E1,-2.492616577E0,-3.805835724E0,-2.404898987E0,5.145975330E0
1.231956904E1,-2.413730621E0,-2.103276215E0,-2.404599609E0,4.003993710E0
1.232962504E1,-1.774260406E0,-4.291575623E-1,-1.918560333E0,2.648216373E0
1.233968004E1,-1.043480072E0,1.162931671E0,-1.219663696E0,1.982130234E0
1.234973604E1,-4.569996643E-1,2.530936890E0,-4.617897034E-1,2.612994444E0
1.235979104E1,4.161346436E-2,3.377576294E0,3.505709839E-1,3.395976048E0
1.236984604E1,5.640270996E-1,3.755839691E0,1.232536926E0,3.992944481E0
1.237990204E1,1.194815369E0,4.247567139E0,2.131866760E0,4.900435312E0
1.238995704E1,1.709744568E0,4.778962097E0,2.692451019E0,5.745519794E0
1.240001304E1,2.053729248E0,5.119953003E0,2.740650787E0,6.159779973E0
1.241006804E1,2.380649414E0,5.283712463E0,2.496508484E0,6.310123900E0
1.242012404E1,2.454895020E0,5.187462616E0,2.090702362E0,6.107971375E0
1.243017904E1,2.274819489E0,4.905299377E0,1.653311920E0,5.654220193E0
1.244023504E1,1.828896790E0,4.626728668E0,1.156495056E0,5.107735550E0
1.245029004E1,1.346749420E0,4.288731537E0,8.385562134E-1,4.572759421E0
1.246034604E1,6.632707214E-1,3.528312836E0,6.411167908E-1,3.646909686E0
1.247040042E1,-2.624043274E-1,1.628463593E0,5.188211060E-1,1.729139972E0
1.248045642E1,-2.212399292E-1,-3.237767029E-1,4.294569397E-1,5.815597327E-1
1.249051142E1,3.367996216E-2,-1.537303162E0,1.122665405E-1,1.541764939E0
1.250056742E1,-5.254074097E-2,-2.335144043E0,-3.734733582E-1,2.365404951E0
1.251062242E1,-3.323089600E-2,-3.231031036E0,-5.309458923E-1,3.274533462E0
1.252067842E1,2.260299683E-2,-4.072880402E0,1.336720276E-1,4.075136056E0
1.253073342E1,-1.167572021E-2,-4.851860504E0,7.652087402E-1,4.911845996E0
1.254078942E1,-1.185534668E-1,-5.830974426E0,1.390907593E0,5.995743625E0
1.255084442E1,-3.490740967E-1,-7.591164093E0,2.630030823E0,8.041435639E0
1.256090042E1,-8.164022827E-1,-1.293056076E1,3.908222809E0,1.353292724E1
1.257095542E1,-2.402503967E-1,-3.277629135E1,7.021448822E0,3.352079561E1
1.258101042E1,-3.673660583E0,-5.205410294E1,9.900411987E0,5.311443845E1
1.259106642E1,-6.359674988E0,-5.755995346E1,7.799381104E0,5.843307329E1
1.260112142E1,-7.870932312E0,-4.843612656E1,-7.430548096E-1,4.907710323E1
1.261117742E1,-9.999206543E0,-3.231150787E1,-5.819298706E0,3.432028424E1
1.262123242E1,-8.617729340E0,-2.451003113E1,-4.569846954E0,2.637973438E1
1.263128842E1,-6.374793549E0,-2.287767563E1,-1.655108185E0,2.380683553E1
1.264134342E1,-3.222498779E0,-2.328348175E1,3.567082214E-1,2.350813182E1
1.265139942E1,-7.194039917E-1,-2.369332947E1,2.260599060E0,2.381179774E1
1.266145442E1,6.048921204E-1,-2.277708481E1,3.801943817E0,2.310013558E1
1.267151042E1,1.326391754E0,-2.043565384E1,3.739074554E0,2.081720302E1
1.268156542E1,1.106199646E0,-1.749921021E1,2.223176880E0,1.767451699E1
1.269162142E1,6.628216553E-1,-1.485001923E1,5.655239868E-1,1.487555784E1
1.270167642E1,8.771759033E-2,-1.238629257E1,-3.496728516E-1,1.239153780E1
1.271173242E1,-8.250842285E-1,-1.015712814E1,-6.417155457E-1,1.021076956E1
1.272178742E1,-1.823657684E0,-8.362659760E0,-7.616162109E-1,8.593012560E0
1.273184342E1,-2.281256104E0,-6.595434723E0,-9.027726746E-1,7.036965759E0
1.274189842E1,-2.211800537E0,-4.833748169E0,-9.931846619E-1,5.407735085E0
1.275195442E1,-1.867666168E0,-3.190914459E0,-9.870474243E-1,3.826796914E0
1.276200942E1,-1.576521606E0,-1.743274841E0,-7.782316589E-1,2.475898234E0
1.277206542E1,-1.447040863E0,-3.830534363E-1,-4.186793518E-1,1.554332524E0
1.278212042E1,-1.094523926E0,9.208850098E-1,-1.474433899E-1,1.437967795E0
1.279217642E1,-5.763015747E-1,2.159858551E0,1.919009399E-1,2.243644008E0
1.280223142E1,-2.056723022E-1,2.946173401E0,5.933660889E-1,3.012361552E0
1.281228742E1,1.764830017E-1,3.381019135E0,9.180409241E-1,3.507881950E0
1.282234242E1,4.278103638E-1,3.811673584E0,1.232536926E0,4.028774565E0
1.283239742E1,6.864724731E-1,4.195325775E0,1.527124329E0,4.517091047E0
1.284245342E1,1.002914429E0,4.403842163E0,1.886676636E0,4.894814795E0
1.285250842E1,1.425785065E0,4.423601074E0,2.082170105E0,5.092793130E0
1.286256442E1,1.646276550E0,4.434079285E0,2.128423920E0,5.186663086E0
1.287261942E1,1.908381500E0,4.276307373E0,1.811981964E0,5.021155578E0
1.288267542E1,2.223625946E0,4.092190247E0,1.171613617E0,4.802417290E0
1.289273042E1,2.384840698E0,4.075874176E0,3.367996216E-2,4.722430497E0
1.290278642E1,2.615211639E0,3.999233551E0,-1.203497314E0,4.927637030E0
1.291284142E1,2.771935730E0,2.927911377E0,-2.041604462E0,4.519340826E0
1.292289742E1,2.233954468E0,4.046086121E-1,-2.346520386E0,3.265029650E0
1.293295242E1,1.197659454E0,-1.568588104E0,-1.791923676E0,2.665679513E0
1.294300842E1,8.092172241E-1,-2.779869232E0,-8.319699097E-1,3.012420853E0
1.295306342E1,7.210505676E-1,-3.639082489E0,8.711883545E-2,3.710852325E0
1.296311942E1,7.646099854E-1,-4.328249359E0,7.096742249E-1,4.452191421E0
1.297317442E1,7.812254333E-1,-5.018314362E0,1.272503815E0,5.235748100E0
1.298323042E1,6.221063232E-1,-5.749992828E0,2.401605835E0,6.262359331E0
1.299328542E1,2.426454163E-1,-6.155649261E0,3.824397125E0,7.250993587E0
1.300334142E1,-2.606080627E-1,-6.940916290E0,5.369783478E0,8.779453862E0
1.301339642E1,-1.453926544E0,-1.504476425E1,6.140680389E0,1.631461889E1
1.302345242E1,-6.371201019E0,-5.304893417E1,9.154363403E0,5.420870768E1
1.303350742E1,-1.464344879E1,-7.186106415E1,9.836494904E0,7.399459281E1
1.304356342E1,-1.413600403E1,-5.950485901E1,6.066883850E-1,6.116390215E1
1.305361842E1,-9.339378662E0,-3.738071640E1,-6.147566071E0,3.901710549E1
1.306367442E1,-6.614295502E0,-2.542133606E1,-5.163512421E0,2.677041450E1
1.307372942E1,-4.434228973E0,-2.176533875E1,-2.003882904E0,2.230264343E1
1.308378442E1,-1.918560333E0,-2.105102417E1,1.516795807E0,2.119262046E1
1.309384042E1,1.163829803E0,-2.123978165E1,4.140390015E0,2.167084801E1
1.310389542E1,2.861599274E0,-2.072365494E1,5.460195465E0,2.162110910E1
1.311395142E1,2.724933472E0,-1.939666443E1,4.600233765E0,2.012008956E1
1.312400642E1,1.738035736E0,-1.724458969E1,2.685864716E0,1.753882867E1
1.313406242E1,6.749464417E-1,-1.496498016E1,1.266516266E0,1.503363720E1
1.314411742E1,-1.501377869E-1,-1.263312927E1,2.766247559E-1,1.263704941E1
1.315417342E1,-1.041833496E0,-1.017030075E1,-2.803669739E-1,1.022736721E1
1.316422842E1,-1.952090607E0,-8.032147064E0,-7.252418518E-1,8.297711729E0
1.317428442E1,-2.622097321E0,-6.260281677E0,-1.162033539E0,6.885988889E0
1.318433942E1,-3.222199402E0,-4.444856873E0,-1.269060974E0,5.634699403E0
1.319439542E1,-3.068319397E0,-2.683020630E0,-1.230890350E0,4.257731165E0
1.320445042E1,-2.491419067E0,-1.106499023E0,-1.122665405E0,2.948200582E0
1.321450642E1,-1.842967529E0,2.770738220E-1,-1.122366028E0,2.175546993E0
1.322456142E1,-1.052910461E0,1.537303162E0,-1.067579956E0,2.147474892E0
1.323461742E1,-2.436932373E-1,2.669548645E0,-7.602690125E-1,2.786374945E0
1.324467242E1,6.032455444E-1,3.440894623E0,-1.887574768E-1,3.498469719E0
1.325472842E1,1.286125488E0,3.913611603E0,6.816824341E-1,4.175543736E0
1.326478342E1,1.651066589E0,4.142036591E0,1.572929077E0,4.728275995E0
1.327483942E1,2.158810730E0,4.158652039E0,1.936522980E0,5.070007081E0
1.328489442E1,2.642454987E0,3.774700470E0,2.154020691E0,5.086328453E0
1.329495042E1,2.714604950E0,3.792513428E0,2.432591400E0,5.260203328E0
1.330500542E1,2.809956665E0,4.302053833E0,2.236948242E0,5.604235994E0
1.331506142E1,2.903512115E0,4.300856323E0,1.577270050E0,5.423608442E0
1.332511642E1,2.983894958E0,4.153113556E0,7.869136047E-1,5.174090679E0
1.333517242E1,2.492017822E0,3.967798920E0,1.936972046E-1,4.689466889E0
1.334522742E1,1.397044830E0,3.237168274E0,-1.172062683E-1,3.527708888E0
1.335528342E1,-9.220825195E-2,1.103355560E0,-2.502795410E-1,1.135136865E0
1.336533842E1,-7.875123596E-1,-8.023315430E-1,-5.475613403E-1,1.250493920E0
1.337539442E1,-9.006770325E-1,-1.801054688E0,-5.355862427E-1,2.083715366E0
1.338544942E1,-8.631051636E-1,-2.643802185E0,-5.448669434E-2,2.781655859E0
1.339550542E1,-9.723779297E-1,-3.453019409E0,1.881587219E-1,3.592250768E0
1.340556042E1,-9.316625977E-1,-4.193679199E0,4.429289246E-1,4.318694994E0
1.341561542E1,-6.494993591E-1,-4.836741943E0,1.285975800E0,5.046747051E0
1.342567142E1,-3.149450684E-1,-5.711971893E0,2.430046692E0,6.215379331E0
1.343572642E1,-5.981561279E-1,-8.834927673E0,4.331093445E0,9.857591398E0
1.344578242E1,-2.887345734E0,-3.024355820E1,7.305108948E0,3.124698697E1
1.345583742E1,-8.252638550E0,-6.213279419E1,1.120794296E1,6.367266401E1
1.346589342E1,-1.133727402E1,-6.659097336E1,7.169940033E0,6.792863575E1
1.347594925E1,-8.181985474E0,-4.918876144E1,-3.810027008E0,5.000995345E1
1.348600525E1,-7.290140076E0,-2.905922104E1,-7.865693207E0,3.097504801E1
1.349606025E1,-7.055278473E0,-2.136417297E1,-4.764292603E0,2.299789828E1
1.350611625E1,-5.398523712E0,-1.930101334E1,-1.382375336E0,2.008940357E1
1.351617125E1,-1.956431580E0,-1.970337662E1,1.020577698E0,1.982655425E1
1.352622725E1,7.578739929E-1,-2.075808334E1,2.655477905E0,2.094096368E1
1.353628225E1,1.854792938E0,-2.062171692E1,3.492686920E0,2.099748384E1
1.354633825E1,2.202519836E0,-1.876243332E1,3.108585663E0,1.914532064E1
1.355639325E1,1.975891113E0,-1.607252701E1,2.040556641E0,1.632158514E1
1.356644925E1,1.112336884E0,-1.330373474E1,9.089099121E-1,1.338106007E1
1.357650425E1,1.938468933E-1,-1.094838272E1,-4.111949158E-1,1.095781648E1
1.358656025E1,-6.812333679E-1,-8.840466156E0,-1.542392578E0,8.999827533E0
1.359661525E1,-1.350341949E0,-6.759643250E0,-2.399659882E0,7.298942923E0
1.360667125E1,-1.766925659E0,-4.710105286E0,-3.116219788E0,5.917596121E0
1.361672625E1,-1.884730682E0,-2.933000793E0,-3.714824982E0,5.094568485E0
1.362678225E1,-1.555864563E0,-1.347048798E0,-3.518583069E0,4.076233778E0
1.363683725E1,-1.072968750E0,4.221221924E-2,-2.432591400E0,2.659049591E0
1.364689325E1,-6.628216553E-1,1.236578522E0,-1.145567780E0,1.811293605E0
1.365694825E1,-1.874102783E-1,2.105371857E0,-1.248403931E-1,2.117380077E0
1.366700425E1,2.459385681E-1,3.044369202E0,7.114704895E-1,3.136058015E0
1.367705925E1,6.439608765E-1,3.889960785E0,1.429826660E0,4.194148876E0
1.368711525E1,9.575587463E-1,4.034709778E0,2.262545013E0,4.723866179E0
1.369717025E1,1.007405090E0,3.961661682E0,2.547552338E0,4.816601625E0
1.370722625E1,1.021625519E0,3.453468475E0,2.512974243E0,4.391492088E0
1.371728125E1,8.342152405E-1,3.327280884E0,2.217788086E0,4.084764025E0
1.372733725E1,6.715036011E-1,3.809128876E0,1.655706940E0,4.207344216E0
1.373739225E1,5.544470215E-1,3.686982880E0,9.815089417E-1,3.855465479E0
1.374744825E1,5.554948425E-1,3.434158630E0,-1.428030396E-1,3.481725539E0
1.375750325E1,4.710704041E-1,3.658392334E0,-1.578916626E0,4.012320963E0
1.376755925E1,8.014334106E-1,3.717669067E0,-1.949246521E0,4.273513871E0
1.377761425E1,2.079475708E0,2.978356476E0,-1.893412628E0,4.096320043E0
1.378767025E1,3.146756287E0,6.801855469E-1,-1.436862030E0,3.525521238E0
1.379772525E1,2.759810944E0,-1.211430817E0,2.529739380E-2,3.014093732E0
1.380778025E1,2.566712494E0,-2.452949066E0,1.771566010E0,3.967797660E0
1.381783625E1,2.342927856E0,-3.785777435E0,3.078947296E0,5.413071049E0
1.382789125E1,2.123633881E0,-4.968018951E0,3.473826141E0,6.423278074E0
1.383794725E1,1.538051605E0,-5.839656372E0,2.899769897E0,6.698944301E0
1.384800225E1,3.104544067E-1,-6.532715149E0,2.333796844E0,6.944015903E0
1.385805825E1,-8.249345398E-1,-7.612120514E0,3.128494263E0,8.271177187E0
1.386811325E1,-2.625989227E0,-1.539009613E1,4.258494415E0,1.618288148E1
1.387816925E1,-8.243956604E0,-5.043192627E1,8.156239014E0,5.174810376E1
1.388822425E1,-1.602163284E1,-6.678646683E1,8.138875122E0,6.916188371E1
1.389828025E1,-1.215352661E1,-5.152630051E1,1.875449982E0,5.297343830E1
1.390833525E1,-9.822573853E0,-3.086686203E1,-2.747686157E0,3.250839750E1
1.391839125E1,-9.208700409E0,-2.201561829E1,-1.984872437E0,2.394634273E1
1.392844625E1,-6.668782196E0,-2.038940002E1,6.765930176E-2,2.145238605E1
1.393850225E1,-4.402045898E0,-2.137001083E1,2.407743073E0,2.195114115E1
1.394855725E1,-2.180066528E0,-2.275058990E1,4.078269196E0,2.321582027E1
1.395861325E1,-1.505868530E-1,-2.315789291E1,4.498894501E0,2.359132748E1
1.396866825E1,6.563850403E-1,-2.190664490E1,3.267405396E0,2.215869739E1
1.397872425E1,4.700225830E-1,-1.930310898E1,1.398541718E0,1.935941260E1
1.398877925E1,1.173559570E-1,-1.664179321E1,-2.619552612E-1,1.664426851E1
1.399883525E1,-2.951861572E-1,-1.455288712E1,-1.324146423E0,1.461598515E1
1.400889025E1,-3.541635132E-1,-1.254077133E1,-1.857786713E0,1.268257659E1
1.401894625E1,-4.284091187E-1,-1.073357941E1,-2.164648590E0,1.095805479E1
1.402900125E1,-9.753717041E-1,-8.978479156E0,-2.217488708E0,9.299553435E0
1.403905725E1,-1.379082184E0,-7.242838440E0,-1.760189667E0,7.580161212E0
1.404911225E1,-1.491498413E0,-5.456602936E0,-8.791218567E-1,5.724678013E0
1.405916825E1,-1.444496155E0,-3.686234436E0,1.148112488E-1,3.960817476E0
1.406922325E1,-1.174008636E0,-1.966460724E0,6.664141846E-1,2.385240433E0
1.407927925E1,-8.376580811E-1,-2.829116821E-1,7.372169495E-1,1.151172842E0
1.408933425E1,-5.737568665E-1,1.057850189E0,4.849914551E-1,1.297482438E0
1.409939025E1,-3.595523071E-1,2.319127350E0,2.999761963E-1,2.365927988E0
1.410944525E1,-1.212478638E-1,3.596870270E0,2.646496582E-1,3.608630796E0
1.411950125E1,2.880010986E-1,4.509073334E0,2.778222656E-1,4.526794912E0
1.412955625E1,6.233038330E-1,5.027595062E0,1.945953369E-1,5.069821212E0
1.413961225E1,7.667056274E-1,5.123545532E0,1.113684082E-1,5.181791125E0
1.414966725E1,8.821156311E-1,5.187013550E0,1.689985657E-1,5.264199661E0
1.415972325E1,1.388811951E0,5.295837250E0,-7.454498291E-2,5.475422154E0
1.416977825E1,2.111658783E0,5.098248138E0,-5.475613403E-1,5.545363858E0
1.417983425E1,2.623594208E0,4.953499146E0,-7.086264038E-1,5.650004578E0
1.418988925E1,3.088377686E0,4.845872955E0,-5.601351929E-1,5.773587521E0
1.419994525E1,3.198847961E0,4.424648895E0,-4.227209473E-1,5.476206637E0
1.421000025E1,2.378703461E0,2.702779541E0,-1.826202393E-2,3.600497313E0
1.422005625E1,1.251098328E0,1.065783691E-1,4.305047607E-1,1.327381002E0
1.423011125E1,7.647596741E-1,-1.438658295E0,8.586145020E-1,1.841687789E0
1.424016725E1,5.381309509E-1,-2.520458679E0,1.205592957E0,2.845303367E0
1.425022225E1,3.339555359E-1,-3.393293610E0,1.118773499E0,3.588540367E0
1.426027825E1,1.923500061E-1,-4.236639862E0,8.360115051E-1,4.322618545E0
1.427033325E1,5.523513794E-2,-5.319937134E0,6.051914978E-1,5.354534413E0
1.428038925E1,-1.610650635E-1,-6.406976624E0,6.535409546E-1,6.442236195E0
1.429044425E1,-4.251159668E-1,-6.921905823E0,1.346749420E0,7.064505489E0
1.430050025E1,-7.598199463E-1,-8.503067780E0,3.198997650E0,9.116637208E0
1.431055525E1,-2.105072479E0,-2.389301422E1,5.978866882E0,2.471951270E1
1.432061125E1,-8.472830658E0,-5.940935760E1,9.465117188E0,6.075235859E1
1.433066625E1,-1.269405258E1,-6.195526337E1,5.041216736E0,6.344294678E1
1.434072225E1,-7.223229218E0,-3.875126633E1,-2.596201172E0,3.950412564E1
1.435077725E1,-6.342909851E0,-2.309996338E1,-3.853436737E0,2.426293033E1
1.436083325E1,-6.488706665E0,-1.923694656E1,-1.301244049E0,2.034346734E1
1.437088825E1,-5.272485809E0,-1.935729630E1,1.751956787E0,2.013885248E1
1.438094425E1,-3.262016602E0,-2.171953400E1,3.893253937E0,2.230552253E1
1.439099925E1,-1.603166199E0,-2.376772476E1,4.115841064E0,2.417467745E1
1.440105525E1,-5.927673340E-1,-2.416754333E1,2.475851440E0,2.430126261E1
1.441111025E1,-6.069877625E-1,-2.288351349E1,7.544311523E-2,2.289168660E1
1.442116625E1,-3.432362366E-1,-2.050016968E1,-1.441652069E0,2.055366460E1
1.443122125E1,6.406677246E-2,-1.818104233E1,-1.972298584E0,1.828782016E1
1.444127725E1,7.469467163E-2,-1.611683487E1,-2.015408936E0,1.624253117E1
1.445133225E1,-2.710862732E-1,-1.410546753E1,-1.854194183E0,1.422939697E1
1.446138825E1,-9.488768005E-1,-1.230935257E1,-1.372795258E0,1.242196018E1
1.447144250E1,-1.465153198E0,-1.047297134E1,-8.111631775E-1,1.060602604E1
1.448149850E1,-1.646575928E0,-8.397237854E0,-4.320016479E-1,8.568047694E0
1.449155350E1,-1.641037445E0,-6.249953156E0,3.592529297E-2,6.461904438E0
1.450160950E1,-1.543889465E0,-4.055815887E0,4.888833618E-1,4.367178052E0
1.451166450E1,-1.357377319E0,-2.077380066E0,8.454418945E-1,2.621593623E0
1.452172050E1,-9.967771912E-1,-5.617817688E-1,8.586145020E-1,1.430518223E0
1.453177550E1,-4.596940613E-1,1.180894318E0,5.436694336E-1,1.378914962E0
1.454183150E1,-2.245330811E-2,2.441722412E0,1.336720276E-1,2.445481691E0
1.455188650E1,2.676434326E-1,3.184328156E0,-8.472381592E-2,3.196679048E0
1.456194250E1,4.073030090E-1,3.620371399E0,1.140628052E-1,3.644995903E0
1.457199750E1,5.034031677E-1,4.172423401E0,1.781295776E-1,4.206454794E0
1.458205350E1,5.656736755E-1,4.870272217E0,1.381626892E-1,4.904959439E0
1.459210850E1,9.000782776E-1,5.178181915E0,3.382965088E-2,5.255935055E0
1.460216450E1,1.203647003E0,5.258864136E0,-2.200424194E-1,5.399336697E0
1.461221950E1,1.419348450E0,5.281018066E0,-4.816983032E-1,5.489602453E0
1.462227550E1,1.524429932E0,5.143603821E0,-5.716612244E-1,5.395122189E0
1.463233050E1,1.447789307E0,4.862039337E0,-1.972897339E-1,5.076853714E0
1.464238650E1,1.547032928E0,4.505780182E0,6.631210327E-1,4.809895574E0
1.465244150E1,1.531914368E0,3.629352722E0,1.202299805E0,4.118796867E0
1.466249750E1,7.435038757E-1,9.701325989E-1,1.383123779E0,1.845802444E0
1.467255250E1,1.871109009E-1,-1.281485138E0,1.428928528E0,1.928484220E0
1.468260850E1,1.163081360E-1,-2.525847473E0,1.234333191E0,2.813718441E0
1.469266350E1,3.323089600E-2,-3.220403137E0,1.247655487E0,3.453801510E0
1.470271950E1,-2.086660767E-1,-3.606001282E0,1.485810242E0,3.905690573E0
1.471277450E1,-6.759942627E-1,-4.143683167E0,1.669029236E0,4.518045708E0
1.472283050E1,-1.224453735E0,-4.784350891E0,1.701811066E0,5.223548727E0
1.473288550E1,-1.491348724E0,-5.380561066E0,1.635798340E0,5.818109195E0
1.474294150E1,-1.479673004E0,-5.858666840E0,2.115101624E0,6.402114043E0
1.475299650E1,-2.323468323E0,-8.622818756E0,2.389481049E0,9.244518810E0
1.476305250E1,-5.956114197E0,-3.542039291E1,4.818779297E0,3.623948350E1
1.477310750E1,-1.579021408E1,-6.975778793E1,8.353229370E0,7.200872363E1
1.478316350E1,-1.288131317E1,-6.655145554E1,3.564836884E0,6.788028083E1
1.479321850E1,-1.835632782E0,-4.279690338E1,-4.119433594E0,4.303387294E1
1.480327450E1,-1.466201019E0,-2.644460815E1,-3.883374481E0,2.676840756E1
1.481332950E1,-2.752925262E0,-2.021097107E1,-1.541943512E0,2.045579475E1
1.482338550E1,-2.557880859E0,-1.823612778E1,1.873953094E0,1.850974908E1
1.483344050E1,-2.755919037E0,-1.950982910E1,4.871769104E0,2.029686319E1
1.484349650E1,-2.035317535E0,-2.087648712E1,5.980812836E0,2.181147299E1
1.485355150E1,-1.605860596E0,-2.083607117E1,4.582121429E0,2.139430968E1
1.486360750E1,-1.748064880E0,-1.936313416E1,2.291884003E0,1.957650192E1
1.487366250E1,-1.847009125E0,-1.712648529E1,4.833448792E-1,1.723257274E1
1.488371850E1,-1.714384918E0,-1.496183670E1,-1.132245483E0,1.510224000E1
1.489377350E1,-1.733545074E0,-1.279209869E1,-2.220482483E0,1.309860718E1
1.490382950E1,-1.896256714E0,-1.046024780E1,-2.613714752E0,1.094733202E1
1.491388450E1,-2.019151154E0,-8.351582794E0,-2.612217865E0,8.980511607E0
1.492394050E1,-2.115999756E0,-6.352340240E0,-2.368225250E0,7.101983690E0
1.493399550E1,-1.896406403E0,-4.559518433E0,-1.786684570E0,5.251457639E0
1.494405150E1,-1.576970673E0,-2.787353668E0,-1.021026764E0,3.361349822E0
1.495410650E1,-1.206491089E0,-9.943821716E-1,-4.529580688E-1,1.627755406E0
1.496416250E1,-9.563612366E-1,2.028282166E-1,-1.350192261E-1,9.869125046E-1
1.497421750E1,-3.945794678E-1,1.707948303E0,-1.496887207E-2,1.752998697E0
1.498427350E1,2.888992310E-2,2.980152740E0,2.869532776E-1,2.994075344E0
1.499432850E1,4.836442566E-1,3.829935608E0,6.054908752E-1,3.907548813E0
1.500438450E1,7.343728638E-1,4.317621460E0,9.651928711E-1,4.484724724E0
1.501443950E1,8.204438782E-1,4.491709442E0,1.166374512E0,4.712643777E0
1.502449550E1,9.722282410E-1,4.427492981E0,1.325343933E0,4.722759616E0
1.503455050E1,1.206491089E0,4.352648621E0,1.643282776E0,4.806407083E0
1.504460650E1,1.552421722E0,4.281396790E0,1.713786163E0,4.865946433E0
1.505466150E1,1.666634216E0,4.003873901E0,1.635498962E0,4.635033191E0
1.506471750E1,1.555415497E0,3.758683777E0,1.106499023E0,4.215609231E0
1.507477250E1,1.479373627E0,3.683240662E0,9.400451660E-2,3.970345696E0
1.508482850E1,1.451980591E0,3.707639923E0,-9.307644653E-1,4.089151981E0
1.509488350E1,1.605710907E0,3.317551117E0,-1.480271759E0,3.971858181E0
1.510493950E1,1.700912933E0,1.128802643E0,-1.447040863E0,2.502244487E0
1.511499450E1,1.004561005E0,-9.617500305E-1,-6.923103333E-1,1.553511999E0
1.512505050E1,8.448431396E-1,-1.906734924E0,1.408570862E-1,2.090272404E0
1.513510550E1,9.011260986E-1,-2.473456421E0,1.172362061E0,2.881743867E0
1.514516150E1,8.693920898E-1,-3.064577179E0,1.889520721E0,3.703750052E0
1.515521650E1,4.855902100E-1,-3.928430786E0,2.321971436E0,4.589108589E0
1.516527250E1,5.418731689E-2,-4.574337616E0,2.365680542E0,5.150140320E0
1.517532750E1,-3.773652649E-1,-5.192402344E0,2.405797119E0,5.735094282E0
1.518538350E1,-6.388714600E-1,-6.210734711E0,3.790417786E0,7.304015976E0
1.519543850E1,-1.193468170E0,-9.770332489E0,4.398004303E0,1.078082581E1
1.520549450E1,-4.553830261E0,-4.245546341E1,4.939278717E0,4.298372038E1
1.521554950E1,-1.378378647E1,-7.524567581E1,4.708458710E0,7.664250832E1
1.522560550E1,-1.328188019E1,-6.464981003E1,-2.347568207E0,6.604178491E1
1.523566050E1,-6.968608704E0,-3.660922073E1,-7.586074677E0,3.803084378E1
1.524571650E1,-5.057981873E0,-2.414853287E1,-4.650229797E0,2.510696034E1
1.525577150E1,-5.741161194E0,-2.027249313E1,-4.418811035E-1,2.107439604E1
1.526582750E1,-5.090464325E0,-1.944935486E1,3.380869446E0,2.038677291E1
1.527588250E1,-4.046535187E0,-2.133633087E1,5.986501007E0,2.252668765E1
1.528593850E1,-4.271816711E0,-2.309247894E1,6.837631073E0,2.445943990E1
1.529599350E1,-4.016148376E0,-2.193852859E1,5.366789703E0,2.293972355E1
1.530604950E1,-2.744692383E0,-1.943393692E1,1.916165314E0,1.972011486E1
1.531610450E1,-1.795965271E0,-1.711226486E1,-1.312770081E0,1.725625873E1
1.532616050E1,-1.110540619E0,-1.518412445E1,-3.290457458E0,1.557620127E1
1.533621550E1,-6.752458191E-1,-1.309402084E1,-4.303101654E0,1.379949356E1
1.534627150E1,-1.730401611E-1,-1.069061874E1,-4.289629669E0,1.152042511E1
1.535632650E1,-1.541793823E-1,-8.536598053E0,-3.244952087E0,9.133837728E0
1.536638250E1,-3.171903992E-1,-6.981781311E0,-1.918260956E0,7.247455079E0
1.537643750E1,-3.219804382E-1,-5.196443939E0,-6.647676086E-1,5.248677642E0
1.538649350E1,-5.050497437E-1,-3.566184082E0,5.203179932E-1,3.639158552E0
1.539654850E1,-4.330494690E-1,-1.814526672E0,1.405128021E0,2.335470754E0
1.540660450E1,1.131646729E-1,-3.143463135E-3,2.085014191E0,2.088085319E0
1.541665950E1,8.442443848E-1,1.695075073E0,2.826871490E0,3.402532955E0
1.542671550E1,1.578018494E0,2.905907135E0,3.196602631E0,4.599207217E0
1.543677050E1,2.086211700E0,3.428320770E0,3.833677826E0,5.550022364E0
1.544682650E1,2.308798828E0,3.512445831E0,4.463717651E0,6.131280700E0
1.545688150E1,2.407294006E0,3.581602020E0,4.530927887E0,6.257175480E0
1.546693750E1,2.487976227E0,3.670068054E0,3.998485107E0,5.970536691E0
1.547699342E1,2.215692444E0,3.617527313E0,2.914738770E0,5.146989310E0
1.548704942E1,2.158211975E0,3.542682953E0,1.890418854E0,4.558745976E0
1.549710442E1,1.609153748E0,3.334765320E0,1.177750854E0,3.885502876E0
1.550716042E1,1.034049683E0,2.758912811E0,4.324507141E-1,2.977897289E0
1.551721542E1,6.878196716E-1,2.487976227E0,-7.244934082E-1,2.681046867E0
1.552727142E1,8.113128662E-2,2.677781525E0,-3.429218903E0,4.351624807E0
1.553732642E1,-6.318360901E-1,3.110082550E0,-6.518045654E0,7.249603400E0
1.554738242E1,-8.202941895E-1,2.983296204E0,-4.843777313E0,5.747618416E0
1.555743742E1,-1.290167084E0,2.517015839E0,-3.053350525E0,4.162072712E0
1.556749342E1,-1.428180084E0,9.246272278E-1,-2.018253021E0,2.639692998E0
1.557754842E1,-6.559359741E-1,-1.704056396E0,-1.092278595E0,2.127705979E0
1.558760442E1,-6.749464417E-1,-3.503015442E0,-9.536668396E-1,3.692715847E0
1.559765942E1,-7.137158203E-1,-4.683161316E0,-7.876620483E-1,4.802270472E0
1.560771542E1,-7.644602966E-1,-5.655688934E0,1.422042847E-2,5.707137556E0
1.561777042E1,-5.498066711E-1,-6.272705841E0,2.029779053E0,6.615824132E0
1.562782642E1,-8.193960571E-1,-6.264023895E0,4.335434418E0,7.661944717E0
1.563788242E1,-1.364412689E0,-6.595734100E0,5.236560516E0,8.531523683E0
1.564793742E1,-1.250200195E0,-7.909701691E0,4.936284943E0,9.407087243E0
1.565799342E1,-3.503614197E0,-3.105636795E1,2.426005096E0,3.134738910E1
1.566804842E1,-1.645034134E1,-7.682264648E1,7.728278961E0,7.894339136E1
1.567810442E1,-1.971011261E1,-7.716214050E1,9.072932739E0,8.015486619E1
1.568815942E1,-5.715714111E0,-5.151477448E1,-4.505630493E-1,5.183285043E1
1.569821542E1,-6.300398254E-1,-2.827515152E1,-4.709356842E0,2.867157452E1
1.570827042E1,8.708889771E-1,-1.955249039E1,-3.301833801E0,1.984843657E1
1.571832642E1,8.625064087E-1,-1.518831573E1,-2.370470581E0,1.539636265E1
1.572838142E1,3.207829285E-1,-1.414094376E1,-1.955234070E0,1.427908023E1
1.573843742E1,-1.420545959E-1,-1.444481186E1,-1.254092102E0,1.449984538E1
1.574849242E1,-7.592211914E-1,-1.448926941E1,-2.794688416E-1,1.451183819E1
1.575854842E1,-1.531165924E0,-1.320973022E1,4.537065125E-1,1.330591189E1
1.576860342E1,-1.454076233E0,-1.113175140E1,1.067879333E0,1.127699398E1
1.577865942E1,-1.430575104E0,-9.139693909E0,1.063837738E0,9.311943976E0
1.578871442E1,-1.180445251E0,-7.216044159E0,4.891827393E-1,7.328304309E0
1.579877042E1,-7.247927856E-1,-5.455106049E0,-2.805166626E-1,5.510190213E0
1.580882542E1,-1.654060364E-1,-3.876039734E0,-7.878117371E-1,3.958748604E0
1.581888142E1,5.291496277E-1,-2.386636963E0,-7.349716187E-1,2.552688505E0
1.582893642E1,7.659571838E-1,-1.522184601E0,-4.824467468E-1,1.771014181E0
1.583899242E1,1.063837738E0,-3.002755737E-1,-4.132905579E-1,1.180137805E0
1.584904742E1,1.423839111E0,1.140478363E0,-2.954855347E-1,1.848058552E0
1.585910342E1,1.533560944E0,2.306703186E0,-2.390528870E-1,2.780258089E0
1.586915842E1,1.581311646E0,3.144660645E0,-9.145980835E-2,3.521051261E0
1.587921442E1,1.352287903E0,3.347039795E0,3.393443298E-1,3.625811983E0
1.588926942E1,1.014590149E0,3.246149597E0,6.848258972E-1,3.469274692E0
1.589932542E1,7.343728638E-1,3.128643951E0,5.715115356E-1,3.264098944E0
1.590938042E1,3.683839417E-1,3.083138580E0,4.137396240E-1,3.132511885E0
1.591943642E1,5.598358154E-2,3.068469086E0,2.775228882E-1,3.081502173E0
1.592949142E1,-2.682421875E-1,3.099155273E0,3.098556519E-2,3.110896557E0
1.593954742E1,-5.599855042E-1,3.111878815E0,-1.233435059E-1,3.164267236E0
1.594960242E1,-8.187973022E-1,3.133583679E0,-1.648072815E-1,3.242982753E0
1.595965842E1,-1.066831512E0,3.088227997E0,-1.571731567E-1,3.271083160E0
1.596971342E1,-1.289119263E0,2.919528809E0,-1.272354126E-2,3.191494764E0
1.597976942E1,-1.350192261E0,1.698517914E0,3.267704773E-1,2.194256409E0
1.598982442E1,-2.155517578E-1,-5.074447632E-1,6.891668701E-1,8.825608890E-1
1.599988042E1,7.237449646E-1,-2.008074188E0,9.604028320E-1,2.340628616E0
1.600993542E1,9.657916260E-1,-3.430865479E0,1.101259918E0,3.730464422E0
1.601999142E1,7.066804504E-1,-4.671186218E0,1.053060150E0,4.840280325E0
1.603004742E1,5.680686951E-1,-5.370382233E0,1.085243225E0,5.508308291E0
1.604010242E1,4.011657715E-1,-5.923482056E0,1.673819275E0,6.168488032E0
1.605015842E1,-1.139131165E-1,-6.727759552E0,3.046614532E0,7.386310642E0
1.606021342E1,-7.993377686E-1,-9.724976807E0,4.805157623E0,1.087674834E1
1.607026942E1,6.059399414E-1,-3.844171005E1,6.909331970E0,3.906240012E1
1.608032442E1,-7.599696350E0,-7.504209915E1,9.641001434E0,7.603960112E1
1.609038042E1,-1.081306412E1,-6.122208801E1,2.853965149E0,6.223513102E1
1.610043542E1,-7.323670349E0,-3.362367920E1,-3.648213501E0,3.460487555E1
1.611049142E1,-8.039930878E0,-2.237517059E1,-3.364403687E0,2.401266249E1
1.612054642E1,-8.124804382E0,-1.911869247E1,-6.688092041E-1,2.078422849E1
1.613060242E1,-6.882837067E0,-1.933424423E1,1.868564301E0,2.060771648E1
1.614065742E1,-4.567302246E0,-2.098800522E1,2.959346008E0,2.168212032E1
1.615071342E1,-2.673290863E0,-2.206247086E1,3.096610565E0,2.243854053E1
1.616076842E1,-1.849254456E0,-2.149335434E1,2.024240570E0,2.166752346E1
1.617082442E1,-1.104403381E0,-1.969634125E1,8.773255920E-1,1.974677861E1
1.618087942E1,-2.288740540E-1,-1.735012024E1,-4.041595459E-3,1.735163024E1
1.619093542E1,5.388793945E-1,-1.533052002E1,-6.399192810E-1,1.535332966E1
1.620099042E1,8.300239563E-1,-1.351479584E1,-1.063688049E0,1.358197624E1
1.621104642E1,5.046006775E-1,-1.164159119E1,-1.331930237E0,1.172839739E1
1.622110142E1,-2.047741699E-1,-9.858199768E0,-1.412163391E0,9.960935728E0
1.623115742E1,-6.700067139E-1,-7.977360992E0,-1.173260193E0,8.090966375E0
1.624121242E1,-1.025218048E0,-6.021827545E0,-6.143225098E-1,6.139289143E0
1.625126842E1,-1.035546570E0,-4.229754181E0,3.128494263E-2,4.354785400E0
1.626132342E1,-9.806108093E-1,-2.209555206E0,5.777984619E-1,2.485474368E0
1.627137942E1,-1.033600616E0,-7.908055115E-1,7.632627869E-1,1.508732472E0
1.628143442E1,-7.879614258E-1,7.379653931E-1,7.210505676E-1,1.298225732E0
1.629149042E1,-4.969665527E-1,1.948049011E0,7.515870667E-1,2.146334975E0
1.630154542E1,-7.858657837E-2,2.607876892E0,7.749385071E-1,2.721714060E0
1.631160142E1,3.279679871E-1,2.807561646E0,1.049168243E0,3.015081988E0
1.632165642E1,5.999523926E-1,2.715652771E0,1.197210388E0,3.027874760E0
1.633171242E1,9.981243896E-1,2.740650787E0,1.306034088E0,3.195801007E0
1.634176742E1,1.365909576E0,2.884052582E0,1.601669312E0,3.570547976E0
1.635182342E1,1.809886322E0,3.027753754E0,1.700314178E0,3.915871499E0
1.636187942E1,1.925595703E0,3.081791382E0,1.733994141E0,4.026424296E0
1.637193442E1,2.051633606E0,2.926863556E0,1.169817352E0,3.760878005E0
1.638199042E1,2.033221893E0,2.669249268E0,2.136058044E-1,3.362218071E0
1.639204542E1,1.766326904E0,2.423161011E0,-8.571176147E-1,3.118696943E0
1.640210142E1,1.938169556E0,2.431393890E0,-1.898801422E0,3.643298549E0
1.641215642E1,2.058219910E0,2.564018097E0,-3.367696838E0,4.706574125E0
1.642221242E1,1.947300568E0,2.550546112E0,-3.689527588E0,4.889772877E0
1.643226742E1,1.573527832E0,2.236648865E0,-2.807861023E0,3.919524398E0
1.644232342E1,7.740403748E-1,5.628295898E-2,-1.256038055E0,1.476461266E0
1.645237842E1,3.941304016E-1,-1.894759827E0,-2.917433167E-1,1.957183624E0
1.646243442E1,3.529660034E-1,-3.116219788E0,7.409591675E-2,3.137021034E0
1.647248925E1,6.960525513E-2,-4.290827179E0,2.710862732E-1,4.299945411E0
1.648254525E1,-2.074685669E-1,-5.322332153E0,1.141526184E0,5.447324553E0
1.649260025E1,-5.198689270E-1,-5.942342834E0,3.422632599E0,6.877217168E0
1.650265625E1,-7.298822021E-1,-6.186934204E0,5.696404266E0,8.441558176E0
1.651271125E1,-1.108594666E0,-6.502178650E0,5.766757965E0,8.761438624E0
1.652276725E1,-2.027982788E0,-7.381899261E0,5.840853882E0,9.629160138E0
