"Time (s)","Acceleration x (m/s^2)","Acceleration y (m/s^2)","Acceleration z (m/s^2)","Absolute acceleration (m/s^2)"
1.093125029E-3,-2.186203766E0,4.591102753E0,8.534203033E0,9.934300821E0
1.114912500E-2,-2.135010223E0,4.829706573E0,8.701105957E0,1.017809310E1
2.120512503E-2,-2.015109558E0,4.795427856E0,8.740773468E0,1.017142643E1
3.126112500E-2,-2.282154236E0,4.544100494E0,8.470585327E0,9.879670695E0
4.131712503E-2,-2.239642639E0,4.509522400E0,8.090675354E0,9.529471082E0
5.137312500E-2,-1.566492462E0,4.475543060E0,7.809559937E0,9.136389370E0
6.142912502E-2,-1.408421173E0,4.262985077E0,7.885751495E0,9.074236531E0
7.148512499E-2,-1.539398804E0,4.161645813E0,8.165070648E0,9.292869484E0
8.154112502E-2,-1.734293518E0,4.185446320E0,8.405470734E0,9.548700077E0
9.159812500E-2,-2.076931000E0,4.168082428E0,8.677006073E0,9.847689470E0
1.016541250E-1,-2.307152252E0,4.116439819E0,8.992998962E0,1.015588788E1
1.117101250E-1,-2.260000305E0,4.149221649E0,9.179062042E0,1.032370194E1
1.217661250E-1,-2.027384033E0,4.097429352E0,9.309291229E0,1.037121577E1
1.318221250E-1,-1.683698730E0,4.009412384E0,9.325607300E0,1.028966377E1
1.418781250E-1,-1.487157440E0,3.831582184E0,9.284293213E0,1.015336199E1
1.519341250E-1,-1.311123505E0,3.548071747E0,9.149723053E0,9.900772188E0
1.619901250E-1,-7.556286621E-1,3.390449524E0,8.845854950E0,9.503434771E0
1.720461250E-1,-5.161267090E-1,3.166814575E0,8.547974396E0,9.130332283E0
1.821021250E-1,-3.808081055E-1,3.139870605E0,8.422385559E0,8.996687209E0
1.921581250E-1,1.960922241E-2,3.363355865E0,8.204588470E0,8.867232892E0
2.022141250E-1,3.456312561E-1,3.420237579E0,8.032446442E0,8.737143807E0
2.122701250E-1,5.469625854E-1,3.065026245E0,7.955805817E0,8.543324888E0
2.223261250E-1,8.430468750E-1,2.664309540E0,7.812853088E0,8.297586802E0
2.323821250E-1,8.958869934E-1,2.444416809E0,8.088130646E0,8.496802009E0
2.424381250E-1,1.218166809E0,2.524799652E0,8.124954071E0,8.594964940E0
2.524941250E-1,9.168434143E-1,2.185904388E0,8.469387817E0,8.794845641E0
2.625511250E-1,9.051676941E-1,1.744921417E0,8.946445770E0,9.159856507E0
2.726071250E-1,1.039139099E0,1.690584412E0,9.205107880E0,9.416575641E0
2.826631250E-1,5.037025452E-1,1.933529205E0,9.649833069E0,9.854518238E0
2.927191250E-1,2.171983337E-1,2.170037384E0,8.727301483E0,8.995667209E0
3.027751250E-1,-1.587598572E0,2.095791779E0,7.757468262E0,8.190917301E0
3.128311250E-1,-2.269580383E0,2.942431183E0,8.647218018E0,9.411868881E0
3.228871250E-1,4.011657715E-2,4.247417450E0,8.778045959E0,9.751730882E0
3.329431250E-1,2.247426453E0,4.164040833E0,7.753875732E0,9.083652932E0
3.429991250E-1,2.805016937E0,3.588787079E0,7.771389313E0,9.007885688E0
3.530551250E-1,2.764451294E0,3.033890991E0,8.436156921E0,9.381653858E0
3.631111250E-1,1.868863678E0,2.192939758E0,8.802445221E0,9.262001841E0
3.731671250E-1,9.225315857E-1,1.590143280E0,9.090895386E0,9.274912350E0
3.832231250E-1,4.189787292E-1,1.087937622E0,9.515412598E0,9.586564992E0
3.932791250E-1,1.517843628E-1,7.387138367E-1,1.007659561E1,1.010477688E1
4.033351250E-1,2.890489197E-1,7.015910339E-1,1.066457291E1,1.069153378E1
4.133911250E-1,9.521699524E-1,5.071453857E-1,1.310105621E1,1.314539836E1
4.234471250E-1,5.340893555E-1,3.144960022E-1,1.102951401E1,1.104691533E1
4.335041250E-1,7.352709961E-1,1.716929626E-1,1.023002655E1,1.025785285E1
4.435601250E-1,1.237925720E-1,1.182540894E-2,8.677305450E0,8.678196490E0
4.536161250E-1,7.780819702E-1,5.792953491E-2,7.368127899E0,7.409323594E0
4.636721250E-1,1.854942627E0,4.366419983E-1,6.773713989E0,7.036666085E0
4.737281250E-1,2.981200562E0,7.235952759E-1,7.295828247E0,7.914559793E0
4.837841250E-1,4.041595459E0,1.079704742E0,8.641230469E0,9.600579160E0
4.938401250E-1,4.161645813E0,1.110390930E0,9.165889435E0,1.012747713E1
5.038961250E-1,4.542603607E0,1.202000427E0,9.750723267E0,1.082389287E1
5.139515000E-1,4.743485870E0,1.275497589E0,1.018347336E1,1.130622315E1
5.240075000E-1,4.616250458E0,1.463506622E0,1.004665787E1,1.115288995E1
5.340635000E-1,4.717589722E0,1.597178650E0,9.693392487E0,1.089809572E1
5.441195000E-1,4.963378601E0,1.127156067E0,8.754544830E0,1.012658201E1
5.541755000E-1,4.708758087E0,1.305734711E0,7.845634918E0,9.242907179E0
5.642315000E-1,4.539011078E0,1.448388062E0,7.478149109E0,8.866970375E0
5.742875000E-1,4.556674347E0,1.338516541E0,8.419242096E0,9.666361524E0
5.843435000E-1,3.769611053E0,4.495152283E-1,9.792785797E0,1.050288937E1
5.943995000E-1,3.902235260E0,8.921447754E-2,7.724985809E0,8.655102830E0
6.044565000E-1,4.592150574E0,9.894424438E-2,8.357720032E0,9.536724856E0
6.145125000E-1,3.590733032E0,3.210823059E-1,9.431736603E0,1.009723293E1
6.245685000E-1,2.680924988E0,-1.784289551E-1,9.328451385E0,9.707687723E0
6.346245000E-1,2.099833374E0,-3.417393494E-1,8.927584991E0,9.177573740E0
6.446805000E-1,1.597777405E0,-8.996292114E-2,8.914412384E0,9.056916369E0
6.547365000E-1,1.810784454E0,7.409591675E-2,9.283395081E0,9.458639160E0
6.647925000E-1,2.566413116E0,-2.239343262E-1,9.604776764E0,9.944262645E0
6.748485000E-1,3.353326721E0,-6.123765564E-1,9.753717041E0,1.033222151E1
6.849045000E-1,3.778292999E0,-8.704399109E-1,9.510173492E0,1.027017836E1
6.949605000E-1,4.092339935E0,-8.262817383E-1,9.043893127E0,9.961023570E0
7.050165000E-1,4.449347534E0,-7.191046143E-1,8.583151245E0,9.694549511E0
7.150725000E-1,4.417613525E0,-7.774832153E-1,8.010591888E0,9.180924344E0
7.251285000E-1,4.531526642E0,-1.025667114E0,7.428901520E0,8.762151821E0
7.351845000E-1,4.767885132E0,-1.203347626E0,7.031328278E0,8.580230270E0
7.452405000E-1,4.959486694E0,-1.252445526E0,6.512956238E0,8.281529268E0
7.552965000E-1,5.138065338E0,-1.193468170E0,6.083199921E0,8.051670818E0
7.653535000E-1,5.533393250E0,-1.074615326E0,5.538183289E0,7.902196726E0
7.754095000E-1,6.112987976E0,-1.051114197E0,4.810247040E0,7.849327336E0
7.854655000E-1,6.785988464E0,-1.139430542E0,3.894002380E0,7.906402212E0
7.955215000E-1,7.415579224E0,-1.169218597E0,2.816393280E0,8.018101924E0
8.055775000E-1,7.641160126E0,-1.123862915E0,1.916614380E0,7.957625689E0
8.156335000E-1,8.197403412E0,-9.907896423E-1,1.274749146E0,8.354883135E0
8.256895000E-1,8.926088104E0,-8.813671875E-1,6.102809143E-1,8.990233576E0
8.357455000E-1,9.542057190E0,-7.458988953E-1,-3.094065857E-1,9.576165883E0
8.458015000E-1,1.001761826E1,-6.593788147E-1,-1.130449219E0,1.010274079E1
8.558575000E-1,1.062595322E1,-6.646179199E-1,-1.587897949E0,1.076447949E1
8.659135000E-1,1.131601822E1,-7.966433716E-1,-2.074685669E0,1.153218234E1
8.759695000E-1,1.135598511E1,-8.095166016E-1,-2.855462036E0,1.173743491E1
8.860255000E-1,1.097607513E1,-8.542735291E-1,-3.728596344E0,1.162352955E1
8.960815000E-1,1.080093933E1,-8.382568359E-1,-4.732259216E0,1.182189673E1
9.061375000E-1,1.089928482E1,-6.867718506E-1,-5.563929749E0,1.225656475E1
9.161935000E-1,1.115495316E1,-4.520599365E-1,-6.077062683E0,1.271094131E1
9.262495000E-1,1.140553207E1,-1.766326904E-1,-6.483617249E0,1.312077184E1
9.363065000E-1,1.139295822E1,-1.742376709E-1,-6.708898773E0,1.322267668E1
9.463625000E-1,1.118953125E1,-2.716850281E-1,-6.409970398E0,1.289833876E1
9.564185000E-1,1.126467499E1,-3.981719971E-1,-5.689668274E0,1.262631255E1
9.664745000E-1,1.158845169E1,-4.272116089E-1,-5.309907990E0,1.275420892E1
9.765305000E-1,1.188842789E1,4.161346436E-2,-5.445675659E0,1.307638454E1
9.865865000E-1,1.201341797E1,7.080276489E-1,-5.149591370E0,1.308975957E1
9.966425000E-1,1.205592957E1,1.146016846E0,-4.362977142E0,1.287223220E1
1.006698500E0,1.221145615E1,1.046623535E0,-3.411256256E0,1.272209697E1
1.016754500E0,1.250200195E1,8.003855896E-1,-2.695594482E0,1.281432400E1
1.026810500E0,1.254062164E1,7.927514648E-1,-2.135309601E0,1.274579119E1
1.036866500E0,1.227327759E1,9.897418213E-1,-1.941911774E0,1.246530998E1
1.046922500E0,1.180235687E1,1.133592682E0,-1.940564575E0,1.201442679E1
1.056978500E0,1.142559036E1,1.203946381E0,-2.112556915E0,1.168145962E1
1.067034500E0,1.128144012E1,1.509610748E0,-2.856958923E0,1.173507691E1
1.077090500E0,1.104732697E1,2.052831116E0,-3.923940125E0,1.190188450E1
1.087146500E0,1.051727921E1,2.591111755E0,-4.739444275E0,1.182325480E1
1.097202500E0,9.906399536E0,2.788102112E0,-5.423222351E0,1.163278152E1
1.107258500E0,9.437574463E0,2.544558563E0,-5.466482391E0,1.119933122E1
1.117315500E0,9.262438660E0,2.127525787E0,-4.986730042E0,1.073250262E1
1.127371500E0,9.338480530E0,1.718875580E0,-4.423152008E0,1.047501912E1
1.137427500E0,9.466314697E0,1.157842255E0,-4.164789276E0,1.040659322E1
1.147483500E0,9.324858856E0,8.173004150E-1,-3.909570007E0,1.014424518E1
1.157539500E0,8.910370789E0,5.532495117E-1,-3.980821838E0,9.774852179E0
1.167595500E0,8.553512878E0,1.088237000E-1,-4.036655731E0,9.458806196E0
1.177651500E0,8.428971863E0,-5.771997070E-1,-3.563339996E0,9.169412091E0
1.187707500E0,8.637488251E0,-1.268013153E0,-2.974763947E0,9.222975722E0
1.197763500E0,8.659043427E0,-1.737137604E0,-2.775079193E0,9.257307635E0
1.207819500E0,8.318351898E0,-2.349514160E0,-3.521127777E0,9.333463233E0
1.217875500E0,7.518265686E0,-2.489473114E0,-3.834725647E0,8.799256565E0
1.227931500E0,7.258705444E0,-2.605332184E0,-3.851939850E0,8.620556892E0
1.237987500E0,7.962691498E0,-2.547552338E0,-4.013453979E0,9.273742052E0
1.248043500E0,8.006999359E0,-2.701282654E0,-3.708388367E0,9.228277791E0
1.258099500E0,8.054899750E0,-3.152743835E0,-3.622167664E0,9.377702397E0
1.268155500E0,8.459358673E0,-3.681594086E0,-3.703598328E0,9.941404566E0
1.278211500E0,8.718320160E0,-4.030518494E0,-4.015848999E0,1.041063057E1
1.288268500E0,8.704997864E0,-3.513942719E0,-4.006717987E0,1.020679040E1
1.298324500E0,8.259823608E0,-2.733615417E0,-3.645070038E0,9.433126463E0
1.308380500E0,7.460485840E0,-1.990859985E0,-3.472029877E0,8.466248515E0
1.318436500E0,8.133785706E0,-1.611399078E0,-2.976111145E0,8.809785153E0
1.328492500E0,6.837631073E0,-1.358425140E0,-2.608475647E0,7.443296498E0
1.338548500E0,6.185287628E0,-1.021924896E0,-2.375410309E0,6.704079927E0
1.348604500E0,7.614066467E0,-1.055754547E0,-2.096989288E0,7.967809605E0
1.358660500E0,8.942404175E0,-1.151106262E0,-2.154020691E0,9.269921423E0
1.368716500E0,9.338480530E0,-6.762936401E-1,-2.365530853E0,9.657138702E0
1.378772500E0,1.158530823E1,-7.530839539E-1,-3.603905640E0,1.215625921E1
1.388828500E0,9.983638916E0,-6.677613831E-1,-3.249592438E0,1.052039934E1
1.398884500E0,8.565188599E0,-3.706292725E-1,-3.085234222E0,9.111448403E0
1.408940500E0,8.246950378E0,-6.646179199E-2,-3.185375977E0,8.840996993E0
1.418996500E0,8.671317902E0,4.233197021E-1,-3.182681580E0,9.246643486E0
1.429052500E0,1.106693619E1,5.372328186E-1,-3.040028229E0,1.148945026E1
1.439108500E0,1.153112091E1,4.685256958E-1,-2.981649628E0,1.191958474E1
1.449164500E0,1.057984909E1,6.818321228E-1,-3.224444733E0,1.108129711E1
1.459221500E0,9.619745636E0,1.159039764E0,-3.884272614E0,1.043889137E1
1.469277500E0,8.950487366E0,1.331780548E0,-4.641996918E0,1.017020152E1
1.479333500E0,8.603508911E0,1.639390869E0,-4.879852295E0,1.002601249E1
1.489389500E0,8.844208374E0,1.919009399E0,-4.370162201E0,1.004992221E1
1.499445500E0,9.825118561E0,1.740580444E0,-4.202361145E0,1.082693005E1
1.509501500E0,1.093266541E1,1.309626617E0,-4.431235199E0,1.186904125E1
1.519557125E0,1.124865829E1,9.719288635E-1,-4.257296906E0,1.206654615E1
1.529613125E0,9.621691589E0,1.403331757E0,-4.061653748E0,1.053770944E1
1.539669125E0,8.997190247E0,2.155966644E0,-4.377646637E0,1.023530237E1
1.549725125E0,1.023736130E1,2.193987579E0,-4.789440308E0,1.151329172E1
1.559781125E0,1.134505783E1,1.960473175E0,-5.520370331E0,1.276825285E1
1.569837125E0,1.189246948E1,2.537373505E0,-6.360573120E0,1.372319151E1
1.579893125E0,1.198961746E1,3.418291626E0,-6.102060699E0,1.388059038E1
1.589949125E0,1.223810074E1,4.462819519E0,-6.048023071E0,1.436197935E1
1.600005125E0,1.206850342E1,4.815785522E0,-6.613696747E0,1.458017660E1
1.610061125E0,1.189291855E1,7.204069061E0,-7.195536804E0,1.565617682E1
1.620117125E0,1.230366440E1,7.235354004E0,-4.450245667E0,1.495109333E1
1.630174125E0,1.106783432E1,5.228477325E0,-3.463647308E0,1.272127291E1
1.640230125E0,1.056967026E1,3.200045471E0,-3.324736176E0,1.153308679E1
1.650286125E0,9.739795990E0,2.198178864E0,-2.233056335E0,1.023142985E1
1.660342125E0,9.146280212E0,1.936073914E0,-5.568420410E-1,9.365516376E0
1.670398125E0,8.045619049E0,1.163530426E0,1.567240906E-1,8.130827226E0
1.680454125E0,6.365961914E0,2.163002014E-1,4.975653076E-1,6.389039686E0
1.690510125E0,5.310506744E0,-4.355941772E-2,6.988966370E-1,5.356476063E0
1.700566125E0,4.560266876E0,3.899391174E-1,-3.547622681E-2,4.577045451E0
1.710622125E0,5.049150238E0,8.249345398E-1,-1.125060425E0,5.238339057E0
1.720678125E0,5.087470551E0,7.092251587E-1,-1.341510315E0,5.308955345E0
1.730734125E0,3.888314209E0,7.008425903E-1,-2.447111206E0,4.647420895E0
1.740790125E0,3.007396088E0,2.703378296E-1,-2.642904053E0,4.012786513E0
1.750846125E0,2.661315765E0,1.929487610E-1,-3.677552490E0,4.543591437E0
1.760902125E0,3.223247223E0,3.447331238E-1,-5.047803040E0,5.999039849E0
1.770958125E0,3.773952026E0,-4.116439819E-2,-5.486840057E0,6.659566219E0
1.781014125E0,5.176834717E0,-1.571432190E0,-5.425317993E0,7.661794316E0
1.791070125E0,5.987099762E0,-3.391946411E0,-5.024601288E0,8.520403871E0
1.801127125E0,5.984704742E0,-3.212769012E0,-5.126688995E0,8.510083174E0
1.811183125E0,7.091503143E0,-2.834355927E0,-4.817881165E0,9.029671603E0
1.821239125E0,7.215445404E0,-1.352587280E0,-4.038901062E0,8.378834437E0
1.831295125E0,9.688901825E0,-7.048841858E-1,-1.614093475E0,9.847688969E0
1.841351125E0,1.165820663E1,-1.098266144E0,-3.154091034E0,1.212717035E1
1.851407125E0,1.237581436E1,-8.928932190E-1,-3.309318237E0,1.284171432E1
1.861463125E0,1.472023911E1,-1.355131989E0,-4.088448029E0,1.533744533E1
1.871519125E0,1.971699829E1,-1.331331482E0,-3.831881561E0,2.012997222E1
1.881575125E0,2.273262726E1,-1.553469543E0,-1.640588379E0,2.284463044E1
1.891631125E0,1.885059998E1,-1.000519409E0,-1.635948029E0,1.894788865E1
1.901687125E0,1.587269257E1,8.722361755E-1,-3.986210632E-1,1.590163715E1
1.911743125E0,1.390802811E1,2.224374390E-1,7.301815796E-1,1.392895866E1
1.921799125E0,1.210757217E1,-4.637356567E-1,1.066981201E0,1.216333851E1
1.931855125E0,1.170131699E1,-9.621990967E-1,2.657723236E0,1.203786273E1
1.941911125E0,1.068313431E1,-1.802850952E0,1.365011444E0,1.091983912E1
1.951967125E0,1.005968079E1,-2.080822906E0,-5.222639465E-1,1.028590108E1
1.962023125E0,9.103020172E0,-2.371069336E0,-1.342707825E0,9.502095051E0
1.972080125E0,8.217162323E0,-2.404300232E0,-1.518143005E0,8.695238607E0
1.982136125E0,7.410190430E0,-2.330653381E0,-1.315763855E0,7.878711945E0
1.992192125E0,6.154451752E0,-2.268682251E0,-1.619332581E0,6.756214438E0
2.002248125E0,5.095104675E0,-2.460583191E0,-2.713557129E0,6.275185542E0
2.012304125E0,4.554279327E0,-2.338586884E0,-3.176544342E0,6.025021391E0
2.022360125E0,4.007316742E0,-2.180066528E0,-2.841091919E0,5.374298171E0
2.032416125E0,3.675307159E0,-2.071392517E0,-2.096240845E0,4.710920861E0
2.042472125E0,4.180506592E0,-2.350561981E0,-1.676663361E0,5.080647303E0
2.052528125E0,4.548740845E0,-2.847079468E0,-1.971101074E0,5.716829909E0
2.062584125E0,4.149071960E0,-3.321892090E0,-2.806813202E0,6.010654335E0
2.072640125E0,4.095184021E0,-3.959865417E0,-3.567830658E0,6.721642797E0
2.082696125E0,3.595972137E0,-5.129533081E0,-4.103716278E0,7.488899287E0
2.092752125E0,2.963237915E0,-6.308481445E0,-4.660109253E0,8.384171714E0
2.102808125E0,2.673739929E0,-6.722819824E0,-4.415517883E0,8.475965419E0
2.112864125E0,2.764002228E0,-5.993835754E0,-4.033512268E0,7.735308435E0
2.122920125E0,3.934568024E0,-4.519701233E0,-3.014730835E0,6.707989772E0
2.132976125E0,8.325536957E0,-4.691992950E0,-2.257605286E0,9.819681517E0
2.143033125E0,8.559350739E0,-4.036506042E0,-1.729054413E0,9.620056926E0
2.153089125E0,8.080197144E0,-3.544479218E0,-1.620380402E0,8.970983862E0
2.163145125E0,6.967860260E0,-4.175566864E0,-2.701582031E0,8.560664735E0
2.173201125E0,7.317383423E0,-4.849016418E0,-2.201172638E0,9.049984606E0
2.183257125E0,6.509663086E0,-3.806434479E0,-2.907404022E0,8.081933870E0
2.193313125E0,5.971831512E0,-4.300107880E0,-2.652933197E0,7.822515832E0
2.203369125E0,6.388415222E0,-5.127886505E0,-2.690654755E0,8.622452787E0
2.213425125E0,5.410349121E0,-5.342390442E0,-2.639910278E0,8.048735275E0
2.223481125E0,4.136348419E0,-5.555846558E0,-2.216740265E0,7.272602465E0
2.233537125E0,2.750829620E0,-6.022575989E0,-2.169139252E0,6.967327338E0
2.243593125E0,1.500779114E0,-6.125412140E0,-2.153871002E0,6.664245803E0
2.253649125E0,-3.113525391E-2,-7.592511292E0,-3.534001007E0,8.374745383E0
2.263705125E0,3.532653809E-1,-1.374456802E1,-5.008734283E0,1.463302312E1
2.273761125E0,5.667664032E0,-2.065854034E1,-3.199446716E0,2.165950517E1
2.283817125E0,1.286589523E1,-2.180096466E1,-2.260299683E0,2.541500098E1
2.293873125E0,1.250754044E1,-2.060929276E1,-1.377435608E0,2.414702558E1
2.303929125E0,9.212143250E0,-1.798764450E1,-1.203796692E0,2.024519855E1
2.313986125E0,6.442003784E0,-1.528411652E1,-1.275048523E0,1.663518498E1
2.324042125E0,4.444258118E0,-1.298055679E1,-8.297245789E-1,1.374535295E1
2.334098125E0,3.462599487E0,-1.083671494E1,-1.214274902E0,1.144108602E1
2.344154125E0,2.777623901E0,-1.019679565E1,-2.011367340E0,1.075804047E1
2.354210125E0,2.222428436E0,-1.029588959E1,-2.630779266E0,1.085658925E1
2.364266125E0,1.835932159E0,-1.035067566E1,-2.931653595E0,1.091337374E1
2.374322125E0,1.466799774E0,-1.063493454E1,-2.899769897E0,1.112034171E1
2.384378125E0,2.352358246E0,-1.065349594E1,-3.038681030E0,1.132537626E1
2.394434125E0,3.761078796E0,-9.339827728E0,-3.157234497E0,1.055207209E1
2.404490125E0,3.379073181E0,-8.294102325E0,-3.065924377E0,9.466264376E0
2.414546125E0,1.944157104E0,-8.719517670E0,-2.809507599E0,9.364991628E0
2.424602125E0,1.011147308E0,-9.344917145E0,-2.240241394E0,9.662741683E0
2.434658125E0,9.430389404E-3,-9.010512543E0,-1.679956512E0,9.165788515E0
2.444714125E0,-1.179397430E0,-8.686137085E0,-1.226250000E0,8.851194542E0
2.454770125E0,-2.163750458E0,-8.704548798E0,-8.930429077E-1,9.013795618E0
2.464826125E0,-2.472558289E0,-8.854686584E0,-4.120930481E-1,9.202653948E0
2.474882125E0,-2.458487549E0,-9.133556671E0,2.948867798E-2,9.458693783E0
2.484939125E0,-2.346520386E0,-9.300160217E0,2.573149109E-1,9.595068991E0
2.494995125E0,-2.023791504E0,-8.911268921E0,2.020797729E-1,9.140420235E0
2.505051125E0,-1.748364258E0,-8.675958252E0,8.547225952E-2,8.850781586E0
2.515107500E0,-1.456920319E0,-8.556057587E0,8.292755127E-2,8.679609163E0
2.525163500E0,-1.270857239E0,-8.622070312E0,1.866618347E-1,8.717225317E0
2.535219500E0,-8.348139954E-1,-8.851543121E0,1.829196167E-1,8.892704292E0
2.545275500E0,-4.391867065E-1,-9.102870483E0,5.298980713E-2,9.113613110E0
2.555331500E0,9.145980835E-2,-8.956025848E0,6.137237549E-2,8.956703102E0
2.565387500E0,6.385720825E-1,-8.906329193E0,3.040177917E-1,8.934366280E0
2.575443500E0,5.005590820E-1,-9.436526642E0,5.839356995E-1,9.467817877E0
2.585499500E0,8.313711548E-1,-9.806108093E0,8.674461365E-1,9.879443139E0
2.595555500E0,9.207353210E-1,-1.001387604E1,1.038540344E0,1.010960102E1
2.605611500E0,9.901908875E-1,-1.008797195E1,1.042132874E0,1.018988209E1
2.615667500E0,1.211131439E0,-1.010862900E1,1.008003845E0,1.023070336E1
2.625723500E0,1.383273468E0,-1.004201752E1,9.449848938E-1,1.018079357E1
2.635779500E0,1.557660828E0,-9.962083740E0,8.255332947E-1,1.011686339E1
2.645835500E0,1.679806824E0,-9.945917358E0,7.093748474E-1,1.011168808E1
2.655892500E0,1.628463593E0,-9.952353973E0,6.267466736E-1,1.010416027E1
2.665948500E0,1.514700165E0,-1.001237915E1,5.429209900E-1,1.014084888E1
2.676004500E0,1.430275726E0,-1.005818390E1,4.619393921E-1,1.016986431E1
2.686060500E0,1.354682922E0,-1.015413437E1,3.766168213E-1,1.025102194E1
2.696116500E0,1.202299805E0,-1.021041733E1,2.501298523E-1,1.028400271E1
2.706172500E0,1.084045715E0,-1.015937347E1,1.354682922E-1,1.021794383E1
2.716228500E0,1.041384430E0,-1.013647110E1,2.080673218E-2,1.018984597E1
2.726284500E0,1.050365753E0,-1.012748978E1,-4.775070190E-2,1.018192504E1
2.736340500E0,1.068328400E0,-1.012599289E1,-7.634124756E-2,1.018247934E1
2.746396500E0,1.108145599E0,-1.009680359E1,-1.546284485E-1,1.015860912E1
2.756452500E0,1.239123230E0,-9.935888214E0,-2.001338196E-1,1.001485669E1
2.766508500E0,1.392105103E0,-9.748927002E0,-1.558259583E-1,9.849051530E0
2.776564500E0,1.625020752E0,-9.551188202E0,-1.601669312E-2,9.688454213E0
2.786620500E0,1.846260681E0,-9.414522400E0,2.200424194E-1,9.596370626E0
2.796676500E0,2.095492401E0,-9.348060608E0,5.285508728E-1,9.594617843E0
2.806732500E0,2.264940033E0,-9.302255859E0,9.366023254E-1,9.619726677E0
2.816788500E0,2.453847198E0,-9.168583832E0,1.283431091E0,9.577655815E0
2.826845500E0,2.647843781E0,-9.139993286E0,1.596430206E0,9.648789736E0
2.836901500E0,2.761158142E0,-9.172475739E0,1.841770020E0,9.754507792E0
2.846957500E0,2.836601257E0,-9.226513367E0,1.981728973E0,9.854040051E0
2.857013500E0,2.909948730E0,-9.319919128E0,2.063009949E0,9.979213607E0
2.867069500E0,3.033441925E0,-9.449399872E0,2.112407227E0,1.014668380E1
2.877125500E0,3.174149323E0,-9.665101318E0,2.104174347E0,1.038830867E1
2.887181500E0,3.262914734E0,-9.867779846E0,2.017953644E0,1.058734285E1
2.897237500E0,3.250789948E0,-1.007300308E1,1.882934418E0,1.075074269E1
2.907293500E0,3.239263916E0,-1.028765671E1,1.670077057E0,1.091411328E1
2.917349500E0,3.188818817E0,-1.046818130E1,1.376238098E0,1.102929810E1
2.927405500E0,3.102298737E0,-1.061592407E1,1.054257660E0,1.111006573E1
2.937461500E0,2.992277527E0,-1.072519684E1,7.837701416E-1,1.116234150E1
2.947517500E0,2.919977875E0,-1.075573334E1,5.304968262E-1,1.115766541E1
2.957573500E0,2.864293671E0,-1.065469345E1,3.793112183E-1,1.103949943E1
2.967629500E0,2.783910828E0,-1.045246399E1,3.206332397E-1,1.082159732E1
2.977685500E0,2.750081177E0,-1.017943176E1,3.984713745E-1,1.055189826E1
2.987741500E0,2.747835846E0,-9.862540741E0,6.345304871E-1,1.025782339E1
2.997798500E0,2.736309814E0,-9.498797150E0,9.960287476E-1,9.935120128E0
3.007854500E0,2.704126740E0,-9.179810486E0,1.397643585E0,9.671330290E0
3.017910500E0,2.657423859E0,-8.999734955E0,1.725910950E0,9.541273470E0
3.027966500E0,2.575693817E0,-8.879684601E0,1.992057495E0,9.457869227E0
3.038022500E0,2.495161285E0,-8.812624054E0,2.203567657E0,9.420397177E0
3.048078500E0,2.376158752E0,-8.821006622E0,2.389031982E0,9.442656515E0
3.058134500E0,2.279310150E0,-8.909023590E0,2.508932648E0,9.532087868E0
3.068190500E0,2.224224701E0,-9.081614685E0,2.545307007E0,9.690278044E0
3.078246500E0,2.141147461E0,-9.220376129E0,2.478695526E0,9.784875059E0
3.088302500E0,2.119592285E0,-9.281898193E0,2.275867310E0,9.789069289E0
3.098358500E0,2.093845825E0,-9.350605316E0,1.994452515E0,9.787535489E0
3.108414500E0,2.117197266E0,-9.460327148E0,1.758692780E0,9.852579069E0
3.118470500E0,2.167043610E0,-9.559121704E0,1.536704407E0,9.921408478E0
3.128526500E0,2.210453339E0,-9.625733185E0,1.348695374E0,9.967939733E0
3.138582500E0,2.235750732E0,-9.649084625E0,1.228345642E0,9.980593593E0
3.148638500E0,2.260748749E0,-9.633666687E0,1.195863190E0,9.967377163E0
3.158694500E0,2.278861084E0,-9.624535675E0,1.265318756E0,9.971255004E0
3.168751500E0,2.308050385E0,-9.605674896E0,1.419647827E0,9.980555433E0
3.178807500E0,2.288141785E0,-9.574988708E0,1.614991608E0,9.976181609E0
3.188863500E0,2.274520111E0,-9.516310730E0,1.774410095E0,9.943950062E0
3.198919500E0,2.277064819E0,-9.452393646E0,1.907034302E0,9.908054787E0
3.208975500E0,2.296973419E0,-9.407037964E0,2.028431854E0,9.893583068E0
3.219031500E0,2.336042175E0,-9.360185394E0,2.110311584E0,9.875402708E0
3.229087500E0,2.341730347E0,-9.327403564E0,2.147135010E0,9.853646382E0
3.239143500E0,2.353705444E0,-9.305549011E0,2.182910614E0,9.843691912E0
3.249199500E0,2.325713654E0,-9.262588348E0,2.196232910E0,9.799383955E0
3.259255500E0,2.334395599E0,-9.196725311E0,2.186054077E0,9.736939545E0
3.269311500E0,2.391277313E0,-9.160949707E0,2.175426178E0,9.714611973E0
3.279367500E0,2.380499725E0,-9.139095154E0,2.190993805E0,9.694859103E0
3.289423500E0,2.386487274E0,-9.163195038E0,2.220033417E0,9.725636904E0
3.299479500E0,2.380050659E0,-9.256750488E0,2.215093689E0,9.811152368E0
3.309535500E0,2.369572449E0,-9.285041656E0,2.192790070E0,9.830320465E0
3.319591500E0,2.358944550E0,-9.297316132E0,2.135608978E0,9.826776295E0
3.329647500E0,2.337239685E0,-9.282646637E0,2.052382050E0,9.789917773E0
3.339704500E0,2.302511902E0,-9.252409515E0,1.983824615E0,9.738798848E0
3.349760500E0,2.274969177E0,-9.277557220E0,1.911075897E0,9.741702306E0
3.359816500E0,2.279160461E0,-9.296867065E0,1.853445740E0,9.749952346E0
3.369872500E0,2.279010773E0,-9.301507416E0,1.828896790E0,9.749707369E0
3.379928500E0,2.303410034E0,-9.302555237E0,1.812730408E0,9.753421105E0
3.389984500E0,2.325563965E0,-9.323511658E0,1.794318695E0,9.775259432E0
3.400040500E0,2.329006805E0,-9.297166443E0,1.793869629E0,9.750874054E0
3.410096500E0,2.337389374E0,-9.279203796E0,1.807341614E0,9.738249118E0
3.420152500E0,2.337838440E0,-9.299561462E0,1.821861420E0,9.760456495E0
3.430208500E0,2.371668091E0,-9.277557220E0,1.861079865E0,9.755075385E0
3.440264500E0,2.362686768E0,-9.253307648E0,1.903441772E0,9.738022477E0
3.450320500E0,2.370320892E0,-9.252110138E0,1.957030334E0,9.749355408E0
3.460376500E0,2.395169220E0,-9.250313873E0,1.993853760E0,9.761177960E0
3.470432500E0,2.390229492E0,-9.266929321E0,2.005080414E0,9.778012249E0
3.480488500E0,2.409838715E0,-9.254056091E0,2.017504578E0,9.773187888E0
3.490544500E0,2.401156769E0,-9.277108154E0,2.023342438E0,9.794090267E0
3.500601500E0,2.410287781E0,-9.274563446E0,2.028581543E0,9.795006757E0
3.510657500E0,2.414329376E0,-9.252259827E0,2.029329987E0,9.775043654E0
3.520713500E0,2.435585175E0,-9.206604767E0,1.988614655E0,9.728732431E0
3.530769500E0,2.408192139E0,-9.211843872E0,1.946851501E0,9.718420019E0
3.540825500E0,2.423610077E0,-9.222322083E0,1.934876404E0,9.729792243E0
3.550881500E0,2.418071594E0,-9.231004028E0,1.894909515E0,9.728781408E0
3.560937500E0,2.403252411E0,-9.273066559E0,1.875749359E0,9.761343207E0
3.570993500E0,2.378553772E0,-9.300160217E0,1.845063171E0,9.775211313E0
3.581049500E0,2.319726105E0,-9.322912903E0,1.816472626E0,9.777392648E0
3.591105500E0,2.282154236E0,-9.333989868E0,1.777852936E0,9.772019028E0
3.601161500E0,2.260748749E0,-9.328451385E0,1.746418304E0,9.756073342E0
3.611217500E0,2.249971161E0,-9.286837921E0,1.724264374E0,9.709830917E0
3.621273500E0,2.240091705E0,-9.256301422E0,1.747765503E0,9.682551891E0
3.631329500E0,2.235900421E0,-9.246272278E0,1.776505737E0,9.677229684E0
3.641385500E0,2.233505402E0,-9.265432434E0,1.835632782E0,9.705994657E0
3.651441500E0,2.202220459E0,-9.299112396E0,1.890119476E0,9.741448452E0
3.661497500E0,2.152224426E0,-9.318422241E0,1.930685120E0,9.756669928E0
3.671554500E0,2.099683685E0,-9.340276794E0,1.937121735E0,9.767388740E0
3.681610500E0,2.041454773E0,-9.317823486E0,1.933678894E0,9.732856013E0
3.691666500E0,2.012415161E0,-9.317374420E0,1.923200684E0,9.724298522E0
3.701722500E0,1.983225861E0,-9.327553253E0,1.915117493E0,9.726464389E0
3.711778500E0,1.983076172E0,-9.346863098E0,1.934277649E0,9.748736888E0
3.721834500E0,1.992656250E0,-9.340127106E0,1.941762085E0,9.745721793E0
3.731890500E0,1.999841309E0,-9.276659088E0,1.940564575E0,9.686153001E0
3.741946500E0,2.058070221E0,-9.262288971E0,1.951641541E0,9.686823768E0
3.752002500E0,2.094893646E0,-9.312434692E0,1.943258972E0,9.740958614E0
3.762058500E0,2.090852051E0,-9.354796600E0,1.933229828E0,9.778612340E0
3.772114500E0,2.092798004E0,-9.370962982E0,1.909728699E0,9.789883268E0
3.782170500E0,2.113155670E0,-9.386380920E0,1.917961578E0,9.810614165E0
3.792226500E0,2.102976837E0,-9.317075043E0,1.901196442E0,9.738837037E0
3.802282500E0,2.098785553E0,-9.266330566E0,1.932780762E0,9.695639455E0
3.812338500E0,2.125430145E0,-9.297016754E0,1.990560608E0,9.742397311E0
3.822394500E0,2.141746216E0,-9.359586639E0,2.041454773E0,9.816133480E0
3.832450500E0,2.163301392E0,-9.427245941E0,2.056124268E0,9.888401587E0
3.842507500E0,2.143692169E0,-9.419911194E0,2.031275940E0,9.871991945E0
3.852563500E0,2.121538239E0,-9.388626251E0,1.988464966E0,9.828591980E0
3.862619500E0,2.116748199E0,-9.335786133E0,1.914818115E0,9.762379529E0
3.872675500E0,2.084116058E0,-9.292675781E0,1.800455933E0,9.692213601E0
3.882731500E0,2.033820648E0,-9.265432434E0,1.613045654E0,9.622192105E0
3.892787500E0,2.026485901E0,-9.217681732E0,1.429227905E0,9.545417436E0
3.902843500E0,2.089355164E0,-9.244775391E0,1.256636810E0,9.560879306E0
3.912899500E0,2.204465790E0,-9.291777649E0,1.157093811E0,9.619546111E0
3.922955500E0,2.362986145E0,-9.367071075E0,1.146765289E0,9.728350049E0
3.933011500E0,2.487227783E0,-9.551188202E0,1.181193695E0,9.940156772E0
3.943067500E0,2.631078644E0,-9.658365326E0,1.267115021E0,1.009020198E1
3.953123500E0,2.716850281E0,-9.705966339E0,1.421893158E0,1.017884267E1
3.963179500E0,2.771786041E0,-9.718091125E0,1.533411255E0,1.022132296E1
3.973235500E0,2.813399506E0,-9.674232330E0,1.601369934E0,1.020148879E1
3.983291500E0,2.781815186E0,-9.617500305E0,1.666933594E0,1.014955543E1
3.993347500E0,2.793191528E0,-9.583371277E0,1.711989899E0,1.012787408E1
4.003403500E0,2.772235107E0,-9.607022095E0,1.720522156E0,1.014595276E1
4.013459500E0,2.713257751E0,-9.655820618E0,1.712588654E0,1.017494960E1
4.023516500E0,2.669398956E0,-9.689051514E0,1.719025269E0,1.019600205E1
4.033572500E0,2.636317749E0,-9.689799957E0,1.719025269E0,1.018810298E1
4.043628500E0,2.612816620E0,-9.668544159E0,1.737436981E0,1.016495175E1
4.053684500E0,2.596500549E0,-9.592352600E0,1.788630524E0,1.009723936E1
4.063740500E0,2.585872650E0,-9.515711975E0,1.826501770E0,1.002854030E1
4.073796500E0,2.573598175E0,-9.422006836E0,1.877395935E0,9.945965809E0
4.083852500E0,2.598596191E0,-9.331744537E0,1.933229828E0,9.877830523E0
4.093908500E0,2.610421600E0,-9.276808777E0,1.967209167E0,9.835821975E0
4.103964500E0,2.641107788E0,-9.241332550E0,1.995350647E0,9.816267206E0
4.114020500E0,2.690056000E0,-9.217082977E0,2.024689636E0,9.812766583E0
4.124076500E0,2.701432343E0,-9.176068268E0,2.002835083E0,9.772886673E0
4.134132500E0,2.677033081E0,-9.130562897E0,1.949545898E0,9.712590496E0
4.144188500E0,2.677482147E0,-9.037007446E0,1.895657959E0,9.614048748E0
4.154244500E0,2.631976776E0,-9.019643555E0,1.837878113E0,9.573874219E0
4.164300500E0,2.595003662E0,-8.980724487E0,1.787283325E0,9.517449133E0
4.174356500E0,2.581232300E0,-8.975036316E0,1.710792389E0,9.494253402E0
4.184413500E0,2.550097046E0,-9.038204956E0,1.686243439E0,9.541255720E0
4.194469500E0,2.536325684E0,-9.085506592E0,1.651964722E0,9.576448478E0
4.204525500E0,2.513423309E0,-9.100625153E0,1.636995850E0,9.582193398E0
4.214581500E0,2.498155060E0,-9.143585815E0,1.663490753E0,9.623572193E0
4.224637500E0,2.460433502E0,-9.171876984E0,1.684746552E0,9.644450807E0
4.234693500E0,2.464175720E0,-9.241332550E0,1.719474335E0,9.717560459E0
4.244749500E0,2.459535370E0,-9.365574188E0,1.795965271E0,9.848288449E0
4.254805500E0,2.462978210E0,-9.420060883E0,1.847458191E0,9.910444514E0
4.264861500E0,2.462229767E0,-9.447453918E0,1.835034027E0,9.933997727E0
4.274917500E0,2.504591675E0,-9.496851196E0,1.802551575E0,9.985607357E0
4.284973500E0,2.474055176E0,-9.568552094E0,1.779948578E0,1.004222859E1
4.295029500E0,2.460134125E0,-9.584568787E0,1.763033752E0,1.005109480E1
4.305085500E0,2.446063385E0,-9.567204895E0,1.755549316E0,1.002978509E1
4.315141500E0,2.455044708E0,-9.642049255E0,1.787732391E0,1.010902297E1
4.325197500E0,2.491568756E0,-9.670939178E0,1.834884338E0,1.015390467E1
4.335253500E0,2.489622803E0,-9.654323730E0,1.863923950E0,1.014289904E1
4.345309500E0,2.516566772E0,-9.679172058E0,1.868264923E0,1.017398122E1
4.355366500E0,2.536175995E0,-9.767189026E0,1.850002899E0,1.025927292E1
4.365422500E0,2.478096771E0,-9.815239105E0,1.817370758E0,1.028507262E1
4.375478500E0,2.408940582E0,-9.769434357E0,1.801054688E0,1.022196852E1
4.385534500E0,2.307152252E0,-9.699230347E0,1.810934143E0,1.013299084E1
4.395590500E0,2.269131317E0,-9.665101318E0,1.811233521E0,1.009176433E1
4.405646500E0,2.189796295E0,-9.654473419E0,1.789229279E0,1.006008977E1
4.415702500E0,2.061363373E0,-9.620793457E0,1.756746826E0,9.994750878E0
4.425758500E0,1.983525238E0,-9.694440308E0,1.722019043E0,1.004399795E1
4.435814500E0,1.901046753E0,-9.710906067E0,1.682201843E0,1.003720471E1
4.445870500E0,1.814676361E0,-9.681118011E0,1.659299469E0,9.988511950E0
4.455926500E0,1.746118927E0,-9.664801941E0,1.610201569E0,9.952390515E0
4.465982500E0,1.651066589E0,-9.657167816E0,1.556463318E0,9.920155703E0
4.476038500E0,1.566941528E0,-9.677974548E0,1.470841370E0,9.913721372E0
4.486094500E0,1.424288177E0,-9.677076416E0,1.327888641E0,9.871053288E0
4.496150500E0,1.225202179E0,-9.688303070E0,1.108444977E0,9.828173127E0
4.506206500E0,9.831555176E-1,-9.794731750E0,8.828640747E-1,9.883461631E0
4.516262167E0,7.282356262E-1,-9.940827942E0,5.269042969E-1,9.981383443E0
4.526318167E0,3.625460815E-1,-1.010533585E1,-3.498225403E-1,1.011788654E1
4.536375167E0,1.960922241E-2,-1.036504578E1,-2.692001953E0,1.070894173E1
4.546431167E0,-2.544708252E-2,-1.072115524E1,-5.727240143E0,1.215504409E1
4.556487167E0,2.201921082E-1,-1.060544586E1,-5.360951843E0,1.188544367E1
4.566543167E0,3.029699707E-1,-1.012868729E1,-4.555177460E0,1.110998374E1
4.576599167E0,2.766247559E-1,-9.874216461E0,-4.351301422E0,1.079400278E1
4.586655167E0,1.019380188E-1,-9.743388519E0,-4.072131958E0,1.056059988E1
4.596711167E0,-1.769320679E-1,-9.817933502E0,-3.841611328E0,1.054424491E1
4.606767167E0,-4.507127380E-1,-9.994865570E0,-3.790118408E0,1.069885402E1
4.616823167E0,-6.194119263E-1,-1.007045837E1,-3.739673309E0,1.076024904E1
4.626879167E0,-8.021818542E-1,-1.006746460E1,-3.566633148E0,1.071065877E1
4.636935167E0,-8.225395203E-1,-9.944719849E0,-3.318449249E0,1.051599399E1
4.646991167E0,-7.096742249E-1,-9.632618866E0,-2.976859589E0,1.010706074E1
4.657047167E0,-4.873864746E-1,-9.220974884E0,-2.512824554E0,9.569650497E0
4.667103167E0,-1.332229614E-1,-8.746910706E0,-2.140997772E0,9.006112741E0
4.677159167E0,3.754193115E-1,-8.371192017E0,-1.808539124E0,8.572549749E0
4.687215167E0,9.409432983E-1,-8.132139130E0,-1.584305420E0,8.338290279E0
4.697271167E0,1.295855255E0,-8.040080566E0,-1.418600006E0,8.266472182E0
4.707328167E0,1.468146973E0,-8.086933136E0,-1.212628326E0,8.308093075E0
4.717384167E0,1.624571686E0,-8.182883606E0,-1.071771240E0,8.411153955E0
4.727440167E0,1.611848145E0,-8.365503845E0,-1.055006104E0,8.584447967E0
4.737496167E0,1.414857788E0,-8.527317352E0,-1.041833496E0,8.706456272E0
4.747552167E0,1.281185760E0,-8.685089264E0,-9.798623657E-1,8.833591723E0
4.757608167E0,1.162033539E0,-8.825347595E0,-9.821076965E-1,8.955535587E0
4.767664167E0,8.882528687E-1,-8.986113281E0,-1.084195404E0,9.094762489E0
4.777720167E0,6.484515381E-1,-9.052275696E0,-1.132694550E0,9.145883315E0
4.787776167E0,4.695735168E-1,-9.057065735E0,-1.161734161E0,9.143334472E0
4.797832167E0,5.219645691E-1,-8.810528412E0,-1.211131439E0,8.908686619E0
4.807888167E0,4.674778748E-1,-8.413104858E0,-9.211843872E-1,8.476287489E0
4.817944167E0,-5.059478760E-2,-8.332722015E0,-6.619235229E-1,8.359124282E0
4.828000167E0,-3.457809448E-1,-8.581654358E0,-1.084494781E0,8.656817251E0
4.838056167E0,-3.448828125E-1,-8.893006897E0,-1.529219971E0,9.030117914E0
4.848112167E0,-1.305285645E-1,-8.988208923E0,-1.798210602E0,9.167251427E0
4.858168167E0,-1.353186035E-1,-8.920549622E0,-1.620530090E0,9.067559454E0
4.868224167E0,-1.363664246E-1,-8.724756775E0,-1.357077942E0,8.830721212E0
4.878281167E0,-1.902543640E-1,-8.500972137E0,-1.253493347E0,8.594996776E0
4.888337167E0,-3.384461975E-1,-8.319399719E0,-1.294508057E0,8.426310499E0
4.898393167E0,-4.128414917E-1,-8.210426331E0,-1.591789856E0,8.373489928E0
4.908449167E0,-3.222798157E-1,-8.145611115E0,-1.989063721E0,8.391139326E0
4.918505167E0,-2.472857666E-1,-8.146509247E0,-2.105671234E0,8.417874702E0
4.928561167E0,-2.453398132E-1,-8.203690338E0,-2.085163879E0,8.468095134E0
4.938617167E0,-1.499880981E-1,-8.270002441E0,-2.070494385E0,8.526569287E0
4.948673167E0,-3.517684937E-2,-8.405021667E0,-2.016157379E0,8.643524583E0
4.958729167E0,1.896556091E-1,-8.540789337E0,-1.944755859E0,8.761456905E0
4.968785167E0,3.959266663E-1,-8.666677551E0,-1.738185425E0,8.848126710E0
4.978841167E0,5.418731689E-1,-8.823551331E0,-1.423839111E0,8.954105339E0
4.988897167E0,5.542973328E-1,-9.254056091E0,-1.343605957E0,9.367501088E0
4.998953167E0,4.111949158E-1,-9.988578644E0,-1.930984497E0,1.018182134E1
5.009009167E0,2.532733154E-1,-1.080093933E1,-2.740201721E0,1.114599225E1
5.019065167E0,3.546125793E-1,-1.156345367E1,-3.158132629E0,1.199220633E1
5.029121167E0,6.929090881E-1,-1.240096207E1,-3.101250916E0,1.280163038E1
5.039177167E0,1.024020538E0,-1.331211731E1,-2.554737396E0,1.359366648E1
5.049234167E0,1.433868256E0,-1.407223663E1,-1.771566010E0,1.425560480E1
5.059290167E0,1.578317871E0,-1.464524506E1,-1.330732727E0,1.479003515E1
5.069346167E0,1.387015686E0,-1.509296402E1,-1.376836853E0,1.521897024E1
5.079402167E0,1.165925446E0,-1.553499481E1,-2.051633606E0,1.571319975E1
5.089458167E0,1.267414398E0,-1.593152023E1,-3.131637726E0,1.628578617E1
5.099514167E0,1.673370209E0,-1.633328476E1,-3.964356079E0,1.689060325E1
5.109570167E0,2.340682526E0,-1.685779404E1,-3.601959686E0,1.739649758E1
5.119626167E0,3.196452942E0,-1.751208344E1,-2.543211365E0,1.798216621E1
5.129682167E0,3.654201050E0,-1.810619797E1,-1.813478851E0,1.856007262E1
5.139738167E0,3.637435913E0,-1.867486542E1,-1.922003174E0,1.912264716E1
5.149794167E0,3.527714081E0,-1.892484558E1,-2.717449036E0,1.944168398E1
5.159850167E0,3.697161713E0,-1.874821289E1,-3.682941284E0,1.946094930E1
5.169906167E0,3.815864868E0,-1.810904205E1,-4.115391998E0,1.895876262E1
5.179962167E0,3.554358673E0,-1.685959030E1,-3.936963043E0,1.767424478E1
5.190018167E0,2.988684998E0,-1.499910919E1,-3.444636841E0,1.567708639E1
5.200074167E0,2.539618835E0,-1.273821075E1,-2.733615417E0,1.327344455E1
5.210130167E0,2.080224152E0,-1.042866348E1,-2.051334229E0,1.083015820E1
5.220186167E0,1.654808807E0,-8.347092133E0,-1.550625458E0,8.649669275E0
5.230243167E0,1.125060425E0,-6.531068573E0,-1.029858398E0,6.706804454E0
5.240299167E0,5.676196289E-1,-4.923860779E0,-5.984555054E-1,4.992468929E0
5.250355167E0,2.110610962E-2,-3.573668518E0,-3.263214111E-1,3.588598307E0
5.260411167E0,-3.963757324E-1,-2.470612335E0,-1.806742859E-1,2.508721234E0
5.270467167E0,-6.491999817E-1,-1.572480011E0,-1.139131165E-1,1.705030850E0
5.280523167E0,-8.174501038E-1,-8.461903381E-1,-8.068222046E-2,1.179310129E0
5.290579167E0,-8.388555908E-1,-2.896476746E-1,-1.181044006E-1,8.952782400E-1
5.300635167E0,-7.441026306E-1,1.004411316E-1,-1.930984497E-1,7.752832754E-1
5.310691167E0,-5.836363220E-1,3.905378723E-1,-3.019221497E-1,7.644005302E-1
5.320747167E0,-4.454736328E-1,5.659730530E-1,-4.082011414E-1,8.278891387E-1
5.330803167E0,-4.342469788E-1,6.532415771E-1,-4.638853455E-1,9.113092836E-1
5.340859167E0,-4.849914551E-1,7.207511902E-1,-5.357359314E-1,1.020642924E0
5.350915167E0,-5.433700562E-1,7.903564453E-1,-5.914201355E-1,1.126806152E0
5.360971167E0,-6.110293579E-1,8.424481201E-1,-6.228547668E-1,1.212857688E0
5.371027167E0,-6.646179199E-1,8.821156311E-1,-6.063890076E-1,1.259981188E0
5.381083167E0,-6.746470642E-1,8.952882385E-1,-5.469625854E-1,1.247340275E0
5.391139167E0,-6.762936401E-1,8.915460205E-1,-4.965174866E-1,1.224237317E0
5.401195167E0,-6.770420837E-1,9.081614685E-1,-4.093986511E-1,1.204471042E0
5.411252167E0,-6.704557800E-1,8.945397949E-1,-3.338058472E-1,1.166678508E0
5.421308167E0,-6.499484253E-1,9.066645813E-1,-2.502795410E-1,1.143290631E0
5.431364167E0,-6.453080750E-1,9.562115479E-1,-1.483415222E-1,1.163085656E0
5.441420167E0,-6.631210327E-1,1.000220032E0,-4.700225830E-2,1.200990769E0
5.451476167E0,-6.969506836E-1,1.023721161E0,7.828720093E-2,1.240916660E0
5.461532167E0,-7.497908020E-1,1.012943573E0,2.163002014E-1,1.278681628E0
5.471588167E0,-7.237449646E-1,5.867797852E-1,3.284170532E-1,9.879144957E-1
5.481644167E0,-2.266287231E-1,-3.370989990E-1,1.669029236E-1,4.391502012E-1
5.491700167E0,-6.002517700E-2,-6.909631348E-1,-1.930984497E-1,7.199445026E-1
5.501756167E0,3.120411072E0,-9.951006775E0,-1.542093201E0,1.054217969E1
5.511812167E0,1.177526321E1,-6.243381821E1,-4.138743439E0,6.366920509E1
5.521868167E0,1.869103180E1,-8.014334106E1,-3.681444397E0,8.237634867E1
5.531924167E0,9.184450836E0,-6.735483490E1,-4.502636719E0,6.812709930E1
5.541980167E0,1.142439285E1,-4.282489517E1,9.142987061E-1,4.433197876E1
5.552036167E0,1.002809647E1,-2.529095718E1,1.522184601E0,2.724907852E1
5.562092167E0,6.717281342E0,-1.692575272E1,1.435664520E0,1.826647493E1
5.572148167E0,4.842579803E0,-1.322140594E1,6.496490479E-2,1.408049625E1
5.582205167E0,3.500919800E0,-1.158351196E1,-1.940863953E0,1.225565754E1
5.592261167E0,3.462300110E0,-1.014275803E1,-4.659510498E0,1.168649222E1
5.602317167E0,3.582500153E0,-8.850046234E0,-8.091274109E0,1.251504464E1
5.612373167E0,3.290307770E0,-7.329059143E0,-9.871671753E0,1.272757386E1
5.622429167E0,3.115321655E0,-5.911057892E0,-8.575068054E0,1.087095334E1
5.632485167E0,2.656974792E0,-4.872218170E0,-6.468648376E0,8.522994589E0
5.642541167E0,1.961071930E0,-4.076173553E0,-4.540957031E0,6.409468364E0
5.652597167E0,1.513352966E0,-3.331322479E0,-2.962040405E0,4.707614048E0
5.662653167E0,1.146615601E0,-2.627336426E0,-1.960323486E0,3.472821936E0
5.672709167E0,7.484436035E-1,-2.006726990E0,-1.477427673E0,2.601905757E0
5.682765167E0,2.719844055E-1,-1.387015686E0,-1.118174744E0,1.802249369E0
5.692821167E0,-1.655557251E-1,-7.867639160E-1,-6.852749634E-1,1.056412766E0
5.702877167E0,-4.535568237E-1,-2.432441711E-1,-3.288661194E-1,6.107654571E-1
5.712933167E0,-6.122268677E-1,1.927990723E-1,-1.112187195E-1,6.514313650E-1
5.722989167E0,-4.872367859E-1,4.586462402E-1,-7.873626709E-2,6.737621679E-1
5.733045167E0,-3.511697388E-1,5.807922363E-1,-1.553768921E-1,6.962627276E-1
5.743101167E0,-3.972738647E-1,6.710545349E-1,-1.904040527E-1,8.027418114E-1
5.753157167E0,-4.418811035E-1,7.171586609E-1,-2.249821472E-1,8.718901428E-1
5.763214167E0,-5.066963196E-1,7.705975342E-1,-2.755769348E-1,9.625509685E-1
5.773270167E0,-5.495072937E-1,8.322692871E-1,-2.706372070E-1,1.033380341E0
5.783326167E0,-5.667214966E-1,8.888516235E-1,-2.278262329E-1,1.078487485E0
5.793382167E0,-5.860313416E-1,9.157955933E-1,-1.363664246E-1,1.095769184E0
5.803438167E0,-6.059399414E-1,1.002165985E0,-6.286926270E-3,1.171127405E0
5.813494167E0,-6.294410706E-1,1.041683807E0,1.071771240E-1,1.221797099E0
5.823550167E0,-6.584806824E-1,1.065184937E0,1.878593445E-1,1.266296526E0
5.833606167E0,-6.801855469E-1,1.062191162E0,2.261796570E-1,1.281428765E0
5.843662167E0,-6.545887756E-1,1.125509491E0,2.152523804E-1,1.319693778E0
5.853718167E0,-6.515950012E-1,1.087937622E0,2.270777893E-1,1.288312321E0
5.863774167E0,-4.587959290E-1,2.115101624E-1,2.760260010E-1,5.756914160E-1
5.873830167E0,-6.167175293E-2,-6.108796692E-1,2.474354553E-1,6.619680354E-1
5.883886167E0,3.712280273E-2,-7.728428650E-1,5.650749207E-1,9.581095253E-1
5.893942167E0,1.998344421E-1,-2.281256104E0,1.943258972E0,3.003384532E0
5.903998167E0,5.508095856E0,-2.203447906E1,2.969375153E0,2.290577605E1
5.914054167E0,2.014989807E1,-6.985149307E1,3.863465881E-1,7.270074787E1
5.924110167E0,1.507634857E1,-7.616132172E1,-7.068301392E-1,7.764240350E1
5.934166167E0,9.190588074E0,-5.922134857E1,-1.192420349E0,5.994211293E1
5.944223167E0,1.201970490E1,-3.917548416E1,-3.799099731E-1,4.097970469E1
5.954279167E0,7.917186127E0,-2.430405945E1,7.418572998E-1,2.557184964E1
5.964335167E0,6.216422882E0,-1.819361618E1,1.097667389E0,1.925763373E1
5.974391167E0,5.474116516E0,-1.604019424E1,-1.312770081E-1,1.694907126E1
5.984447167E0,5.227579193E0,-1.505404495E1,-1.875449982E0,1.604584576E1
5.994503167E0,5.413642273E0,-1.367092117E1,-3.725901947E0,1.516851851E1
6.004559167E0,4.993166656E0,-1.186582489E1,-5.534890137E0,1.401301261E1
6.014615167E0,4.648732910E0,-9.753267975E0,-6.925049286E0,1.283328724E1
6.024671167E0,3.792214050E0,-7.504494324E0,-7.856262817E0,1.150735365E1
6.034727167E0,2.950963440E0,-5.493576050E0,-8.009993134E0,1.015123406E1
6.044783167E0,2.021396484E0,-3.792663116E0,-7.929310913E0,9.019107984E0
6.054839167E0,1.218316498E0,-2.425705719E0,-7.428003387E0,7.908449763E0
6.064895167E0,6.041436768E-1,-1.416354675E0,-6.076763306E0,6.268819859E0
6.074951167E0,1.571731567E-2,-6.460565186E-1,-4.601580963E0,4.646739009E0
6.085007167E0,-4.288581848E-1,-6.646179199E-2,-3.429368591E0,3.456718885E0
6.095063167E0,-6.412664795E-1,3.338058472E-1,-2.581980743E0,2.681282082E0
6.105119167E0,-6.262976074E-1,5.879772949E-1,-1.938169556E0,2.120015853E0
6.115176167E0,-5.330415344E-1,6.716532898E-1,-1.500928802E0,1.728594426E0
6.125232167E0,-4.900808716E-1,6.908134460E-1,-1.214424591E0,1.480617967E0
6.135288167E0,-4.867877197E-1,7.298822021E-1,-9.403445435E-1,1.286055276E0
6.145344167E0,-4.740641785E-1,7.701484680E-1,-7.132667542E-1,1.151787728E0
6.155400167E0,-4.947212219E-1,8.196954346E-1,-5.496569824E-1,1.103980295E0
6.165456167E0,-5.249583435E-1,8.812174988E-1,-4.580474854E-1,1.123357931E0
6.175512167E0,-5.487588501E-1,9.584568787E-1,-3.381468201E-1,1.155040751E0
6.185568167E0,-5.656736755E-1,1.028511200E0,-1.715432739E-1,1.186275301E0
6.195624167E0,-6.063890076E-1,1.097368011E0,-2.978805542E-2,1.254117821E0
6.205680167E0,-6.623725891E-1,1.131047974E0,1.062789917E-1,1.315029349E0
6.215736167E0,-6.884184265E-1,1.235680389E0,2.282752991E-1,1.432806884E0
6.225792167E0,-6.646179199E-1,1.342258759E0,3.207829285E-1,1.531756260E0
6.235848167E0,-6.506968689E-1,1.371897125E0,3.939807129E-1,1.568671074E0
6.245904167E0,-6.502478027E-1,1.353485413E0,4.333488464E-1,1.562861539E0
6.255960167E0,-6.468049622E-1,1.285676422E0,4.830455017E-1,1.518108520E0
6.266016167E0,-6.424639893E-1,1.086590424E0,6.072871399E-1,1.400798485E0
6.276072167E0,-3.394940186E-1,1.655557251E-1,6.596781921E-1,7.601580125E-1
6.286128167E0,1.076261902E-1,-5.791456604E-1,4.867877197E-1,7.641697304E-1
6.296185167E0,2.725831604E-1,-6.494993591E-1,4.387376404E-1,8.298443914E-1
6.306241167E0,6.478527832E-1,-1.856888580E0,1.332828369E0,2.375748280E0
6.316297167E0,1.103565125E1,-3.069501938E1,3.011737061E-1,3.261994051E1
6.326353167E0,2.832559662E1,-7.846383362E1,-3.773652649E0,8.350540739E1
6.336409167E0,1.447010925E1,-7.361436813E1,-2.570454712E0,7.506707997E1
6.346465167E0,9.146878967E0,-5.347150543E1,1.032852173E-1,5.424829911E1
6.356521167E0,1.293430298E1,-3.139990356E1,3.209326172E-1,3.396105321E1
6.366577167E0,9.961484985E0,-2.043924637E1,4.394860840E-1,2.274174846E1
6.376633167E0,7.201075287E0,-1.682695816E1,2.622546387E-1,1.830493878E1
6.386689167E0,4.418212280E0,-1.565714081E1,-4.095483398E-1,1.627373307E1
6.396745167E0,3.749403076E0,-1.498009872E1,-2.253114624E0,1.560570110E1
6.406801167E0,4.320016479E0,-1.423779236E1,-4.454586639E0,1.553127863E1
6.416857167E0,5.043611755E0,-1.229303650E1,-5.993985443E0,1.457685245E1
6.426913167E0,5.462440796E0,-9.730814667E0,-7.249275055E0,1.330710345E1
6.436969167E0,5.508544922E0,-6.955735474E0,-7.598049774E0,1.168146752E1
6.447025167E0,4.668042755E0,-4.513563995E0,-7.628586273E0,1.001789457E1
6.457081167E0,3.129691772E0,-2.784509583E0,-7.853568420E0,8.900955069E0
6.467137167E0,1.646575928E0,-1.425036621E0,-8.121211853E0,8.408092746E0
6.477194167E0,1.922003174E-1,-4.412823486E-1,-7.679480438E0,7.694549426E0
6.487250167E0,-7.415579224E-1,8.861572266E-2,-6.551575928E0,6.594005462E0
6.497306167E0,-1.151555328E0,3.980223083E-1,-5.200186157E0,5.341014651E0
6.507362167E0,-1.166224823E0,6.023474121E-1,-3.826343079E0,4.045219907E0
6.517418375E0,-1.026714935E0,7.382647705E-1,-2.714754639E0,2.994840760E0
6.527474375E0,-7.256909180E-1,8.214916992E-1,-1.867965546E0,2.165818829E0
6.537530375E0,-4.710704041E-1,7.837701416E-1,-1.236877899E0,1.538203464E0
6.547586375E0,-3.592529297E-1,7.168592834E-1,-8.002359009E-1,1.132840411E0
6.557642375E0,-3.116519165E-1,7.008425903E-1,-5.403762817E-1,9.382503820E-1
6.567698375E0,-2.808160400E-1,7.159611511E-1,-2.909948730E-1,8.222749141E-1
6.577754375E0,-2.739303589E-1,7.403604126E-1,-1.225950623E-1,7.988747908E-1
6.587810375E0,-3.028202820E-1,7.939489746E-1,-3.143463135E-3,8.497440667E-1
6.597866375E0,-3.531156921E-1,8.367599487E-1,1.390608215E-1,9.188012929E-1
6.607922375E0,-4.209246826E-1,8.566685486E-1,2.794688416E-1,9.945659475E-1
6.617978375E0,-5.017565918E-1,8.653504944E-1,4.257147217E-1,1.087117372E0
6.628034375E0,-5.905220032E-1,9.150471497E-1,5.173242188E-1,1.205674861E0
6.638090375E0,-6.605763245E-1,9.824070740E-1,5.710624695E-1,1.314380875E0
6.648146375E0,-6.966513062E-1,1.062939606E0,6.141728210E-1,1.411514046E0
6.658202375E0,-7.204518127E-1,1.157393188E0,6.700067139E-1,1.519051942E0
6.668259375E0,-7.520361328E-1,1.153351593E0,7.538323975E-1,1.569726577E0
6.678315375E0,-8.164022827E-1,1.001417542E0,8.970845032E-1,1.572930509E0
6.688371375E0,-4.141886902E-1,-5.568420410E-2,9.403445435E-1,1.029029087E0
6.698427375E0,1.442999268E-1,-7.328759766E-1,7.783813477E-1,1.078798956E0
6.708483375E0,3.273692322E-1,-9.327104187E-1,8.499325562E-1,1.303650524E0
6.718539375E0,8.930429077E-1,-3.119962006E0,2.090552673E0,3.860323695E0
6.728595375E0,1.190683960E1,-3.498584656E1,8.472381592E-2,3.695658895E1
6.738651375E0,2.785781937E1,-7.900465897E1,-4.580774231E0,8.389742386E1
6.748707375E0,1.419528076E1,-6.955481003E1,-5.078638916E0,7.117000890E1
6.758763375E0,1.032717453E1,-4.963348663E1,-9.560618591E-1,5.070549855E1
6.768819375E0,1.179696808E1,-2.973776001E1,5.533992004E-1,3.199701669E1
6.778875375E0,9.526489563E0,-1.968706055E1,5.297483826E-1,2.187727108E1
6.788931375E0,7.359146576E0,-1.666245026E1,-9.726773071E-1,1.824117288E1
6.798987375E0,6.773264923E0,-1.610755417E1,-2.715652771E0,1.768347220E1
6.809043375E0,6.969357147E0,-1.591610229E1,-4.823269958E0,1.803214309E1
6.819099375E0,6.458918610E0,-1.493938339E1,-6.920259247E0,1.768594905E1
6.829155375E0,5.844596100E0,-1.297367111E1,-8.070167999E0,1.635857748E1
6.839212375E0,5.423671417E0,-1.069376221E1,-8.641829224E0,1.478018857E1
6.849268375E0,4.862189026E0,-8.274343414E0,-8.496481476E0,1.281779382E1
6.859324375E0,3.769910431E0,-6.101461945E0,-8.016878815E0,1.075687726E1
6.869380375E0,2.518363037E0,-4.486170959E0,-6.994355164E0,8.682677376E0
6.879436375E0,1.558708649E0,-3.349734192E0,-5.540428619E0,6.659327376E0
6.889492375E0,8.632548523E-1,-2.537822571E0,-4.192332001E0,4.976082791E0
6.899548375E0,4.433779907E-1,-1.823957062E0,-3.189267883E0,3.700653056E0
6.909604375E0,1.032852173E-1,-1.126257935E0,-2.479593658E0,2.725345755E0
6.919660375E0,-9.804611206E-2,-5.514532471E-1,-1.975741425E0,2.053598768E0
6.929716375E0,-2.074685669E-1,-6.316864014E-2,-1.563498688E0,1.578468128E0
6.939772375E0,-2.998265076E-1,3.264710999E-1,-1.210532684E0,1.289134862E0
6.949828375E0,-2.995271301E-1,5.281018066E-1,-9.074130249E-1,1.091790464E0
6.959884375E0,-2.552192688E-1,5.701643372E-1,-6.893165588E-1,9.302588698E-1
6.969940375E0,-2.531236267E-1,5.995033264E-1,-5.469625854E-1,8.500846303E-1
6.979996375E0,-2.583627319E-1,6.438111877E-1,-4.631369019E-1,8.341102664E-1
6.990052375E0,-3.010240173E-1,6.923103333E-1,-3.803590393E-1,8.453295543E-1
7.000108375E0,-3.761677551E-1,7.505392456E-1,-2.507286072E-1,8.761713152E-1
7.010164375E0,-4.534071350E-1,7.978408813E-1,-1.082249451E-1,9.240350322E-1
7.020221375E0,-5.560935974E-1,8.291258240E-1,1.047821045E-1,1.003827182E0
7.030277375E0,-6.659651184E-1,8.584648132E-1,2.999761963E-1,1.127145551E0
7.040333375E0,-7.713459778E-1,8.987310791E-1,4.372407532E-1,1.262486295E0
7.050389375E0,-8.788224792E-1,9.967771912E-1,5.965095520E-1,1.456611604E0
7.060445375E0,-9.544152832E-1,1.165027313E0,7.608677673E-1,1.687340195E0
7.070501375E0,-1.064436493E0,1.308429108E0,1.000519409E0,1.961135096E0
7.080557375E0,-1.153800659E0,1.341959381E0,1.246457977E0,2.164663584E0
7.090613375E0,-1.283580780E0,1.246158600E0,1.488205261E0,2.327068064E0
7.100669375E0,-1.504671021E0,7.080276489E-1,1.764231262E0,2.424427763E0
7.110725375E0,-9.723779297E-1,-7.494914246E-1,1.757345581E0,2.143716335E0
7.120781375E0,-6.436614990E-2,-1.451082458E0,1.751507721E0,2.275425806E0
7.130837375E0,3.080593872E-1,-1.864522705E0,2.103276215E0,2.827563675E0
7.140893375E0,1.980381775E-1,-3.991749115E0,2.929707642E0,4.955448212E0
7.150949375E0,5.528453522E0,-2.701701782E1,1.985920258E0,2.764827173E1
7.161005375E0,2.865715714E1,-7.554924454E1,-4.366120605E0,8.091961452E1
7.171061375E0,2.101090759E1,-7.160659332E1,-6.899602203E0,7.494375862E1
7.181117375E0,1.316796707E1,-5.426695129E1,-3.510948944E0,5.595198050E1
7.191173375E0,1.497785339E1,-3.634531952E1,-1.026415558E0,3.932393510E1
7.201229375E0,1.249631378E1,-2.355067612E1,-6.969506836E-1,2.666979460E1
7.211286375E0,9.189240875E0,-1.893771881E1,-7.188052368E-1,2.106171936E1
7.221342375E0,6.868317261E0,-1.767943542E1,-1.524729309E0,1.902790105E1
7.231398375E0,5.022954712E0,-1.682950287E1,-3.248394928E0,1.786097171E1
7.241454375E0,4.487218781E0,-1.510913040E1,-4.440815277E0,1.637503570E1
7.251510375E0,5.402415619E0,-1.262714172E1,-5.325325928E0,1.473057700E1
7.261566375E0,5.879623260E0,-9.803563385E0,-5.990093536E0,1.290585314E1
7.271622375E0,6.224655762E0,-7.055428162E0,-6.521787872E0,1.144810565E1
7.281678375E0,6.506369934E0,-4.348307648E0,-7.138505402E0,1.059239767E1
7.291734375E0,6.141279144E0,-1.774110718E0,-7.975564728E0,1.022117464E1
7.301790375E0,4.386029205E0,-1.691482544E-2,-9.972561951E0,1.089447246E1
7.311846375E0,2.313738556E0,6.417155457E-1,-1.217358490E1,1.240811647E1
7.321902375E0,4.155358887E-1,8.430468750E-1,-1.088476501E1,1.092526922E1
7.331958375E0,-1.068627777E0,8.178991699E-1,-7.395221558E0,7.516663240E0
7.342014375E0,-1.652114410E0,8.357121277E-1,-4.866230621E0,5.206543695E0
7.352070375E0,-1.516197052E0,8.472381592E-1,-3.214714966E0,3.653910003E0
7.362126375E0,-1.213526459E0,7.937992859E-1,-2.118544464E0,2.567293209E0
7.372182375E0,-8.584648132E-1,7.333250427E-1,-1.443298645E0,1.832440567E0
7.382238375E0,-6.177653503E-1,7.201524353E-1,-1.021026764E0,1.393825387E0
7.392295375E0,-4.900808716E-1,7.092251587E-1,-6.170169067E-1,1.060136524E0
7.402351375E0,-3.900888062E-1,7.123686218E-1,-3.412902832E-1,8.809752479E-1
7.412407375E0,-3.405418396E-1,7.279362488E-1,-1.396595764E-1,8.156989175E-1
7.422463375E0,-3.442840576E-1,7.551795959E-1,-6.481521606E-2,8.324834813E-1
7.432519375E0,-3.808081055E-1,8.310717773E-1,-7.005432129E-2,9.168438909E-1
7.442575375E0,-4.423301697E-1,9.174421692E-1,-7.035369873E-2,1.020933767E0
7.452631375E0,-5.016069031E-1,9.249266052E-1,6.975494385E-2,1.054497256E0
7.462687375E0,-5.281018066E-1,9.068142700E-1,3.007246399E-1,1.091622163E0
7.472743375E0,-5.267546082E-1,1.002615051E0,5.177732849E-1,1.245309814E0
7.482799375E0,-5.318440247E-1,1.117276611E0,6.825805664E-1,1.413181277E0
7.492855375E0,-5.691165161E-1,1.174158325E0,8.762777710E-1,1.571751925E0
7.502911375E0,-5.836363220E-1,1.245859222E0,1.093476105E0,1.757409045E0
7.512967375E0,-5.363346863E-1,1.343456268E0,1.348845062E0,1.977855567E0
7.523023750E0,-2.489323425E-1,1.244512024E0,1.621428223E0,2.059079156E0
7.533079750E0,4.704716492E-1,3.577560425E-2,1.527573395E0,1.598782019E0
7.543135750E0,4.685256958E-1,-8.789721680E-1,1.243913269E0,1.593558477E0
7.553191750E0,4.855902100E-1,-9.659413147E-1,1.258283386E0,1.658950739E0
7.563247750E0,7.676037598E-1,-1.504072266E0,2.034120026E0,2.643689314E0
7.573303750E0,3.595373383E0,-1.048808990E1,3.450923767E0,1.161187386E1
7.583360750E0,2.208761856E1,-5.847874283E1,-1.312770081E0,6.252479206E1
7.593416750E0,2.706821136E1,-7.631310608E1,-7.499105530E0,8.131798577E1
7.603472750E0,1.004680756E1,-5.747537933E1,-3.818858643E0,5.847171327E1
7.613528750E0,1.007420059E1,-4.362602921E1,6.734495544E-1,4.477916341E1
7.623584750E0,1.183918030E1,-2.840538071E1,-9.363029480E-1,3.078812281E1
7.633640750E0,9.940378876E0,-2.049088898E1,-1.683848419E0,2.283687826E1
7.643696750E0,7.516319733E0,-1.761911087E1,-1.656754761E0,1.922688135E1
7.653752750E0,5.373226318E0,-1.790232193E1,-2.635718994E0,1.887622065E1
7.663808750E0,4.309388580E0,-1.860076950E1,-4.409680023E0,1.959603873E1
7.673864750E0,3.418141937E0,-1.790756104E1,-5.603148193E0,1.907248558E1
7.683920750E0,2.743195496E0,-1.587149506E1,-6.732848969E0,1.745739763E1
7.693976750E0,3.099454651E0,-1.299597473E1,-7.691754913E0,1.541638972E1
7.704032750E0,3.900289307E0,-9.473200378E0,-7.982450409E0,1.298742841E1
7.714088750E0,3.411705322E0,-6.121520233E0,-8.469387817E0,1.099287374E1
7.724144750E0,3.600612488E0,-4.651726685E0,-1.063568298E1,1.215404147E1
7.734200750E0,3.101849670E0,-4.538262634E0,-1.173978699E1,1.296302039E1
7.744256750E0,2.079176331E0,-3.877386932E0,-1.048165329E1,1.136759250E1
7.754312750E0,8.752299500E-1,-2.854713593E0,-8.001909943E0,8.540841872E0
7.764368750E0,-1.127156067E-1,-1.866318970E0,-5.938899994E0,6.226265690E0
7.774425750E0,-4.315525818E-1,-9.422904968E-1,-4.332290955E0,4.454536331E0
7.784481750E0,-4.430786133E-1,-2.315684509E-1,-2.906505890E0,2.949189565E0
7.794537750E0,-3.788621521E-1,2.977308655E-1,-1.897454224E0,1.957680446E0
7.804593750E0,-3.547622681E-1,5.987548828E-1,-1.294208679E0,1.469469218E0
7.814649750E0,-4.165837097E-1,6.894662476E-1,-9.578581238E-1,1.251558180E0
7.824705750E0,-3.641926575E-1,6.879693604E-1,-6.881190491E-1,1.038963887E0
7.834761750E0,-3.109034729E-1,6.849755859E-1,-4.357438660E-1,8.693245881E-1
7.844817750E0,-2.974314880E-1,7.232958984E-1,-3.242257690E-1,8.466078172E-1
7.854873750E0,-3.095562744E-1,8.081694031E-1,-2.746788025E-1,9.079709883E-1
7.864929750E0,-3.471281433E-1,8.693920898E-1,-2.082170105E-1,9.590072352E-1
7.874985750E0,-4.025129700E-1,9.192384338E-1,-9.774673462E-2,1.008251166E0
7.885041750E0,-4.637356567E-1,1.010698242E0,5.882766724E-2,1.113562926E0
7.895097750E0,-5.225633240E-1,1.156045990E0,2.017803955E-1,1.284612816E0
7.905153750E0,-5.849835205E-1,1.321152649E0,3.724255371E-1,1.492096117E0
7.915209750E0,-6.641688538E-1,1.450783081E0,5.869294739E-1,1.700111179E0
7.925265750E0,-7.155120850E-1,1.521286469E0,8.183482361E-1,1.869749689E0
7.935321750E0,-7.926017761E-1,1.561852112E0,1.022373962E0,2.028015807E0
7.945377750E0,-8.204438782E-1,1.567989349E0,1.280137939E0,2.184140998E0
7.955433750E0,-8.214916992E-1,1.436412964E0,1.512005768E0,2.241493310E0
7.965489750E0,-3.129991150E-1,1.516346741E-1,1.619182892E0,1.656114355E0
7.975546750E0,1.924996948E-1,-9.494755554E-1,1.246757355E0,1.578912241E0
7.985602750E0,3.451821899E-1,-9.324110413E-1,1.054407349E0,1.449246684E0
7.995658750E0,5.171745300E-1,-1.007405090E0,1.242416382E0,1.681051152E0
8.005714750E0,1.587897949E0,-6.331084442E0,2.622696075E0,7.034385888E0
8.015770750E0,1.611174545E1,-5.744364532E1,-2.731070709E0,5.972285557E1
8.025826750E0,2.817126755E1,-8.038538773E1,-1.033645523E1,8.580368979E1
8.035882750E0,1.124072479E1,-6.992573868E1,-5.114713898E0,7.100790887E1
8.045938750E0,1.245499969E1,-4.837310760E1,-7.670050049E-1,4.995670979E1
8.055994750E0,1.266426453E1,-2.731549713E1,-1.126407623E0,3.012953325E1
8.066050750E0,8.738677826E0,-1.768916519E1,-1.113833771E0,1.976136840E1
8.076106750E0,5.369035034E0,-1.371732468E1,-7.402107239E-1,1.474921847E1
8.086162750E0,4.260590057E0,-1.211745163E1,-1.384171600E0,1.291902445E1
8.096218750E0,5.051395569E0,-1.069316345E1,-3.181334381E0,1.224668242E1
8.106274750E0,4.590204620E0,-8.676107941E0,-4.044289856E0,1.061607780E1
8.116330750E0,3.864962769E0,-6.926246796E0,-4.489763489E0,9.114209130E0
8.126386750E0,3.605103149E0,-5.724396057E0,-5.086722107E0,8.464054627E0
8.136442750E0,3.872147827E0,-5.008584595E0,-6.026318207E0,8.740478223E0
8.146498750E0,3.320844269E0,-4.231849823E0,-7.140900421E0,8.940303038E0
8.156555750E0,1.703457642E0,-3.425177307E0,-7.478448486E0,8.400047576E0
8.166611750E0,-1.522334290E-1,-2.550246735E0,-6.888375549E0,7.346880367E0
8.176667750E0,-1.083746338E0,-1.469194794E0,-5.654940491E0,5.942338885E0
8.186723750E0,-1.377136230E0,-4.111949158E-1,-4.484674072E0,4.709340399E0
8.196779750E0,-1.294657745E0,3.338058472E-1,-3.207978973E0,3.475441571E0
8.206835750E0,-9.624984741E-1,6.818321228E-1,-2.239343262E0,2.530999131E0
8.216891750E0,-7.240443420E-1,7.620652771E-1,-1.776206360E0,2.063950757E0
8.226947750E0,-5.869294739E-1,7.806266785E-1,-1.426383820E0,1.728709061E0
8.237003750E0,-4.938230896E-1,7.973918152E-1,-1.163081360E0,1.494139619E0
8.247059750E0,-4.601431274E-1,8.065228271E-1,-9.927355957E-1,1.359314067E0
8.257115750E0,-4.391867065E-1,8.553213501E-1,-8.066725159E-1,1.255061800E0
8.267171750E0,-3.854484558E-1,1.022972717E0,-5.954617310E-1,1.244836682E0
8.277227750E0,-2.764750671E-1,1.374741211E0,-3.855981445E-1,1.454316949E0
8.287283750E0,-3.022215271E-1,1.571581879E0,-1.368154907E-1,1.606214784E0
8.297339750E0,-4.234693909E-1,1.578317871E0,1.258882141E-1,1.638981839E0
8.307395750E0,-5.858816528E-1,1.460063782E0,4.209246826E-1,1.628564136E0
8.317451750E0,-8.005352783E-1,1.270408173E0,7.479945374E-1,1.677584420E0
8.327507750E0,-1.061891785E0,1.080752563E0,1.123862915E0,1.886453847E0
8.337563750E0,-1.385369110E0,9.596543884E-1,1.581910400E0,2.311411826E0
8.347620750E0,-1.721869354E0,8.354127502E-1,2.135309601E0,2.867454555E0
8.357676750E0,-2.063009949E0,5.219645691E-1,2.472857666E0,3.262434995E0
8.367732750E0,-2.109862518E0,-3.354524231E-1,2.388582916E0,3.204586794E0
8.377788750E0,-1.074166260E0,-1.241368561E0,1.530267792E0,2.244225606E0
8.387844750E0,-1.303788757E-1,-1.431173859E0,8.500822449E-1,1.669699700E0
8.397900750E0,1.007405090E-1,-1.675765228E0,6.572831726E-1,1.802875181E0
8.407956750E0,8.202941895E-2,-2.409689026E0,7.445516968E-1,2.523427680E0
8.418012750E0,8.796906738E0,-2.154125473E1,-4.245621185E0,2.365241051E1
8.428068750E0,2.775752792E1,-7.392287659E1,-1.309641586E1,8.004116533E1
8.438124750E0,1.773841278E1,-7.257732468E1,-1.001537292E1,7.538187474E1
8.448180750E0,1.283820282E1,-5.198838959E1,-5.035378876E0,5.378631001E1
8.458236750E0,1.623493927E1,-3.341022308E1,-1.723066864E0,3.718582013E1
8.468292750E0,1.371807312E1,-2.014256332E1,-1.483864288E0,2.441536894E1
8.478348750E0,1.044333298E1,-1.525462784E1,-2.441872101E0,1.864750958E1
8.488404750E0,9.284143524E0,-1.355206833E1,-3.889062653E0,1.688131172E1
8.498460750E0,8.578211517E0,-1.352512436E1,-6.274053040E0,1.720111750E1
8.508516750E0,8.839268646E0,-1.390278900E1,-8.542286224E0,1.855777104E1
8.518572500E0,8.339907074E0,-1.357287506E1,-9.265582123E0,1.842899887E1
8.528628500E0,7.380552063E0,-1.186477707E1,-8.955127716E0,1.659637900E1
8.538684500E0,6.237528992E0,-9.384135590E0,-8.293802948E0,1.399128071E1
8.548741500E0,4.545747070E0,-6.825506287E0,-7.496411133E0,1.111069450E1
8.558797500E0,2.836301880E0,-4.755311279E0,-6.618337097E0,8.629019623E0
8.568853500E0,1.523232422E0,-3.310066681E0,-5.557942200E0,6.645863370E0
8.578909500E0,9.714797974E-1,-2.407144318E0,-4.519850922E0,5.212213457E0
8.588965500E0,6.378236389E-1,-1.779349823E0,-3.387306061E0,3.879013681E0
8.599021500E0,3.764671326E-1,-1.233884125E0,-2.433639221E0,2.754414165E0
8.609077500E0,1.493893433E-1,-7.583230591E-1,-1.776206360E0,1.937080295E0
8.619133500E0,-4.011657715E-2,-2.865042114E-1,-1.346899109E0,1.377617949E0
8.629189500E0,-1.628613281E-1,1.257385254E-1,-1.032103729E0,1.052412513E0
8.639245500E0,-2.519261169E-1,3.929328918E-1,-7.467970276E-1,8.806638555E-1
8.649301500E0,-3.167413330E-1,5.381309509E-1,-4.794529724E-1,7.872643426E-1
8.659357500E0,-3.460803223E-1,5.924679565E-1,-2.644999695E-1,7.353571261E-1
8.669413500E0,-3.405418396E-1,6.316864014E-1,-6.631210327E-2,7.206897732E-1
8.679469500E0,-3.797602844E-1,6.960525513E-1,1.222956848E-1,8.022862720E-1
8.689525500E0,-4.445755005E-1,7.747888184E-1,2.894979858E-1,9.390176636E-1
8.699581500E0,-5.255570984E-1,8.515791321E-1,4.730163574E-1,1.106861218E0
8.709637500E0,-6.209088135E-1,9.307644653E-1,6.334826660E-1,1.285749016E0
8.719693500E0,-7.096742249E-1,1.021625519E0,7.518864441E-1,1.453509350E0
8.729749500E0,-7.837701416E-1,1.076112213E0,9.150471497E-1,1.615433198E0
8.739806500E0,-8.804690552E-1,1.125808868E0,1.109343109E0,1.809230085E0
8.749862500E0,-9.717791748E-1,1.182091827E0,1.311572571E0,2.015420170E0
8.759918500E0,-1.061143341E0,1.255139923E0,1.509161682E0,2.231360661E0
8.769974500E0,-1.068927155E0,1.324146423E0,1.708547058E0,2.411452272E0
8.780030500E0,-1.005908203E0,1.249002686E0,1.905836792E0,2.490797643E0
8.790086500E0,-4.074526978E-1,4.923262024E-1,1.931283875E0,2.034271416E0
8.800142500E0,3.264710999E-1,-8.301736450E-1,1.504671021E0,1.749230271E0
8.810198500E0,5.462141418E-1,-1.113384705E0,1.443897400E0,1.903369405E0
8.820254500E0,8.855584717E-1,-1.604962463E0,2.073937225E0,2.767911474E0
8.830310500E0,3.902384949E0,-7.346872101E0,3.367547150E0,8.974715135E0
8.840366500E0,2.398177963E1,-4.874972443E1,1.884580994E-1,5.432952146E1
8.850422500E0,3.162638260E1,-7.943351715E1,-2.866688690E0,8.554606728E1
8.860478500E0,1.523112671E1,-6.398968277E1,-4.210444336E0,6.591202139E1
8.870534500E0,1.443897400E1,-4.598811722E1,-4.258644104E-1,4.820344651E1
8.880590500E0,1.448118622E1,-2.734289017E1,-4.423301697E-1,3.094404713E1
8.890646500E0,1.110390930E1,-1.836321350E1,-3.814068604E-1,2.146275572E1
8.900702500E0,9.275162201E0,-1.618629044E1,-5.584886169E-1,1.866377618E1
8.910758500E0,8.398285675E0,-1.466650085E1,-2.081421661E0,1.702849863E1
8.920814500E0,8.098608856E0,-1.306034088E1,-4.201463013E0,1.593148646E1
8.930870500E0,6.465504913E0,-1.194830338E1,-5.875282288E0,1.480147456E1
8.940927500E0,4.194876709E0,-1.070528824E1,-7.127578125E0,1.352784376E1
8.950983500E0,2.878514099E0,-8.810079346E0,-8.400231628E0,1.250868630E1
8.961039500E0,2.792293396E0,-6.445895691E0,-1.031325348E1,1.247836812E1
8.971095500E0,1.596430206E0,-4.983287201E0,-1.259840149E1,1.364190092E1
8.981151500E0,-1.052012329E0,-3.841162262E0,-1.328517334E1,1.386928578E1
8.991207500E0,-2.079326019E0,-2.309247894E0,-1.210173431E1,1.249432655E1
9.001263500E0,-2.044298859E0,-8.595126343E-1,-1.054437286E1,1.077505076E1
9.011319500E0,-1.986968079E0,2.017803955E-1,-8.241860962E0,8.480390887E0
9.021375500E0,-1.626667328E0,7.122189331E-1,-5.633535004E0,5.906777382E0
9.031431500E0,-1.181942139E0,9.020242310E-1,-3.640429688E0,3.932348311E0
9.041487500E0,-9.877958679E-1,9.059161377E-1,-2.445464630E0,2.788677461E0
9.051543500E0,-8.207432556E-1,7.677534485E-1,-1.811532898E0,2.131834020E0
9.061599500E0,-6.966513062E-1,6.768923950E-1,-1.465153198E0,1.757890853E0
9.071655500E0,-6.480024719E-1,6.297404480E-1,-1.220561829E0,1.518634720E0
9.081711500E0,-6.545887756E-1,6.197113037E-1,-1.054856415E0,1.387534007E0
9.091767500E0,-6.334826660E-1,6.381230164E-1,-8.933422852E-1,1.267502154E0
9.101823500E0,-6.225553894E-1,6.541397095E-1,-7.351213074E-1,1.164421448E0
9.111879500E0,-5.899232483E-1,6.671626282E-1,-5.409750366E-1,1.042002592E0
9.121935500E0,-5.584886169E-1,6.987469482E-1,-3.311114502E-1,9.538299772E-1
9.131991500E0,-5.183720398E-1,7.155120850E-1,-4.296066284E-2,8.845974983E-1
9.142048500E0,-5.177732849E-1,6.572831726E-1,1.942959595E-1,8.589885118E-1
9.152104500E0,-5.453160095E-1,6.403683472E-1,3.647914124E-1,9.167954760E-1
9.162160500E0,-5.885760498E-1,6.393205261E-1,5.566923523E-1,1.032016897E0
9.172216500E0,-6.897656250E-1,6.502478027E-1,8.422984314E-1,1.268095213E0
9.182272500E0,-8.396040344E-1,6.056405640E-1,1.219364319E0,1.599557679E0
9.192328500E0,-9.937834167E-1,2.983296204E-1,1.588047638E0,1.896971624E0
9.202384500E0,-7.773335266E-1,-5.303471375E-1,1.830992432E0,2.058652176E0
9.212440500E0,-5.239105225E-2,-1.082848206E0,1.846260681E0,2.141023952E0
9.222496500E0,4.471202087E-1,-1.301543427E0,1.942211151E0,2.380360462E0
9.232552500E0,1.096619568E0,-3.669469299E0,2.889441376E0,4.797546339E0
9.242608500E0,1.416728897E1,-3.254921356E1,1.282832336E-1,3.549901177E1
9.252664500E0,3.123704224E1,-7.813676376E1,-5.462440796E0,8.432641886E1
9.262720500E0,1.685959030E1,-7.157934998E1,-7.500602417E0,7.391960609E1
9.272776500E0,1.477876740E1,-5.225797897E1,-2.441273346E0,5.436237805E1
9.282832500E0,1.577674210E1,-3.026182022E1,6.279441833E-1,3.413323407E1
9.292888500E0,1.323832077E1,-1.797222656E1,9.717791748E-1,2.234274869E1
9.302944500E0,1.095077774E1,-1.428868652E1,8.922944641E-1,1.802449126E1
9.313000500E0,8.423134003E0,-1.309357178E1,2.844085693E-2,1.556893115E1
9.323056500E0,7.815098419E0,-1.211520630E1,-2.239942017E0,1.459011060E1
9.333112500E0,7.372319183E0,-1.105226669E1,-4.182602234E0,1.392831112E1
9.343169500E0,6.491101685E0,-9.328601074E0,-4.852459259E0,1.235732819E1
9.353225500E0,5.519172821E0,-7.170389099E0,-4.774471436E0,1.023090054E1
9.363281500E0,4.389322357E0,-5.085973663E0,-4.618495789E0,8.152532257E0
9.373337500E0,3.601360931E0,-3.146606598E0,-4.743336182E0,6.735738398E0
9.383393500E0,2.682421875E0,-1.544787598E0,-4.881498871E0,5.780206490E0
9.393449500E0,1.592238922E0,-3.441343689E-1,-5.054539032E0,5.310557228E0
9.403505500E0,3.740721130E-1,3.115022278E-1,-5.174439697E0,5.197286769E0
9.413561500E0,-6.872209167E-1,5.610333252E-1,-5.432652740E0,5.504611410E0
9.423617500E0,-1.377435608E0,6.689588928E-1,-5.484445038E0,5.694205144E0
9.433673500E0,-1.555116119E0,8.758287048E-1,-5.029391327E0,5.336688035E0
9.443729500E0,-1.349892883E0,9.777667236E-1,-4.193529510E0,4.512640947E0
9.453785500E0,-1.126707001E0,9.160949707E-1,-3.250041504E0,3.559700611E0
9.463841500E0,-9.166937256E-1,8.556207275E-1,-2.378254395E0,2.688588511E0
9.473897500E0,-7.761360168E-1,8.319699097E-1,-1.761686554E0,2.097164887E0
9.483953500E0,-6.831793213E-1,7.994874573E-1,-1.360071716E0,1.719217628E0
9.494009500E0,-6.126759338E-1,8.062234497E-1,-1.071621552E0,1.474361150E0
9.504065500E0,-5.734574890E-1,8.123606873E-1,-7.970924377E-1,1.274417409E0
9.514121500E0,-5.487588501E-1,7.975415039E-1,-5.459147644E-1,1.111409761E0
9.524177625E0,-5.490582275E-1,8.198451233E-1,-3.171903992E-1,1.036446194E0
9.534234625E0,-5.596861267E-1,8.372090149E-1,-1.154100037E-1,1.013650316E0
9.544290625E0,-5.983058167E-1,8.325686646E-1,1.945953369E-2,1.025436056E0
9.554346625E0,-6.255491638E-1,8.288264465E-1,1.610650635E-1,1.050812538E0
9.564402625E0,-6.375242615E-1,7.978408813E-1,2.748284912E-1,1.057600092E0
9.574458625E0,-6.918612671E-1,7.617658997E-1,3.832031250E-1,1.098091041E0
9.584514625E0,-8.355624390E-1,6.029461670E-1,5.409750366E-1,1.163770879E0
9.594570625E0,-9.720785522E-1,2.002835083E-1,7.179071045E-1,1.224924817E0
9.604626625E0,-6.515950012E-1,-5.746549988E-1,6.033952332E-1,1.057776073E0
9.614682625E0,-1.281335449E-1,-9.222322083E-1,1.278341675E-1,9.398255294E-1
9.624738625E0,1.249900818E-1,-1.376687164E0,-3.441343689E-1,1.424541517E0
9.634794625E0,5.729934540E0,-1.194560898E1,-2.538271637E0,1.348972003E1
9.644850625E0,3.255400360E1,-6.499918350E1,-1.226354782E1,7.372280252E1
9.654906625E0,3.511697388E1,-7.604441483E1,-1.169682632E1,8.457405410E1
9.664962625E0,1.728500565E1,-5.598208466E1,-4.905598755E0,5.879481373E1
9.675018625E0,1.510883102E1,-3.411241287E1,4.887336731E-1,3.731182584E1
9.685074625E0,1.344803467E1,-1.819556213E1,7.364685059E-2,2.262594841E1
9.695130625E0,1.059137512E1,-1.323667419E1,-1.315763855E-1,1.695299629E1
9.705186625E0,8.816216583E0,-1.198228271E1,-4.382885742E-1,1.488263655E1
9.715242625E0,8.109685822E0,-1.255678802E1,-2.030826874E0,1.508523077E1
9.725298625E0,8.686586151E0,-1.360924942E1,-4.314627686E0,1.671180603E1
9.735354625E0,8.775201874E0,-1.319880295E1,-4.990322571E0,1.661673513E1
9.745411625E0,8.416697388E0,-1.118040024E1,-4.765190735E0,1.478340919E1
9.755467625E0,7.390281830E0,-8.886420593E0,-4.471351776E0,1.239264795E1
9.765523625E0,6.015091553E0,-6.916666718E0,-4.147425385E0,1.006095136E1
9.775579625E0,4.827910309E0,-5.299878845E0,-3.820205841E0,8.123509487E0
9.785635625E0,3.479065247E0,-4.006418610E0,-3.604504395E0,6.414650185E0
9.795691625E0,2.307301941E0,-2.869682465E0,-3.325035553E0,4.961308408E0
9.805747625E0,1.368304596E0,-1.877395935E0,-2.834505615E0,3.664873128E0
9.815803625E0,6.692582703E-1,-1.000369720E0,-2.337688751E0,2.629341155E0
9.825859625E0,2.194436646E-1,-2.817141724E-1,-1.969903564E0,2.002008604E0
9.835915625E0,-1.448986816E-1,2.984793091E-1,-1.651665344E0,1.684661371E0
9.845971625E0,-5.059478760E-1,6.997947693E-1,-1.459914093E0,1.696185465E0
9.856027625E0,-7.864645386E-1,8.957373047E-1,-1.433419189E0,1.864286019E0
9.866083625E0,-7.635621643E-1,8.851094055E-1,-1.383572845E0,1.811275699E0
9.876139625E0,-7.692503357E-1,7.975415039E-1,-1.330283661E0,1.731321215E0
9.886195625E0,-8.132588196E-1,7.214996338E-1,-1.233435059E0,1.644175682E0
9.896251625E0,-8.170010376E-1,6.972500610E-1,-1.097817078E0,1.535855032E0
9.906307625E0,-8.162525940E-1,6.682104492E-1,-9.211843872E-1,1.400483551E0
9.916363625E0,-8.134085083E-1,6.586303711E-1,-7.376660156E-1,1.280460276E0
9.926419625E0,-8.391549683E-1,6.451583862E-1,-5.686674500E-1,1.201579408E0
9.936475625E0,-9.243278503E-1,6.854246521E-1,-3.535647583E-1,1.203825970E0
9.946531625E0,-1.060245209E0,7.250921631E-1,-1.704954529E-1,1.295741968E0
9.956588625E0,-1.146016846E0,8.210426331E-1,-6.930587769E-2,1.411477566E0
9.966644625E0,-1.181343384E0,9.252259827E-1,9.280700684E-3,1.500567040E0
9.976700625E0,-1.227148132E0,9.610015869E-1,5.209167480E-2,1.559528817E0
9.986756625E0,-1.254241791E0,9.298663330E-1,9.744735718E-2,1.564375228E0
9.996812625E0,-1.291663971E0,8.457412720E-1,1.606159973E-1,1.552247278E0
1.000686863E1,-1.203347626E0,5.306465149E-1,2.459385681E-1,1.337952545E0
1.001692463E1,-3.622467041E-1,-4.986131287E-1,1.377136230E-1,6.315083283E-1
1.002698062E1,-1.221459961E-1,-1.002615051E0,-2.092648315E-1,1.031478723E0
1.003703663E1,-1.715432739E-1,-1.315015411E0,-6.147715759E-1,1.461723886E0
1.004709262E1,4.975653076E-1,-2.776426392E0,-8.813671875E-1,2.955151919E0
1.005714863E1,1.860436203E1,-3.621868286E1,-6.608906708E0,4.125036876E1
1.006720462E1,4.147485260E1,-7.962616653E1,-1.421938065E1,9.089928812E1
1.007726063E1,2.257784912E1,-6.892761429E1,-9.632169800E0,7.316798465E1
1.008731662E1,1.688683365E1,-5.217250671E1,-1.324146423E0,5.485334057E1
1.009737263E1,1.592747864E1,-2.994283356E1,1.414558411E-1,3.391574659E1
1.010742862E1,1.165790726E1,-1.710403198E1,-8.310717773E-1,2.071582468E1
1.011748463E1,8.237669678E0,-1.272548721E1,-9.620494080E-1,1.518956107E1
1.012754062E1,5.945037231E0,-1.080572937E1,-1.523831177E0,1.242695926E1
1.013759663E1,4.750521240E0,-1.001297791E1,-2.567311249E0,1.137621491E1
1.014765262E1,4.868176575E0,-9.415420532E0,-3.391946411E0,1.112899759E1
1.015770963E1,4.991520081E0,-8.429121552E0,-3.666924591E0,1.046000472E1
1.016776562E1,4.768334198E0,-7.130272522E0,-3.686982880E0,9.336575390E0
1.017782163E1,4.492757263E0,-5.671256561E0,-3.793261871E0,8.169262784E0
1.018787762E1,4.006568298E0,-4.292324066E0,-3.756588135E0,6.970551616E0
1.019793363E1,3.323987732E0,-3.079546051E0,-3.564088440E0,5.764999977E0
1.020798962E1,2.560126190E0,-2.011816406E0,-3.250041504E0,4.600480534E0
1.021804563E1,1.664987640E0,-1.099313965E0,-2.817890167E0,3.452706189E0
1.022810162E1,8.247848511E-1,-3.900888062E-1,-2.469265137E0,2.632434167E0
1.023815763E1,2.288740540E-1,2.143542480E-1,-2.133962402E0,2.156878905E0
1.024821362E1,-1.588197327E-1,6.566844177E-1,-1.922751617E0,2.037997035E0
1.025826963E1,-4.312532043E-1,9.021739197E-1,-1.738484802E0,2.005548931E0
1.026832562E1,-5.698649597E-1,9.416917419E-1,-1.534758453E0,1.888653732E0
1.027838163E1,-5.544470215E-1,8.797206116E-1,-1.357976074E0,1.710385592E0
1.028843762E1,-5.462141418E-1,8.321195984E-1,-1.202000427E0,1.560633827E0
1.029849363E1,-5.360353088E-1,8.117619324E-1,-1.094224548E0,1.464110190E0
1.030854962E1,-5.536985779E-1,8.000862122E-1,-9.910890198E-1,1.388876347E0
1.031860563E1,-5.918692017E-1,7.855664063E-1,-8.580157471E-1,1.305225939E0
1.032866162E1,-6.363267517E-1,7.671546936E-1,-7.387138367E-1,1.240619277E0
1.033871763E1,-6.530918884E-1,7.358697510E-1,-6.152206421E-1,1.160400682E0
1.034877362E1,-6.792874146E-1,7.122189331E-1,-4.725672913E-1,1.091790751E0
1.035882963E1,-7.357200623E-1,7.361691284E-1,-2.857557678E-1,1.079298547E0
1.036888562E1,-8.165519714E-1,7.893086243E-1,-4.730163574E-2,1.136662954E0
1.037894263E1,-8.809181213E-1,8.164022827E-1,7.649093628E-2,1.203486721E0
1.038899862E1,-9.572593689E-1,7.708969116E-1,2.264790344E-1,1.249768099E0
1.039905463E1,-1.150507507E0,6.224057007E-1,3.745211792E-1,1.360633123E0
1.040911062E1,-1.283431091E0,1.011895752E-1,5.551954651E-1,1.402025927E0
1.041916663E1,-6.990463257E-1,-9.038204956E-1,6.093827820E-1,1.294953524E0
1.042922262E1,-2.269281006E-1,-1.266815643E0,5.783972168E-1,1.410978943E0
1.043927863E1,-2.874023438E-2,-1.283431091E0,3.763174438E-1,1.337772845E0
1.044933462E1,1.122665405E-1,-1.720671844E0,5.014572144E-1,1.795765773E0
1.045939063E1,4.025878143E0,-1.165760788E1,-1.182540894E-2,1.233319327E1
1.046944662E1,2.766591843E1,-6.223922287E1,-8.606502686E0,6.865271877E1
1.047950263E1,3.042108902E1,-7.568126999E1,-1.061038559E1,8.225373892E1
1.048955862E1,1.697006058E1,-5.493950272E1,-4.321812744E0,5.766289951E1
1.049961463E1,1.908486282E1,-3.742816772E1,-1.411414948E0,4.203679127E1
1.050967062E1,1.546778458E1,-2.160292648E1,-1.129102020E0,2.659348912E1
1.051972704E1,1.170386169E1,-1.469868393E1,-1.176852722E0,1.882595735E1
1.052978304E1,1.027014313E1,-1.250125351E1,-1.716630249E0,1.626972644E1
1.053983904E1,1.016581009E1,-1.173335037E1,-2.942431183E0,1.580104765E1
1.054989504E1,9.302106171E0,-1.198303116E1,-4.584516449E0,1.584739745E1
1.055995104E1,7.904312897E0,-1.176044403E1,-5.717360687E0,1.527986974E1
1.057000704E1,6.470744019E0,-1.047791107E1,-5.965694275E0,1.368381002E1
1.058006304E1,5.610482941E0,-8.585097198E0,-5.995781708E0,1.187984895E1
1.059012004E1,5.317841492E0,-6.621630249E0,-6.450086975E0,1.066438218E1
1.060017604E1,4.922214203E0,-4.725223846E0,-6.902446289E0,9.705652880E0
1.061023204E1,3.499871979E0,-3.006497955E0,-6.522386627E0,7.989346728E0
1.062028804E1,1.454225922E0,-1.668280792E0,-5.438340912E0,5.871412582E0
1.063034404E1,2.692900085E-1,-6.971003723E-1,-4.681365051E0,4.740637592E0
1.064040004E1,-3.201841736E-1,1.169068909E-1,-4.142485657E0,4.156485600E0
1.065045604E1,-5.915698242E-1,6.638694763E-1,-3.497776337E0,3.609032674E0
1.066051204E1,-7.375163269E-1,8.649014282E-1,-2.860701141E0,3.078245577E0
1.067056804E1,-7.476951599E-1,9.324110413E-1,-2.303110657E0,2.594755692E0
1.068062404E1,-7.415579224E-1,8.607101440E-1,-1.785786438E0,2.116545135E0
1.069068004E1,-7.226971436E-1,7.794291687E-1,-1.362317047E0,1.727920347E0
1.070073604E1,-7.351213074E-1,7.716453552E-1,-1.056802368E0,1.500890115E0
1.071079204E1,-7.372169495E-1,7.685018921E-1,-8.217910767E-1,1.345148528E0
1.072084804E1,-7.203021240E-1,7.869136047E-1,-6.265969849E-1,1.237211361E0
1.073090404E1,-7.110214233E-1,8.418493652E-1,-4.489164734E-1,1.189868824E0
1.074096004E1,-7.080276489E-1,8.794212341E-1,-2.176473999E-1,1.149806614E0
1.075101604E1,-7.015910339E-1,9.380992126E-1,-3.412902832E-2,1.171932124E0
1.076107204E1,-6.759942627E-1,9.572593689E-1,1.666035461E-1,1.183668232E0
1.077112804E1,-6.568341064E-1,9.620494080E-1,3.694317627E-1,1.222067893E0
1.078118404E1,-6.530918884E-1,9.740245056E-1,5.908213806E-1,1.313134668E0
1.079124004E1,-6.349795532E-1,1.056353302E0,7.867639160E-1,1.462217081E0
1.080129704E1,-5.688171387E-1,1.174008636E0,1.019978943E0,1.655960827E0
1.081135304E1,-4.233197021E-1,1.308578796E0,1.447340240E0,1.996590045E0
1.082140904E1,7.409591675E-2,1.209035797E0,1.730551300E0,2.112360188E0
1.083146504E1,9.168434143E-1,1.091230774E-1,1.649869080E0,1.890655355E0
1.084152104E1,8.485853577E-1,-8.072712708E-1,1.263971558E0,1.723197061E0
1.085157704E1,7.705975342E-1,-9.280700684E-1,9.774673462E-1,1.552603306E0
1.086163304E1,9.482780457E-1,-1.469943237E0,1.464255066E0,2.281229333E0
1.087168904E1,5.796695709E0,-1.263282990E1,2.448159027E0,1.411324041E1
1.088174504E1,3.453992386E1,-6.742144638E1,-5.269492035E0,7.593698255E1
1.089180104E1,4.042837875E1,-7.920359528E1,-7.557633820E0,8.924562254E1
1.090185704E1,1.667322784E1,-6.243067474E1,-2.345921631E0,6.466134103E1
1.091191304E1,1.459360245E1,-3.864648422E1,-8.342152405E-1,4.131851752E1
1.092196904E1,1.180145874E1,-2.166534668E1,-1.486408997E0,2.471580642E1
1.093202504E1,7.530540161E0,-1.476484634E1,-2.083966370E0,1.670486871E1
1.094208104E1,4.975503387E0,-1.226429626E1,-2.353555756E0,1.344276093E1
1.095213704E1,4.446204071E0,-1.089659042E1,-3.862717438E0,1.238648455E1
1.096219304E1,6.038143616E0,-8.901090088E0,-6.113137665E0,1.237170300E1
1.097224904E1,6.133495331E0,-7.509284363E0,-7.604187012E0,1.232204434E1
1.098230504E1,5.057383118E0,-6.549629974E0,-8.554411011E0,1.190179501E1
1.099236104E1,3.538491669E0,-5.744753723E0,-9.061556396E0,1.129756270E1
1.100241704E1,1.612147522E0,-5.125491486E0,-9.482181702E0,1.089869040E1
1.101247304E1,2.424957275E-2,-3.913461914E0,-9.958790588E0,1.070015337E1
1.102253004E1,-7.014413452E-1,-2.564018097E0,-9.498048706E0,9.863018705E0
1.103258604E1,-9.210346985E-1,-1.384021912E0,-7.496411133E0,7.678541622E0
1.104264204E1,-6.956034851E-1,-5.653742981E-1,-5.071902924E0,5.150505953E0
1.105269804E1,-4.650828552E-1,-3.847000122E-2,-3.167712708E0,3.201903465E0
1.106275404E1,-4.441264343E-1,3.213816833E-1,-1.970951385E0,2.045772187E0
1.107281004E1,-5.388793945E-1,5.379812622E-1,-1.283730469E0,1.492574540E0
1.108286604E1,-5.644761658E-1,5.433700562E-1,-9.554631042E-1,1.235635101E0
1.109292204E1,-4.911286926E-1,5.164260864E-1,-7.518864441E-1,1.035971293E0
1.110297804E1,-4.517605591E-1,5.393284607E-1,-6.899153137E-1,9.853658871E-1
1.111303404E1,-4.246669006E-1,5.909710693E-1,-6.584806824E-1,9.814201905E-1
1.112309004E1,-3.983216858E-1,6.156697083E-1,-5.017565918E-1,8.885206989E-1
1.113314604E1,-3.948788452E-1,6.500981140E-1,-3.272195435E-1,8.280274693E-1
1.114320204E1,-4.248165894E-1,7.497908020E-1,-1.329235840E-1,8.719656304E-1
1.115325804E1,-4.728666687E-1,8.201445007E-1,8.442443848E-2,9.504564031E-1
1.116331404E1,-5.713618469E-1,9.240284729E-1,3.794609070E-1,1.150770854E0
1.117337004E1,-6.394702148E-1,1.010249176E0,6.613247681E-1,1.366336709E0
1.118342604E1,-7.704478455E-1,1.090033264E0,1.047072601E0,1.696503296E0
1.119348204E1,-9.403445435E-1,1.099313965E0,1.445394287E0,2.044970342E0
1.120353804E1,-1.126856689E0,1.010698242E0,1.823807373E0,2.370145622E0
1.121359404E1,-1.488055573E0,8.366102600E-1,2.426154785E0,2.966555773E0
1.122365004E1,-1.550326080E0,1.661544800E-2,2.608475647E0,3.034457485E0
1.123370604E1,-4.287084961E-1,-1.142124939E0,2.124981079E0,2.450262218E0
1.124376304E1,3.077600098E-1,-1.290017395E0,1.737436981E0,2.185760364E0
1.125381904E1,4.799020386E-1,-1.317111053E0,1.445693665E0,2.013732273E0
1.126387504E1,4.593946838E-1,-1.581311646E0,1.439406738E0,2.187117225E0
1.127393104E1,3.161874847E0,-8.247998199E0,1.982327728E0,9.052985699E0
1.128398704E1,2.343825989E1,-5.453564255E1,-3.723057861E0,5.947562101E1
1.129404304E1,2.968491989E1,-7.981941467E1,-1.135403915E1,8.591418761E1
1.130409904E1,1.681034271E1,-6.313481049E1,-8.422385559E0,6.587509769E1
1.131415504E1,1.733679794E1,-4.022614929E1,-2.210902405E0,4.385881598E1
1.132421104E1,1.424243271E1,-2.292213318E1,-4.399351501E-1,2.699008377E1
1.133426704E1,1.135957764E1,-1.549308197E1,-1.073268127E-1,1.921164001E1
1.134432304E1,9.082662506E0,-1.257579849E1,-9.187893677E-1,1.553993693E1
1.135437904E1,8.413703613E0,-1.188049438E1,-3.174598389E0,1.490015538E1
1.136443504E1,8.052055664E0,-1.196911011E1,-5.467979279E0,1.542705398E1
1.137449104E1,7.415878601E0,-1.156884247E1,-7.413184204E0,1.561373343E1
1.138454704E1,6.744375000E0,-1.021146515E1,-8.674910431E0,1.500048951E1
1.139460304E1,5.879623260E0,-8.276738434E0,-9.575138397E0,1.395555961E1
1.140465904E1,4.647535400E0,-6.001020813E0,-9.611961823E0,1.224751592E1
1.141471504E1,3.103196869E0,-4.076173553E0,-9.080716553E0,1.042614189E1
1.142477104E1,1.743574219E0,-2.780917053E0,-8.100405121E0,8.740143811E0
1.143482704E1,8.122109985E-1,-1.835333405E0,-6.586303711E0,6.885312773E0
1.144488304E1,2.460882568E-1,-1.175804901E0,-4.956043854E0,5.099553635E0
1.145493904E1,-4.236190796E-2,-6.640191650E-1,-3.532354431E0,3.594474066E0
1.146499604E1,-1.911524963E-1,-2.647993469E-1,-2.456541595E0,2.478155480E0
1.147505204E1,-3.233276367E-1,3.607498169E-2,-1.679208069E0,1.710433250E0
1.148510804E1,-4.587959290E-1,2.811154175E-1,-1.150507507E0,1.270113029E0
1.149516404E1,-4.995112610E-1,4.522096252E-1,-8.253836060E-1,1.065487279E0
1.150522004E1,-4.150868225E-1,4.725672913E-1,-6.448590088E-1,9.008107771E-1
1.151527604E1,-4.074526978E-1,4.522096252E-1,-5.322930908E-1,8.086081750E-1
1.152533192E1,-4.209246826E-1,4.564009094E-1,-4.487667847E-1,7.660750652E-1
1.153538792E1,-4.189787292E-1,4.998106384E-1,-3.758683777E-1,7.527488872E-1
1.154544392E1,-4.483177185E-1,5.376818848E-1,-2.686912537E-1,7.498570369E-1
1.155549992E1,-4.908293152E-1,5.499563599E-1,-1.752854919E-1,7.576875465E-1
1.156555592E1,-5.743556213E-1,5.912704468E-1,-9.325607300E-2,8.295672463E-1
1.157561192E1,-6.951544189E-1,5.821394348E-1,1.749861145E-1,9.234425418E-1
1.158566792E1,-8.316705322E-1,6.168672180E-1,4.312532043E-1,1.121686393E0
1.159572392E1,-9.997709656E-1,6.518943787E-1,6.870712280E-1,1.377161986E0
1.160577992E1,-1.170266418E0,6.818321228E-1,9.765692139E-1,1.669762248E0
1.161583592E1,-1.398990784E0,7.256909180E-1,1.223106537E0,1.994941634E0
1.162589192E1,-1.838177490E0,7.198530579E-1,1.423090668E0,2.433571852E0
1.163594792E1,-2.239043884E0,3.020718384E-1,1.498234406E0,2.710953936E0
1.164600392E1,-1.544937286E0,-1.323697357E0,1.062191162E0,2.295050321E0
1.165605992E1,-9.648934937E-1,-2.467468872E0,5.078938293E-1,2.697661623E0
1.166611592E1,-4.342469788E-1,-2.416125641E0,6.388714600E-1,2.536610000E0
1.167617192E1,1.617386627E0,-4.713548126E0,7.625143433E-1,5.041319625E0
1.168622792E1,2.392834076E1,-3.414579346E1,-6.228697357E0,4.215800485E1
1.169628492E1,3.366813675E1,-7.777032578E1,-1.033600616E1,8.537329809E1
1.170634092E1,1.441741882E1,-7.178382477E1,-6.192173309E0,7.347872123E1
1.171639692E1,2.040272232E1,-4.196179001E1,-1.825903015E0,4.669471941E1
1.172645292E1,1.759186752E1,-2.141731247E1,-9.702822876E-1,2.773295015E1
1.173650892E1,1.420800430E1,-1.245694565E1,1.487905884E-1,1.889616416E1
1.174656492E1,1.289568329E1,-8.747060394E0,-2.128573608E-1,1.558380638E1
1.175662092E1,1.269629791E1,-9.220076752E0,-2.281705170E0,1.585597599E1
1.176667692E1,1.213810867E1,-1.126332779E1,-4.929399261E0,1.727701398E1
1.177673292E1,1.042851379E1,-1.194740524E1,-6.341263275E0,1.707940315E1
1.178678892E1,8.577313385E0,-1.123907822E1,-6.269113312E0,1.546573522E1
1.179684492E1,6.711443481E0,-9.588011627E0,-5.879024506E0,1.309718938E1
1.180690092E1,4.973407745E0,-7.331154785E0,-5.277275848E0,1.031165629E1
1.181695692E1,3.083437958E0,-5.324427795E0,-4.745581512E0,7.770306614E0
1.182701292E1,1.740580444E0,-3.710334320E0,-4.614154816E0,6.171436276E0
1.183706892E1,1.112785950E0,-2.233355713E0,-4.514761505E0,5.158414656E0
1.184712492E1,6.541397095E-1,-1.044228516E0,-4.474944305E0,4.641490977E0
1.185718092E1,2.239343262E-1,-1.628613281E-1,-4.483326874E0,4.491869349E0
1.186723692E1,-2.390528870E-1,4.270619202E-1,-4.623734894E0,4.649564768E0
1.187729292E1,-7.469467163E-1,8.448431396E-1,-4.842280426E0,4.971857706E0
1.188734892E1,-1.029109955E0,1.047072601E0,-4.915927277E0,5.130474571E0
1.189740492E1,-1.166973267E0,1.024918671E0,-4.735702057E0,4.983889932E0
1.190746092E1,-1.333127747E0,9.741741943E-1,-4.112098846E0,4.431207722E0
1.191751692E1,-1.393302612E0,9.369017029E-1,-3.328777771E0,3.728248707E0
1.192757292E1,-1.334624634E0,8.934919739E-1,-2.550546112E0,3.014106217E0
1.193762992E1,-1.249002686E0,8.749305725E-1,-1.973196716E0,2.493795600E0
1.194768592E1,-1.175954590E0,8.393046570E-1,-1.551822968E0,2.120249048E0
1.195774192E1,-1.089733887E0,7.911048889E-1,-1.138083344E0,1.763122397E0
1.196779792E1,-1.023272095E0,7.126679993E-1,-8.063731384E-1,1.484998012E0
1.197785392E1,-9.897418213E-1,6.487509155E-1,-4.969665527E-1,1.283527319E0
1.198790992E1,-1.091081085E0,6.132746887E-1,-2.520758057E-1,1.276756042E0
1.199796592E1,-1.316063232E0,5.725593567E-1,-7.185058594E-3,1.435234571E0
1.200802192E1,-1.641636200E0,4.855902100E-1,2.142045593E-1,1.725297325E0
1.201807792E1,-2.106269989E0,2.983296204E-1,3.960763550E-1,2.163850805E0
1.202813392E1,-2.711910553E0,-1.213975525E-1,7.000941467E-1,2.803449309E0
1.203818992E1,-1.149010620E0,-1.124461670E0,8.113128662E-1,1.800796496E0
1.204824592E1,5.194198608E-2,-1.365161133E0,6.072871399E-1,1.495045337E0
1.205830192E1,1.772314453E-1,-1.356329498E0,5.053491211E-1,1.458224409E0
1.206835792E1,4.499642944E-1,-1.452130280E0,7.415579224E-1,1.691466336E0
1.207841392E1,2.397713928E0,-3.026556244E0,2.150877228E0,4.419880952E0
1.208846992E1,2.292497726E1,-2.352403152E1,-1.540895691E0,3.288326324E1
1.209852592E1,5.369723602E1,-6.609939560E1,-1.162362854E1,8.595133504E1
1.210858192E1,4.043915634E1,-6.185527130E1,-9.542356567E0,7.451480740E1
1.211863792E1,3.052242828E1,-4.214620651E1,-3.417094116E0,5.214976399E1
1.212869392E1,2.371293869E1,-2.234822662E1,-1.985171814E0,3.264487099E1
1.213874992E1,1.732063156E1,-1.081291443E1,-2.712658997E0,2.059810464E1
1.214880592E1,1.501991592E1,-8.719667358E0,-5.203030243E0,1.813014057E1
1.215886192E1,1.562106583E1,-9.787097626E0,-7.343878326E0,1.984282052E1
1.216891892E1,1.567734879E1,-1.048404831E1,-7.956404572E0,2.046946281E1
1.217897492E1,1.364008530E1,-9.386979675E0,-8.091573486E0,1.842934822E1
1.218903092E1,1.111378876E1,-7.540718994E0,-7.824828186E0,1.554370225E1
1.219908692E1,8.635392609E0,-5.572012939E0,-6.768325195E0,1.230559059E1
1.220914292E1,6.438261566E0,-4.311783600E0,-5.575455780E0,9.546119471E0
1.221919892E1,4.931494904E0,-3.258723450E0,-4.383933563E0,7.359197918E0
1.222925492E1,3.723656616E0,-2.363285522E0,-3.470233612E0,5.611885457E0
1.223931092E1,2.711012421E0,-1.626367950E0,-2.779719543E0,4.209691413E0
1.224936692E1,1.801503754E0,-1.134640503E0,-2.176473999E0,3.044645121E0
1.225942292E1,9.877958679E-1,-8.473878479E-1,-1.684147797E0,2.128417403E0
1.226947892E1,3.379971313E-1,-6.131250000E-1,-1.288819885E0,1.466704136E0
1.227953492E1,-1.300794983E-1,-3.394940186E-1,-9.559121704E-1,1.022714497E0
1.228959092E1,-3.954776001E-1,-4.251159668E-2,-6.360273743E-1,7.501603754E-1
1.229964692E1,-4.349954224E-1,1.859133911E-1,-4.327500916E-1,6.411376203E-1
1.230970292E1,-3.396437073E-1,2.912942505E-1,-2.339634705E-1,5.049248397E-1
1.231975892E1,-3.159928894E-1,2.444416809E-1,-5.119354248E-2,4.027704313E-1
1.232981492E1,-3.613485718E-1,2.056723022E-1,7.843688965E-2,4.231149157E-1
1.233987092E1,-4.724176025E-1,1.890568542E-1,1.026864624E-1,5.191005634E-1
1.234992692E1,-6.020480347E-1,1.649569702E-1,6.466552734E-2,6.275780975E-1
1.235998292E1,-7.521858215E-1,1.755848694E-1,5.104385376E-2,7.740923921E-1
1.237003892E1,-9.539662170E-1,1.522334290E-1,4.296066284E-2,9.669913023E-1
1.238009492E1,-1.239871674E0,9.550140381E-2,6.571334839E-2,1.245279298E0
1.239015092E1,-1.941462708E0,-2.245330811E-2,7.783813477E-2,1.943152174E0
1.240020792E1,-4.261937256E0,-4.044589233E-1,-1.026864624E-1,4.282317212E0
1.241026392E1,-5.196294250E0,-4.831951904E-1,7.095245361E-2,5.219193978E0
1.242031992E1,-4.030817871E0,-1.733395386E-1,7.358697510E-1,4.101102729E0
1.243037592E1,-2.064207458E0,-2.203417969E-1,1.233584747E0,2.414794871E0
1.244043192E1,-3.842509460E-1,-5.403762817E-1,1.309027863E0,1.467381770E0
1.245048792E1,1.746867371E-1,-7.174580383E-1,1.067879333E0,1.298317282E0
1.246054392E1,4.950205994E-1,-1.081501007E0,7.171586609E-1,1.388886737E0
1.247059992E1,6.553372192E-1,-1.287173309E0,4.489164734E-1,1.512550164E0
1.248065592E1,8.322692871E-1,-1.314865723E0,3.698808289E-1,1.599486124E0
1.249071192E1,3.534899139E0,-2.845432892E0,5.589376831E-1,4.572134250E0
1.250076792E1,3.640429688E1,-2.391277313E1,-2.516417084E0,4.362826956E1
1.251082392E1,5.694772659E1,-5.432098892E1,-8.965755615E0,7.920983635E1
1.252087992E1,3.130350403E1,-4.520644272E1,-6.229894867E0,5.533844430E1
1.253093504E1,3.214265900E1,-3.586362122E1,2.100132751E-1,4.816008679E1
1.254099104E1,3.008084656E1,-2.113844238E1,1.647923126E0,3.680226524E1
1.255104704E1,2.173659851E1,-1.412537613E1,-1.541793823E-1,2.592353635E1
1.256110304E1,1.603809860E1,-1.044812302E1,-1.196461945E0,1.917851409E1
1.257115904E1,1.404663986E1,-9.674232330E0,-2.922821960E0,1.730438531E1
1.258121504E1,1.429662003E1,-9.744735718E0,-4.390968933E0,1.785031727E1
1.259127104E1,1.398586624E1,-8.704848175E0,-5.464985504E0,1.735640812E1
1.260132704E1,1.261007721E1,-7.144492950E0,-6.273454285E0,1.579284824E1
1.261138304E1,1.092084000E1,-5.762117615E0,-6.736441498E0,1.406578792E1
1.262143904E1,9.036109314E0,-4.185446320E0,-6.910978546E0,1.212150390E1
1.263149504E1,7.053182831E0,-2.856060791E0,-6.807992706E0,1.021044739E1
1.264155204E1,5.131029968E0,-1.771566010E0,-6.300098877E0,8.316078434E0
1.265160804E1,3.546574860E0,-8.800199890E-1,-5.573659515E0,6.664706206E0
1.266166404E1,2.435585175E0,-4.364923096E-1,-4.687651978E0,5.300630315E0
1.267172004E1,1.657353516E0,-2.881507874E-1,-3.730542297E0,4.092285105E0
1.268177604E1,1.044527893E0,-2.499801636E-1,-2.887345734E0,3.080632076E0
1.269183204E1,6.686595154E-1,-2.722837830E-1,-2.323318634E0,2.432910496E0
1.270188804E1,3.700305176E-1,-3.832031250E-2,-1.767374725E0,1.806102004E0
1.271194404E1,2.290237427E-2,9.789642334E-2,-1.331181793E0,1.334973106E0
1.272200004E1,-3.071612549E-1,1.686991882E-1,-1.006207581E0,1.065486343E0
1.273205604E1,-3.427871704E-1,4.131408691E-1,-7.479945374E-1,9.206976973E-1
1.274211204E1,-1.930984497E-1,6.770420837E-1,-4.719685364E-1,8.476009048E-1
1.275216804E1,-1.480421448E-1,6.713539124E-1,-1.757345581E-1,7.095880405E-1
1.276222404E1,-2.621049500E-1,5.635780334E-1,7.110214233E-2,6.255994879E-1
1.277228004E1,-4.231700134E-1,4.781057739E-1,2.195933533E-1,6.751882938E-1
1.278233604E1,-5.771997070E-1,3.662882996E-1,3.058140564E-1,7.488984292E-1
1.279239204E1,-7.454498291E-1,2.713856506E-1,3.076103210E-1,8.508641071E-1
1.280244804E1,-8.590635681E-1,2.209405518E-1,2.764750671E-1,9.291089302E-1
1.281250404E1,-9.205856323E-1,2.359094238E-1,3.975732422E-1,1.030143507E0
1.282256004E1,-1.052611084E0,2.005828857E-1,5.727090454E-1,1.214997629E0
1.283261604E1,-1.112037506E0,1.773811340E-1,7.158114624E-1,1.334345357E0
1.284267204E1,-1.172661438E0,1.585203552E-1,8.446934509E-1,1.453881212E0
1.285272804E1,-1.260528717E0,1.025367737E-1,9.505233765E-1,1.582068622E0
1.286278404E1,-1.161883850E0,-9.280700684E-2,1.042881317E0,1.564029624E0
1.287284004E1,2.142045593E-1,-3.814068604E-1,1.195264435E0,1.272796863E0
1.288289704E1,7.658074951E-1,-3.525169373E-1,1.357826385E0,1.598255863E0
1.289295304E1,1.085692291E0,-3.221301270E-1,1.628463593E0,1.983529491E0
1.290300904E1,3.958817596E0,-8.613088989E-1,2.645448761E0,4.838645361E0
1.291306504E1,3.352578278E1,-1.386461838E1,4.387675781E0,3.654391129E1
1.292312104E1,6.214357178E1,-3.440789841E1,4.212989044E0,7.115810750E1
1.293317704E1,4.480318130E1,-3.568698853E1,3.383264465E0,5.737885223E1
1.294323304E1,4.663192841E1,-2.716715561E1,4.752317505E0,5.417726103E1
1.295328904E1,3.121264297E1,-1.674552750E1,3.222498779E0,3.556720780E1
1.296334504E1,1.822984085E1,-1.076037369E1,1.879790955E0,2.125197293E1
1.297340104E1,1.498593658E1,-8.907975769E0,6.378236389E-1,1.744526144E1
1.298345704E1,1.547032928E1,-8.783285065E0,-8.499325562E-1,1.781009742E1
1.299351304E1,1.661230453E1,-8.625363464E0,-2.584375763E0,1.889562264E1
1.300356904E1,1.541254944E1,-7.999215546E0,-3.910168762E0,1.779953790E1
1.301362504E1,1.317769684E1,-7.083120575E0,-4.083059235E0,1.550785813E1
1.302368104E1,1.126662094E1,-5.855972443E0,-3.811972961E0,1.325746199E1
1.303373704E1,9.320368195E0,-4.579427032E0,-3.517235870E0,1.096409428E1
1.304379304E1,7.619604950E0,-3.385360107E0,-3.206781464E0,8.933223942E0
1.305384904E1,5.889053650E0,-2.278561707E0,-2.917133789E0,6.955750562E0
1.306390504E1,4.343966675E0,-1.406026154E0,-2.738255768E0,5.324002317E0
1.307396104E1,3.023712158E0,-7.134164429E-1,-2.738106079E0,4.141137904E0
1.308401704E1,2.278861084E0,-7.319778442E-2,-2.804567871E0,3.614438642E0
1.309407304E1,1.208886108E0,1.181044006E-1,-2.779869232E0,3.033649159E0
1.310412904E1,4.656816101E-1,2.427951050E-1,-2.674638062E0,2.725710473E0
1.311418504E1,-1.291813660E-1,3.888912964E-1,-2.545456696E0,2.578230799E0
1.312424204E1,-5.791456604E-1,5.697152710E-1,-2.322869568E0,2.460834861E0
1.313429804E1,-8.250842285E-1,7.140151978E-1,-2.063608704E0,2.334322722E0
1.314435404E1,-9.630972290E-1,7.511380005E-1,-1.884880371E0,2.246005027E0
1.315441004E1,-1.052910461E0,6.716532898E-1,-1.680405579E0,2.093681325E0
1.316446604E1,-1.215023346E0,4.041595459E-1,-1.484612732E0,1.960536058E0
1.317452204E1,-1.454974365E0,7.200027466E-2,-1.314266968E0,1.961996969E0
1.318457804E1,-1.626068573E0,-1.796264648E-3,-1.243015137E0,2.046750806E0
1.319463404E1,-1.706002350E0,6.242019653E-2,-1.219663696E0,2.098075268E0
1.320469004E1,-1.839075623E0,1.269360352E-1,-1.208137665E0,2.204066360E0
1.321474604E1,-2.145638123E0,9.654922485E-2,-1.082249451E0,2.405067271E0
1.322480204E1,-2.566862183E0,-6.047424316E-2,-8.846603394E-1,2.715706633E0
1.323485804E1,-2.441123657E0,-3.382965088E-2,-5.688171387E-1,2.506747313E0
1.324491404E1,-2.022294617E0,1.097218323E-1,-3.700305176E-1,2.058795031E0
1.325497004E1,-1.347797241E0,8.382568359E-2,-1.490899658E-1,1.358606627E0
1.326502604E1,5.403762817E-2,-1.543290710E-1,2.029779053E-1,2.606483406E-1
1.327508204E1,4.701722717E-1,-1.953437805E-1,3.321592712E-1,6.079070152E-1
1.328513804E1,4.122427368E-1,-2.568658447E-1,3.884422302E-1,6.219417195E-1
1.329519404E1,4.453239441E-1,-2.766247559E-1,3.396437073E-1,6.246539191E-1
1.330525004E1,1.322499847E0,-7.927514648E-1,3.591032410E-1,1.583166406E0
1.331530604E1,2.447260895E1,-9.736951904E0,-3.327580261E-1,2.634060647E1
1.332536204E1,6.097779602E1,-3.260804123E1,-2.697390747E-1,6.914946652E1
1.333541804E1,4.617537781E1,-3.926694397E1,-6.271957397E-2,6.061404407E1
1.334547404E1,4.962809784E1,-2.930830307E1,2.778821411E0,5.770308980E1
1.335553004E1,3.643064209E1,-1.883952301E1,3.368744659E0,4.115176486E1
1.336558604E1,2.243998581E1,-1.171404053E1,2.753973083E0,2.546283716E1
1.337564204E1,1.754306900E1,-8.591533813E0,1.615889740E0,1.960063323E1
1.338569904E1,1.648911072E1,-7.482490082E0,-1.335223389E-1,1.810790596E1
1.339575504E1,1.779080383E1,-6.959777069E0,-1.655557251E0,1.917529837E1
1.340581104E1,1.734143829E1,-6.461613007E0,-2.443518677E0,1.866678088E1
1.341586704E1,1.530627045E1,-5.497168579E0,-2.672392731E0,1.648157942E1
1.342592304E1,1.317829559E1,-4.426744537E0,-2.425855408E0,1.411199194E1
1.343597904E1,1.115689911E1,-3.515439606E0,-2.081721039E0,1.188142566E1
1.344603504E1,8.966953125E0,-2.713856506E0,-1.710642700E0,9.523526864E0
1.345609104E1,6.999294891E0,-1.935475159E0,-1.435963898E0,7.402579644E0
1.346614704E1,5.435347137E0,-1.146765289E0,-1.402134247E0,5.729227660E0
1.347620304E1,3.922742615E0,-6.405180359E-1,-1.526824951E0,4.257859487E0
1.348625904E1,2.735860748E0,-2.384541321E-1,-1.700763245E0,3.230230645E0
1.349631504E1,1.781445465E0,-6.586303711E-3,-1.851799164E0,2.569581964E0
1.350637104E1,9.086105347E-1,1.049317932E-1,-1.992057495E0,2.192002931E0
1.351642704E1,8.352630615E-2,1.435514832E-1,-2.045346680E0,2.052078632E0
1.352648375E1,-6.007008362E-1,1.474433899E-1,-2.136806488E0,2.224527594E0
1.353653975E1,-9.972262573E-1,2.514770508E-1,-2.278112640E0,2.499499573E0
1.354659575E1,-1.237326965E0,3.008743286E-1,-2.245181122E0,2.581151226E0
1.355665175E1,-1.353186035E0,2.829116821E-1,-2.113305359E0,2.525314041E0
1.356670775E1,-1.443897400E0,1.697470093E-1,-1.913919983E0,2.403485687E0
1.357676375E1,-1.572480011E0,1.257385254E-2,-1.656455383E0,2.284008740E0
1.358681975E1,-1.773362274E0,-1.122665405E-1,-1.413211212E0,2.270370776E0
1.359687575E1,-2.108964386E0,-2.730322266E-1,-1.134490814E0,2.410258655E0
1.360693175E1,-2.876268768E0,-5.038522339E-1,-8.437953186E-1,3.039536090E0
1.361698775E1,-3.176095276E0,-5.334906006E-1,-5.686674500E-1,3.270409163E0
1.362704375E1,-2.708617401E0,-2.189945984E-1,-3.608995056E-1,2.741316347E0
1.363709975E1,-2.195484467E0,3.890409851E-1,-1.341210938E-1,2.233717395E0
1.364715675E1,-2.195933533E0,3.279679871E-1,1.826202393E-1,2.227787520E0
1.365721275E1,-2.338586884E0,1.002914429E-1,5.155279541E-1,2.396834591E0
1.366726875E1,-1.805695038E0,-1.404080200E-1,9.213340759E-1,2.032020044E0
1.367732475E1,-2.402503967E-1,-3.001258850E-1,1.192420349E0,1.252861560E0
1.368738075E1,5.803431702E-1,-1.978884888E-1,1.072519684E0,1.235417549E0
1.369743675E1,8.969348145E-1,-1.266366577E-1,9.223818970E-1,1.292794364E0
1.370749275E1,1.014590149E0,-7.634124756E-2,1.058299255E0,1.468066235E0
1.371754875E1,1.536405029E0,8.951385498E-2,1.501228180E0,2.149939346E0
1.372760475E1,1.342857513E1,-3.178190918E0,1.778601379E0,1.391369651E1
1.373766075E1,5.879219101E1,-2.348496277E1,-4.939727783E-3,6.330928229E1
1.374771675E1,5.981845688E1,-3.366349640E1,3.772155762E-2,6.864022287E1
1.375777275E1,4.833523636E1,-2.788012299E1,3.464096375E0,5.590703261E1
1.376782875E1,4.070096191E1,-1.964739304E1,4.973707123E0,4.546785806E1
1.377788475E1,2.513483185E1,-1.192180847E1,2.960393829E0,2.797594004E1
1.378794075E1,1.869612122E1,-9.109905853E0,1.782792664E0,2.087375584E1
1.379799675E1,1.717019440E1,-8.383616180E0,7.948471069E-2,1.910777103E1
1.380805275E1,1.834255646E1,-8.541687469E0,-2.074985046E0,2.033999423E1
1.381810875E1,1.802746170E1,-8.353079681E0,-4.006119232E0,2.026850529E1
1.382816475E1,1.548709442E1,-7.679480438E0,-5.319039001E0,1.808636750E1
1.383822075E1,1.276904663E1,-6.372398529E0,-5.778283997E0,1.539625217E1
1.384827675E1,1.011386810E1,-4.923860779E0,-6.419849854E0,1.295180316E1
1.385833275E1,7.750881958E0,-3.647015991E0,-7.351662140E0,1.128821655E1
1.386838875E1,5.608237610E0,-2.681374054E0,-8.327782288E0,1.039201875E1
1.387844475E1,3.064726868E0,-2.171534271E0,-8.572223969E0,9.359013604E0
1.388850075E1,1.011147308E0,-2.147284698E0,-7.864346008E0,8.214693457E0
1.389855775E1,6.607260132E-1,-2.018851776E0,-7.015311584E0,7.329864800E0
1.390861375E1,9.322613525E-1,-1.812281342E0,-5.611381073E0,5.970014442E0
1.391866975E1,9.295669556E-1,-1.261576538E0,-4.083208923E0,4.373587223E0
1.392872575E1,7.409591675E-1,-6.611750793E-1,-2.886746979E0,3.052782516E0
1.393878175E1,7.030879211E-1,-8.996292114E-2,-2.048789520E0,2.167940140E0
1.394883775E1,1.405577087E-1,1.841171265E-1,-1.430275726E0,1.448911398E0
1.395889375E1,-2.037263489E-1,4.457730103E-1,-9.548643494E-1,1.073305142E0
1.396894975E1,-3.670367432E-1,4.846920776E-1,-6.105802917E-1,8.616557744E-1
1.397900575E1,-4.854405212E-1,3.631448364E-1,-1.993853760E-1,6.381858664E-1
1.398906175E1,-6.114784241E-1,1.594184875E-1,1.360670471E-1,6.464010818E-1
1.399911775E1,-9.117539978E-1,-6.945556641E-2,4.164340210E-1,1.004757046E0
1.400917375E1,-1.666035461E0,-3.444337463E-1,7.129673767E-1,1.844622250E0
1.401922975E1,-2.849624176E0,-6.158193970E-1,8.090675354E-1,3.025587836E0
1.402928575E1,-3.144510956E0,-4.845423889E-1,1.031654663E0,3.344703548E0
1.403934175E1,-3.140020294E0,-2.785707092E-1,1.353485413E0,3.430634322E0
1.404939775E1,-3.179089050E0,-1.977388000E-1,1.618434448E0,3.572819319E0
1.405945375E1,-3.350632324E0,-2.902464294E-1,1.721420288E0,3.778130195E0
1.406950975E1,-3.293301544E0,-4.611909485E-1,1.861678619E0,3.811086385E0
1.407956575E1,-1.285077667E0,-7.496411133E-1,2.030826874E0,2.517467815E0
1.408962175E1,1.069226532E0,-1.003513184E0,2.026485901E0,2.501385455E0
1.409967775E1,1.757794647E0,-1.224453735E0,1.819616089E0,2.810717290E0
1.410973375E1,2.148631897E0,-1.260079651E0,1.633852386E0,2.978908085E0
1.411978975E1,2.889890442E0,-1.544188843E0,1.697021027E0,3.689968335E0
1.412984575E1,6.068231049E0,-3.215613098E0,2.307900696E0,7.244998363E0
1.413990175E1,3.606749725E1,-1.185489761E1,3.654650116E0,3.814130862E1
1.414995775E1,6.580525726E1,-2.537313629E1,5.448070679E0,7.073760954E1
1.416001375E1,4.496050415E1,-2.622276947E1,2.541115723E0,5.211082269E1
1.417007075E1,3.760824326E1,-1.759875320E1,2.920876007E0,4.162484344E1
1.418012675E1,2.530652481E1,-9.360035706E0,2.178120575E0,2.706981115E1
1.419018275E1,1.803943680E1,-5.005590820E0,1.104253693E0,1.875357554E1
1.420023875E1,1.765548523E1,-3.507955170E0,-3.213816833E-1,1.800347728E1
1.421029475E1,1.972103989E1,-5.013823700E0,-1.918710022E0,2.043867145E1
1.422035075E1,2.115146530E1,-7.032825165E0,-3.584146729E0,2.257634209E1
1.423040675E1,1.982103195E1,-6.982679443E0,-4.701573029E0,2.153452829E1
1.424046275E1,1.704056396E1,-5.805078278E0,-5.111271057E0,1.871376087E1
1.425051875E1,1.484986954E1,-4.670886841E0,-5.406157837E0,1.647914900E1
1.426057475E1,1.263821869E1,-3.907174988E0,-5.932164001E0,1.449762594E1
1.427063075E1,1.028451324E1,-2.965632935E0,-6.552024994E0,1.254971007E1
1.428068675E1,7.958949280E0,-2.092348938E0,-7.133715363E0,1.089094544E1
1.429074275E1,5.821094971E0,-1.479373627E0,-6.939269714E0,9.177535462E0
1.430079875E1,3.913461914E0,-1.136287079E0,-6.110293579E0,7.344523136E0
1.431085475E1,2.779869232E0,-8.071215820E-1,-5.116210785E0,5.878327227E0
1.432091075E1,2.123334503E0,-4.643344116E-1,-4.294270020E0,4.812993960E0
1.433096675E1,1.396446075E0,-3.713777161E-1,-3.548221436E0,3.831169326E0
1.434102275E1,9.168434143E-1,-3.053649902E-1,-3.051404572E0,3.200768577E0
1.435107875E1,3.737727356E-1,-2.963836670E-1,-2.530487823E0,2.575056885E0
1.436113475E1,-1.577719116E-1,-2.544708252E-1,-1.968556366E0,1.991196008E0
1.437119075E1,-6.283932495E-1,-1.191522217E-1,-1.553619232E0,1.680121438E0
1.438124675E1,-1.032403107E0,9.729766846E-3,-1.181193695E0,1.568811457E0
1.439130275E1,-1.380429382E0,9.340576172E-2,-8.247848511E-1,1.610769992E0
1.440135875E1,-1.684447174E0,1.408570862E-1,-4.695735168E-1,1.754338134E0
1.441141475E1,-1.873354340E0,1.480421448E-1,-1.085243225E-1,1.882325818E0
1.442147075E1,-1.947300568E0,1.770817566E-1,1.293310547E-1,1.959608117E0
1.443152775E1,-1.901944885E0,2.561174011E-1,2.353106689E-1,1.933484311E0
1.444158375E1,-1.813478851E0,3.409909058E-1,3.276686096E-1,1.874125679E0
1.445163975E1,-1.722767487E0,4.266128540E-1,4.767585754E-1,1.837722797E0
1.446169575E1,-1.723066864E0,5.116360474E-1,7.042854309E-1,1.930478912E0
1.447175175E1,-1.744023285E0,5.855822754E-1,9.279203796E-1,2.060475685E0
1.448180775E1,-1.695075073E0,6.140231323E-1,1.133892059E0,2.129792270E0
1.449186375E1,-1.531016235E0,5.730084229E-1,1.326990509E0,2.105529192E0
1.450191975E1,-9.729766846E-2,3.613485718E-1,1.487905884E0,1.534243640E0
1.451197575E1,1.561103668E0,-4.442761230E-1,1.252595215E0,2.050224551E0
1.452203175E1,2.114951935E0,-8.448431396E-1,9.827064514E-1,2.480422058E0
1.453208725E1,3.313210144E0,-1.019230499E0,1.015338593E0,3.612077619E0
1.454214325E1,1.105136856E1,-2.288740540E0,1.346899109E0,1.136596751E1
1.455219925E1,4.758140396E1,-1.037492523E1,1.202000427E0,4.871420616E1
1.456225525E1,6.935482590E1,-2.258323792E1,1.474433899E0,7.295387903E1
1.457231125E1,4.489718582E1,-2.048729645E1,1.812580719E0,4.938392511E1
1.458236725E1,3.999532928E1,-1.517214935E1,5.724246368E0,4.315770472E1
1.459242325E1,3.217154892E1,-9.073232117E0,5.222639465E0,3.383205675E1
1.460247925E1,2.131253036E1,-6.544091492E0,2.194436646E0,2.240233551E1
1.461253525E1,1.868699020E1,-6.093678131E0,2.167492676E-1,1.965664001E1
1.462259125E1,1.906450516E1,-6.281387787E0,-1.707349548E0,2.014512924E1
1.463264725E1,1.845033234E1,-6.566095734E0,-3.100502472E0,1.982779595E1
1.464270325E1,1.608031082E1,-6.385870514E0,-3.764222260E0,1.770664021E1
1.465275925E1,1.377315857E1,-5.391039276E0,-3.806284790E0,1.527255726E1
1.466281525E1,1.044722488E1,-4.556075592E0,-3.707190857E0,1.198522410E1
1.467287125E1,9.124126282E0,-3.001707916E0,-3.742218018E0,1.030844928E1
1.468292725E1,6.603517914E0,-2.232158203E0,-3.428620148E0,7.768166785E0
1.469298325E1,4.145030365E0,-1.469643860E0,-2.944077759E0,5.292326866E0
1.470303925E1,2.835852814E0,-6.694079590E-1,-2.845133514E0,4.072462758E0
1.471309625E1,1.824106750E0,-1.222956848E-1,-2.662213898E0,3.229505304E0
1.472315225E1,1.105750580E0,3.011737061E-1,-2.433788910E0,2.690114943E0
1.473320825E1,5.715115356E-1,5.834866333E-1,-2.332299957E0,2.471174858E0
1.474326425E1,3.143463135E-2,6.129753113E-1,-2.296524353E0,2.377130828E0
1.475332025E1,-5.520520020E-1,4.848417664E-1,-2.227517853E0,2.345563629E0
1.476337625E1,-1.123264160E0,3.323089600E-1,-1.993704071E0,2.312359734E0
1.477343225E1,-1.598825226E0,2.707868958E-1,-1.631008301E0,2.299946896E0
1.478348825E1,-1.957778778E0,1.941462708E-1,-1.264869690E0,2.338906978E0
1.479354425E1,-2.140548706E0,1.465452576E-1,-9.515711975E-1,2.347107160E0
1.480360025E1,-2.124232635E0,2.140548706E-1,-6.897656250E-1,2.243648902E0
1.481365625E1,-2.041604462E0,2.924917603E-1,-4.662803650E-1,2.114501735E0
1.482371225E1,-1.975442047E0,2.992277527E-1,-3.070115662E-1,2.021426385E0
1.483376825E1,-1.954485626E0,2.824626160E-1,-2.275268555E-1,1.987855041E0
1.484382425E1,-1.948049011E0,2.661465454E-1,-1.826202393E-1,1.974608590E0
1.485388025E1,-1.923649750E0,2.260299683E-1,-9.744735718E-2,1.939333363E0
1.486393625E1,-1.869761810E0,2.323168945E-1,7.634124756E-2,1.885685115E0
1.487399225E1,-1.797761536E0,2.655477905E-1,2.900967407E-1,1.840276688E0
1.488404825E1,-1.647324371E0,2.787203979E-1,5.662724304E-1,1.764093850E0
1.489410425E1,-5.441184998E-1,3.227288818E-1,6.707551575E-1,9.220256798E-1
1.490416025E1,5.944139099E-1,1.481918335E-1,6.351292419E-1,8.824272603E-1
1.491421625E1,1.341061249E0,2.874023438E-2,5.816903687E-1,1.462065306E0
1.492427225E1,1.855990448E0,-3.727249146E-2,4.727169800E-1,1.915607247E0
1.493432825E1,2.702629852E0,1.056802368E-1,5.745053101E-1,2.765037573E0
1.494438425E1,9.386680298E0,-1.234931946E-1,4.216731262E-1,9.396958327E0
1.495444025E1,3.934238708E1,-3.570225677E0,-1.422491913E0,3.952965237E1
1.496449625E1,5.905938538E1,-1.351299957E1,-1.487756195E0,6.060384127E1
1.497455225E1,4.044738922E1,-1.690539505E1,-1.673070831E0,4.387006773E1
1.498460825E1,3.541365692E1,-5.814209290E0,-1.123563538E0,3.590535505E1
1.499466525E1,3.635055862E1,1.295705566E0,-2.591111755E-1,3.637456672E1
1.500472125E1,2.826811615E1,1.876797180E0,-3.936813354E-2,2.833037783E1
1.501477725E1,2.069656128E1,1.451830902E0,-3.432362366E-1,2.075025959E1
1.502483325E1,2.016456757E1,1.410666504E0,-7.559280396E-1,2.022798043E1
1.503488925E1,2.247710861E1,1.321751404E0,-1.250649261E0,2.255064438E1
1.504494525E1,2.282139267E1,9.571096802E-1,-2.408940582E0,2.296813046E1
1.505500125E1,2.036604858E1,6.306385803E-1,-3.057541809E0,2.060393656E1
1.506505725E1,1.696152832E1,7.708969116E-2,-2.998714142E0,1.722474012E1
1.507511325E1,1.482576965E1,-7.289840698E-2,-2.760709076E0,1.508079158E1
1.508516925E1,1.222088654E1,-7.424560547E-2,-2.503094788E0,1.247481718E1
1.509522525E1,1.052611084E1,4.809498596E-1,-2.400258636E0,1.080701456E1
1.510528125E1,8.234226837E0,7.831713867E-1,-2.393971710E0,8.610862302E0
1.511533725E1,5.624703369E0,7.682025146E-1,-2.253713379E0,6.107916755E0
1.512539325E1,3.892954559E0,6.233038330E-1,-2.149829407E0,4.490586749E0
1.513544925E1,2.590662689E0,3.857478333E-1,-2.041005707E0,3.320547975E0
1.514550525E1,1.558858337E0,2.164498901E-1,-1.942959595E0,2.500396340E0
1.515556125E1,7.912545776E-1,1.285826111E-1,-1.778900757E0,1.951180462E0
1.516561725E1,1.832189941E-1,3.622467041E-2,-1.583556976E0,1.594532572E0
1.517567325E1,-3.347039795E-1,-4.355941772E-2,-1.381177826E0,1.421821495E0
1.518572925E1,-7.282356262E-1,-1.263372803E-1,-1.149908752E0,1.366959537E0
1.519578525E1,-9.632469177E-1,-2.210902405E-1,-9.271719360E-1,1.355128524E0
1.520584125E1,-1.118773499E0,-3.103047180E-1,-7.340734863E-1,1.373610950E0
1.521589725E1,-1.187181244E0,-4.037104797E-1,-5.351371765E-1,1.363361014E0
1.522595325E1,-1.189426575E0,-4.595443726E-1,-3.736230469E-1,1.328725249E0
1.523600925E1,-1.182840271E0,-5.075944519E-1,-2.360591125E-1,1.308620319E0
1.524606525E1,-1.159488831E0,-5.251080322E-1,-9.699829102E-2,1.276542777E0
1.525612125E1,-1.117875366E0,-5.279521179E-1,1.751358032E-2,1.236400218E0
1.526617725E1,-1.070573730E0,-5.325924683E-1,8.367599487E-2,1.198659469E0
1.527623325E1,-1.133293304E0,-5.713618469E-1,1.627116394E-1,1.279563657E0
1.528629025E1,-1.265917511E0,-6.472540283E-1,2.213896179E-1,1.438922612E0
1.529634625E1,-1.433419189E0,-7.774832153E-1,3.465293884E-1,1.667109277E0
1.530640225E1,-1.624272308E0,-9.439370728E-1,5.303471375E-1,1.952061939E0
1.531645825E1,-1.678309937E0,-9.836045837E-1,7.917036438E-1,2.100237339E0
1.532651425E1,-1.622476044E0,-8.009843445E-1,9.562115479E-1,2.046544638E0
1.533657025E1,-3.088078308E-1,-4.053570557E-1,9.913883972E-1,1.114687209E0
1.534662625E1,1.502126312E0,-7.229965210E-2,7.412585449E-1,1.676626055E0
1.535668225E1,1.600172424E0,9.520202637E-2,3.097059631E-1,1.632646011E0
1.536673825E1,5.533093872E0,3.965254211E-1,-8.994795227E-1,5.619735191E0
1.537679425E1,3.919374619E1,2.649640045E0,-3.496429138E0,3.943850085E1
1.538685025E1,7.593514206E1,5.962401123E0,-3.694317627E0,7.625840288E1
1.539690625E1,5.733302536E1,1.416204987E0,-2.651436310E0,5.741177186E1
1.540696225E1,4.469555511E1,1.779798889E-1,-2.607577515E-1,4.469667010E1
1.541701825E1,2.866763535E1,3.761677551E-1,2.698887634E0,2.879685422E1
1.542707425E1,1.915880905E1,1.636097717E-1,2.861599274E0,1.937202836E1
1.543713025E1,1.911090866E1,1.576222229E-1,1.181792450E0,1.914806277E1
1.544718625E1,2.098082016E1,7.746391296E-1,-8.780740356E-1,2.101346936E1
1.545724225E1,2.066617447E1,1.589544525E0,-2.864892426E0,2.092426887E1
1.546729825E1,1.829166229E1,1.840722198E0,-4.080813904E0,1.883152171E1
1.547735425E1,1.502545441E1,1.843715973E0,-4.664599915E0,1.584051960E1
1.548741025E1,1.179816559E1,2.004930725E0,-5.549110565E0,1.319125038E1
1.549746625E1,8.525072021E0,1.597927094E0,-6.290219421E0,1.071434013E1
1.550752225E1,5.833519135E0,9.994715881E-1,-6.595883789E0,8.861973364E0
1.551757825E1,3.667523346E0,5.942642212E-1,-6.297105103E0,7.311457456E0
1.552763413E1,1.956431580E0,2.201921082E-1,-5.523214417E0,5.863617193E0
1.553769012E1,9.295669556E-1,-8.846603394E-2,-4.642146606E0,4.735128940E0
1.554774613E1,4.614903259E-1,-1.734892273E-1,-3.738026733E0,3.770399938E0
1.555780212E1,1.534309387E-1,-1.823208618E-1,-2.991529083E0,3.001004533E0
1.556785813E1,-4.670288086E-2,-9.250762939E-2,-2.333198090E0,2.335498265E0
1.557791412E1,-2.948867798E-1,-2.320175171E-2,-1.720971222E0,1.746206884E0
1.558797113E1,-5.310955811E-1,3.128494263E-2,-1.201401672E0,1.313928172E0
1.559802713E1,-7.411088562E-1,7.050338745E-2,-7.593708801E-1,1.063417697E0
1.560808313E1,-8.309220886E-1,1.204994202E-1,-3.329077148E-1,9.032049459E-1
1.561813912E1,-8.171507263E-1,1.164578247E-1,3.487747192E-2,8.261441596E-1
1.562819513E1,-8.439450073E-1,4.790039062E-3,3.730242920E-1,9.227205657E-1
1.563825112E1,-9.261241150E-1,-1.179547119E-1,7.059320068E-1,1.170452557E0
1.564830713E1,-1.083297272E0,-2.582130432E-1,9.565109253E-1,1.468032733E0
1.565836312E1,-1.265019379E0,-3.968247986E-1,1.178050232E0,1.773568803E0
1.566841913E1,-1.478475494E0,-5.959107971E-1,1.380878448E0,2.108986665E0
1.567847512E1,-1.771116943E0,-8.508306885E-1,1.551224213E0,2.503410603E0
1.568853113E1,-1.973645782E0,-9.357041931E-1,1.634750519E0,2.728228229E0
1.569858712E1,-2.005978546E0,-7.723937988E-1,1.655557251E0,2.713192201E0
1.570864313E1,-2.002984772E0,-6.765930176E-1,1.623523865E0,2.665624851E0
1.571869912E1,-1.837728424E0,-6.583309937E-1,1.590742035E0,2.518155214E0
1.572875513E1,1.056802368E-1,-5.701643372E-1,1.540446625E0,1.645974328E0
1.573881112E1,1.597328339E0,-4.418811035E-1,1.280287628E0,2.094242856E0
1.574886713E1,1.803300018E0,-4.652325439E-1,1.316362610E0,2.280601411E0
1.575892312E1,2.422262878E0,-5.019062805E-1,2.045795746E0,3.210069719E0
1.576897913E1,1.362915802E1,-9.520202637E-2,2.995271301E-1,1.363278138E1
1.577903512E1,6.473827606E1,5.517975311E0,-8.092621307E0,6.547505600E1
1.578909113E1,6.979071945E1,5.094206543E0,-8.968450012E0,7.054876723E1
1.579914712E1,4.898054443E1,1.353036346E0,-4.440515900E0,4.920002664E1
1.580920313E1,3.636403061E1,1.453627167E0,-1.558558960E0,3.642643079E1
1.581925912E1,2.048624863E1,2.665956116E0,-7.009922791E-1,2.067087553E1
1.582931513E1,1.713501755E1,4.201912079E0,-2.466720428E0,1.781430889E1
1.583937112E1,2.090477829E1,4.510869598E0,-4.501289520E0,2.185450313E1
1.584942713E1,2.255943741E1,4.217180328E0,-5.754184113E0,2.366058877E1
1.585948312E1,2.093501541E1,3.716770935E0,-6.065087585E0,2.211050754E1
1.586953913E1,1.740221191E1,2.994672546E0,-6.050567780E0,1.866586225E1
1.587959512E1,1.409319305E1,2.156266022E0,-5.846392365E0,1.540934383E1
1.588965213E1,1.136496643E1,1.585951996E0,-5.593867493E0,1.276593354E1
1.589970812E1,8.688083038E0,1.089434509E0,-5.173990631E0,1.017053752E1
1.590976413E1,6.337221680E0,6.059399414E-1,-4.511168976E0,7.802447524E0
1.591982012E1,4.600084076E0,2.577639771E-1,-3.717519379E0,5.920064704E0
1.592987613E1,3.350782013E0,3.203338623E-2,-2.844834137E0,4.395662351E0
1.593993212E1,2.307301941E0,-1.011895752E-1,-2.050585785E0,3.088492130E0
1.594998813E1,1.293609924E0,-1.537303162E-1,-1.463207245E0,1.959090373E0
1.596004412E1,3.869453430E-1,-4.760101318E-2,-1.132095795E0,1.197344329E0
1.597010013E1,-2.576142883E-1,1.767823792E-1,-9.871971130E-1,1.035458966E0
1.598015612E1,-6.270460510E-1,3.806584167E-1,-8.485853577E-1,1.121688321E0
1.599021213E1,-8.324189758E-1,4.860392761E-1,-7.595205688E-1,1.227202927E0
1.600026812E1,-9.529183960E-1,4.587959290E-1,-6.649172974E-1,1.249264658E0
1.601032413E1,-1.018332367E0,3.297642517E-1,-5.736071777E-1,1.214401279E0
1.602038012E1,-1.046174469E0,1.980381775E-1,-4.905299377E-1,1.172313848E0
1.603043613E1,-1.084644470E0,7.993377686E-2,-4.396357727E-1,1.173082541E0
1.604049213E1,-1.239123230E0,-7.514373779E-2,-3.396437073E-1,1.287024012E0
1.605054813E1,-1.469494171E0,-2.874023438E-1,-1.368154907E-1,1.503572980E0
1.606060413E1,-1.855391693E0,-6.508465576E-1,1.091230774E-1,1.969260628E0
1.607066012E1,-2.843037872E0,-1.353934479E0,5.019062805E-1,3.188716486E0
1.608071613E1,-3.642375641E0,-1.791025543E0,7.563771057E-1,4.128774531E0
1.609077212E1,-3.299289093E0,-1.650617523E0,7.197033691E-1,3.758699199E0
1.610082813E1,-2.899769897E0,-1.644480286E0,7.670050049E-1,3.420713017E0
1.611088412E1,-1.859582977E0,-1.810485077E0,7.694000244E-1,2.707005996E0
1.612094013E1,5.746549988E-1,-1.761985931E0,7.210505676E-1,1.988651983E0
1.613099612E1,1.467248840E0,-1.668280792E0,8.222401428E-1,2.368978433E0
1.614105213E1,2.235601044E0,-1.450034637E0,9.647438049E-1,2.833944792E0
1.615110812E1,2.675087128E0,-1.236428833E0,7.825726318E-1,3.049142064E0
1.616116413E1,2.871329041E0,-9.886940002E-1,4.034111023E-1,3.063459940E0
1.617122012E1,3.054548035E0,-7.954458618E-1,-4.984634399E-2,3.156815242E0
1.618127613E1,6.946305084E0,-8.243357849E-1,-4.387376404E-1,7.008792658E0
1.619133212E1,5.401382767E1,3.854933624E0,-2.378104706E0,5.420340833E1
1.620138813E1,7.751375931E1,4.823868713E0,1.548829193E0,7.767915720E1
1.621144512E1,5.465045380E1,5.282514954E-1,3.696113892E0,5.477784596E1
1.622150113E1,3.706876511E1,1.420096893E0,3.368744659E0,3.724860349E1
1.623155712E1,2.287767563E1,1.036594391E0,1.839824066E0,2.297493249E1
1.624161313E1,1.895463364E1,1.335971832E0,-9.645941162E-1,1.902612411E1
1.625166912E1,2.014406021E1,1.816622314E0,-3.614832916E0,2.054629639E1
1.626172513E1,2.248264709E1,1.739832001E0,-5.109025726E0,2.312138793E1
1.627178112E1,2.142853912E1,1.471440125E0,-5.575904846E0,2.219094725E1
1.628183713E1,1.783645889E1,1.404229889E0,-5.620212708E0,1.875361081E1
1.629189312E1,1.453327789E1,1.671124878E0,-5.405559082E0,1.559579731E1
1.630194913E1,1.154384445E1,1.939816132E0,-5.149142303E0,1.278815459E1
1.631200512E1,8.726852417E0,2.017205200E0,-5.141508179E0,1.032773820E1
1.632206113E1,6.275400238E0,2.041454773E0,-5.081033936E0,8.328570801E0
1.633211712E1,4.302951965E0,2.028581543E0,-4.761598206E0,6.730776788E0
1.634217313E1,2.724185028E0,2.002685394E0,-4.370012512E0,5.525300192E0
1.635222912E1,1.460812225E0,1.877096558E0,-3.942651215E0,4.604558876E0
1.636228513E1,3.186872864E-1,1.534608765E0,-3.353476410E0,3.701673902E0
1.637234112E1,-5.191204834E-1,1.072968750E0,-2.596350861E0,2.856883933E0
1.638239713E1,-9.641450500E-1,7.304809570E-1,-1.816622314E0,2.182497363E0
1.639245312E1,-1.098864899E0,5.324427795E-1,-1.129700775E0,1.663497286E0
1.640250913E1,-1.054706726E0,4.755610657E-1,-5.959107971E-1,1.301412419E0
1.641256512E1,-9.172924805E-1,4.474195862E-1,-1.975891113E-1,1.039543764E0
1.642262113E1,-7.948471069E-1,3.891906738E-1,5.628295898E-2,8.868027264E-1
1.643267712E1,-8.378077698E-1,3.085084534E-1,1.929487610E-1,9.134158687E-1
1.644273313E1,-9.373507690E-1,2.574645996E-1,2.415975952E-1,1.001640595E0
1.645278912E1,-1.087338867E0,2.100132751E-1,3.212319946E-1,1.153083424E0
1.646284513E1,-1.303040314E0,8.547225952E-2,4.198768616E-1,1.371683690E0
1.647290113E1,-1.549427948E0,-6.391708374E-2,5.306465149E-1,1.639023515E0
1.648295713E1,-1.958527222E0,-3.082090759E-1,6.502478027E-1,2.086538741E0
1.649301313E1,-2.427202606E0,-5.316943359E-1,7.556286621E-1,2.597111094E0
1.650306912E1,-2.460732880E0,-4.854405212E-1,7.080276489E-1,2.606177652E0
1.651312513E1,-2.428849182E0,-4.131408691E-1,6.575825500E-1,2.549982066E0
1.652318213E1,-2.441273346E0,-3.526666260E-1,5.804928589E-1,2.534001037E0
1.653323879E1,-2.401306458E0,-3.472778320E-1,4.468208313E-1,2.467088051E0
1.654329479E1,-2.170037384E0,-3.236270142E-1,2.507286072E-1,2.208316446E0
1.655335079E1,-8.854087830E-1,-2.128573608E-1,-5.343887329E-2,9.122021060E-1
1.656340679E1,7.849676514E-1,-5.089416504E-3,-2.317181396E-1,8.184701657E-1
