"Time (s)","Acceleration x (m/s^2)","Acceleration y (m/s^2)","Acceleration z (m/s^2)","Absolute acceleration (m/s^2)"
3.114916675E-3,-1.397344208E0,5.098397827E0,8.310867462E0,9.849708078E0
1.317091665E-2,-1.172062683E0,5.315596161E0,8.299491119E0,9.925263035E0
2.322791668E-2,-6.619235229E-1,5.382806396E0,8.002059631E0,9.666731909E0
3.328391665E-2,-6.382727051E-1,5.161117401E0,7.602839813E0,9.211281024E0
4.334091669E-2,-7.481442261E-1,5.038222961E0,7.604935455E0,9.153057067E0
5.339791666E-2,-8.259823608E-1,5.078938293E0,8.035739594E0,9.542063292E0
6.345391669E-2,-8.032296753E-1,5.140909424E0,8.272098083E0,9.772498878E0
7.351091667E-2,-7.180567932E-1,5.102140045E0,8.172555084E0,9.661164278E0
8.356691670E-2,-6.885681152E-1,5.016967163E0,8.041278076E0,9.502959469E0
9.362391668E-2,-6.578819275E-1,4.963677979E0,8.118068390E0,9.538026111E0
1.036799166E-1,-4.647834778E-1,4.969515839E0,8.238867188E0,9.632810799E0
1.137369167E-1,-2.541714478E-1,4.940775604E0,8.246351624E0,9.616557689E0
1.237929167E-1,-1.604663086E-1,4.854854279E0,8.156688080E0,9.493519892E0
1.338499167E-1,-8.083190918E-2,4.768334198E0,8.052055664E0,9.358373002E0
1.439059167E-1,-2.050735474E-2,4.696633301E0,8.012088776E0,9.287214408E0
1.539629167E-1,1.032852173E-2,4.640050964E0,8.061785431E0,9.301750586E0
1.640189167E-1,2.125579834E-2,4.636757812E0,8.194259949E0,9.415193621E0
1.740759167E-1,-5.568420410E-2,4.590054932E0,8.450527039E0,9.616814038E0
1.841329167E-1,-5.987548828E-2,4.548591156E0,8.512049103E0,9.651333924E0
1.941889166E-1,2.679428101E-2,4.499942322E0,8.652008057E0,9.752304458E0
2.042459167E-1,1.631607056E-2,4.445006561E0,8.833730164E0,9.889041316E0
2.143019167E-1,-2.020797729E-2,4.414769440E0,8.915609894E0,9.948803815E0
2.243589167E-1,-6.915618896E-2,4.420906677E0,8.888965302E0,9.927885100E0
2.344149167E-1,-1.136137390E-1,4.448898468E0,8.763975220E0,9.829184468E0
2.444719167E-1,-1.160087585E-1,4.482578430E0,8.607999573E0,9.705906658E0
2.545279167E-1,-3.248245239E-2,4.474794617E0,8.447383575E0,9.559452455E0
2.645849167E-1,1.076261902E-1,4.458777924E0,8.299790497E0,9.422250594E0
2.746409167E-1,2.347119141E-1,4.429289246E0,8.228388977E0,9.347731172E0
2.846979166E-1,3.484753418E-1,4.398153992E0,8.217312012E0,9.326811368E0
2.947539167E-1,4.408332825E-1,4.353247375E0,8.199049988E0,9.293520183E0
3.048109167E-1,4.713697815E-1,4.301455078E0,8.216413879E0,9.286235098E0
3.148679167E-1,4.179309082E-1,4.233945465E0,8.306676178E0,9.332836095E0
3.249239167E-1,3.707789612E-1,4.189188538E0,8.454418945E0,9.442667915E0
3.349809167E-1,2.248324585E-1,4.168381805E0,8.575966187E0,9.537984721E0
3.450369167E-1,2.377056885E-1,4.195924530E0,8.519383850E0,9.499588825E0
3.550939166E-1,3.881428528E-1,4.136797485E0,8.239016876E0,9.227412822E0
3.651499167E-1,2.826123047E-1,4.016597443E0,8.274343414E0,9.202047798E0
3.752069167E-1,4.520599365E-2,3.964954834E0,8.649762726E0,9.515319523E0
3.852629167E-1,-1.216969299E-1,4.030817871E0,9.118587799E0,9.970503814E0
3.953199167E-1,-8.607101440E-2,4.148323517E0,9.064999237E0,9.969463746E0
4.053759167E-1,-1.046324158E-1,4.135001221E0,8.878038025E0,9.794321937E0
4.154329167E-1,-1.546284485E-1,4.069886627E0,8.865164795E0,9.755974270E0
4.254889167E-1,-1.011895752E-1,3.988306274E0,8.982969818E0,9.829067760E0
4.355459167E-1,6.137237549E-3,3.958817596E0,9.040899353E0,9.869657316E0
4.456029166E-1,1.041833496E-1,3.884871368E0,9.107061768E0,9.901598546E0
4.556589167E-1,1.284329224E-1,3.828289032E0,9.099727020E0,9.873060507E0
4.657159167E-1,1.923500061E-1,3.809727631E0,9.093290405E0,9.860981368E0
4.757719167E-1,2.490820312E-1,3.827540588E0,9.075178070E0,9.852459887E0
4.858289167E-1,3.001258850E-1,3.865262146E0,8.935368805E0,9.740181861E0
4.958849167E-1,3.198847961E-1,3.894152069E0,8.825646973E0,9.651880185E0
5.059419167E-1,3.812571716E-1,3.895948334E0,8.730894012E0,9.568295601E0
5.159979167E-1,4.742138672E-1,3.874243469E0,8.631949768E0,9.473394220E0
5.260549167E-1,5.647755432E-1,3.811523895E0,8.600964203E0,9.424609861E0
5.361109167E-1,6.824308777E-1,3.666774902E0,8.584199066E0,9.359456378E0
5.461679167E-1,8.792715454E-1,3.529809723E0,8.565188599E0,9.305650480E0
5.562239166E-1,1.085392914E0,3.445385284E0,8.588540039E0,9.317283807E0
5.662809167E-1,1.249152374E0,3.338357849E0,8.628656616E0,9.335883985E0
5.763379167E-1,1.335522766E0,3.213517456E0,8.583151245E0,9.261792526E0
5.863939167E-1,1.368603973E0,3.103346558E0,8.541837158E0,9.190583155E0
5.964509167E-1,1.474433899E0,3.053649902E0,8.560099182E0,9.207281415E0
6.065069167E-1,1.673669586E0,2.951861572E0,8.569529572E0,9.216913459E0
6.165639167E-1,1.907932434E0,2.880909119E0,8.508755951E0,9.183614286E0
6.266199167E-1,2.018103333E0,2.856210480E0,8.417146454E0,9.114770090E0
6.366769167E-1,2.048340454E0,2.789000244E0,8.288264465E0,8.981622839E0
6.467329166E-1,2.020049286E0,2.664608917E0,8.209977264E0,8.864788011E0
6.567899167E-1,1.989961853E0,2.516267395E0,8.171956329E0,8.779089932E0
6.668459167E-1,1.962568817E0,2.388433228E0,8.140072632E0,8.707299931E0
6.769029167E-1,1.982776794E0,2.290087738E0,8.107889557E0,8.655274619E0
6.869589167E-1,2.000589752E0,2.267634430E0,8.088130646E0,8.634951222E0
6.970159167E-1,1.943109283E0,2.258653107E0,8.142467651E0,8.670465212E0
7.070729167E-1,1.858684845E0,2.196232910E0,8.271199951E0,8.757333897E0
7.171289167E-1,1.743873596E0,2.106569366E0,8.348738708E0,8.785224393E0
7.271859167E-1,1.605561218E0,2.035467224E0,8.354576569E0,8.747565563E0
7.372419166E-1,1.450633392E0,1.954036560E0,8.327333221E0,8.675659900E0
7.472989167E-1,1.284927979E0,1.838626556E0,8.109536133E0,8.414045627E0
7.573549167E-1,1.152752838E0,1.693578186E0,7.790549469E0,8.055414776E0
7.674119167E-1,1.229243774E0,1.595232697E0,7.770042114E0,8.026790272E0
7.774679167E-1,1.351988525E0,1.426683197E0,7.928412781E0,8.168416440E0
7.875249167E-1,1.234782257E0,1.203796692E0,8.137677612E0,8.318389905E0
7.975809167E-1,-2.346071320E0,1.681752777E0,9.601333923E0,1.002586436E1
8.076379166E-1,-4.066443787E0,2.366279297E0,1.416249893E1,1.492352568E1
8.176949167E-1,-5.009632416E0,3.191363525E0,1.253732849E1,1.387320525E1
8.277509167E-1,-4.696932678E0,3.100652161E0,1.073777069E1,1.212332214E1
8.378079167E-1,-1.886976013E0,2.794688416E0,9.964179382E0,1.051930761E1
8.478639167E-1,-2.101629639E-1,2.406395874E0,9.514813843E0,9.816648717E0
8.579209167E-1,5.481600952E-1,1.767674103E0,8.731941833E0,8.925915046E0
8.679769167E-1,9.966275024E-1,1.182840271E0,7.929610291E0,8.079052967E0
8.780339167E-1,1.016985168E0,6.122268677E-1,7.492668915E0,7.586116796E0
8.880899167E-1,1.284478912E0,2.272274780E-1,7.845784607E0,7.953480653E0
8.981469166E-1,1.236428833E0,-8.487350464E-2,8.656498718E0,8.744765853E0
9.082025417E-1,2.953358459E-1,-7.936495972E-1,1.000773880E1,1.004350232E1
9.182595417E-1,-1.119821320E0,-1.217418365E0,1.239407639E1,1.250396884E1
9.283155416E-1,-1.725910950E0,-1.337768097E0,1.203512283E1,1.223162188E1
9.383725417E-1,-1.007554779E0,-7.132667542E-1,1.106663681E1,1.113527577E1
9.484295417E-1,-1.583257599E0,-1.005309448E0,1.092772568E1,1.108749477E1
9.584855417E-1,-1.545236664E0,-1.586401062E0,1.093206665E1,1.115412506E1
9.685425417E-1,-1.170565796E0,-1.977986755E0,1.106753494E1,1.130367133E1
9.785985417E-1,-1.201551361E0,-2.038161621E0,1.084928879E1,1.110427376E1
9.886555417E-1,-1.466500397E0,-1.914967804E0,1.059766205E1,1.086867821E1
9.987115417E-1,-1.483714600E0,-1.687440948E0,1.020368134E1,1.044815672E1
1.008768542E0,-1.205892334E0,-1.508562927E0,9.856702881E0,1.004412914E1
1.018824542E0,-1.012045441E0,-1.523681488E0,9.976004791E0,1.014231299E1
1.028881542E0,-7.071295166E-1,-1.363664246E0,1.057640625E1,1.068737486E1
1.038937542E0,-1.211879883E0,-1.440753937E0,1.110720245E1,1.126562786E1
1.048994542E0,-1.550625458E0,-1.642234955E0,1.128967300E1,1.151338749E1
1.059051542E0,-1.843715973E0,-2.079475708E0,1.158890076E1,1.191747157E1
1.069107542E0,-1.740879822E0,-2.711461487E0,1.167871399E1,1.211507517E1
1.079164542E0,-1.887425079E0,-2.646646271E0,1.106948090E1,1.153691975E1
1.089220542E0,-1.755998383E0,-2.336491241E0,1.069451065E1,1.108671636E1
1.099277542E0,-2.248623962E0,-1.810185699E0,1.146106659E1,1.181901558E1
1.109333542E0,-2.473306732E0,-1.351090393E0,1.155192764E1,1.189074109E1
1.119390542E0,-2.361489258E0,-1.057700500E0,1.108235413E1,1.138041892E1
1.129446542E0,-1.934726715E0,-1.063089294E0,1.107442062E1,1.129230351E1
1.139503542E0,-1.392554169E0,-9.663903809E-1,1.062789917E1,1.076221902E1
1.149559542E0,-1.211131439E0,-7.899073792E-1,1.034723282E1,1.044777584E1
1.159616542E0,-1.678010559E0,-7.991880798E-1,1.175280991E1,1.189886388E1
1.169672542E0,-1.840572510E0,-7.235952759E-1,1.165820663E1,1.182476550E1
1.179729542E0,-1.699715424E0,-4.165837097E-1,8.636440430E0,8.811962199E0
1.189785542E0,-1.482666779E0,-3.971241760E-1,6.673721924E0,6.847961208E0
1.199842542E0,-1.062640228E0,-6.538403320E-1,5.308860168E0,5.453504169E0
1.209899542E0,-1.283281403E0,-7.414082336E-1,4.974605255E0,5.190683459E0
1.219955542E0,-2.529889069E0,-6.007008362E-1,8.506660309E0,8.895192511E0
1.230012542E0,-1.979633331E0,1.785786438E-1,7.726632385E0,7.978200704E0
1.240068542E0,-3.416345673E0,5.754034424E-1,7.717950439E0,8.459862047E0
1.250125542E0,-4.107458496E0,-7.095245361E-1,1.168320465E1,1.240451173E1
1.260181542E0,-1.208736420E0,-2.022593994E0,1.049317932E1,1.075447546E1
1.270238542E0,2.236349487E-1,-2.136357422E0,7.382797394E0,7.688935751E0
1.280294542E0,4.260140991E-1,-1.242715759E0,8.911867676E0,9.008174951E0
1.290351542E0,3.257226562E-1,-1.387614441E-1,9.789642334E0,9.796042416E0
1.300407542E0,7.592211914E-1,-5.150788879E-1,1.040591080E1,1.044627697E1
1.310464542E0,3.356021118E-1,-1.133143616E0,1.106858276E1,1.113149440E1
1.320521542E0,4.879852295E-2,-1.372795258E0,1.091006241E1,1.099619979E1
1.330577542E0,1.288819885E-1,-9.825567627E-1,1.077639038E1,1.082185834E1
1.340634542E0,1.624122620E-1,-5.354365540E-1,1.071337143E1,1.072797266E1
1.350690542E0,-2.727328491E-1,-8.116122437E-1,1.066726730E1,1.070157415E1
1.360747542E0,-4.312532043E-1,-9.279203796E-1,1.080977097E1,1.085809209E1
1.370803542E0,-4.930746460E-1,-8.663983154E-1,1.107082809E1,1.111561979E1
1.380860542E0,-5.912704468E-1,-8.782237244E-1,1.120060822E1,1.125053341E1
1.390916542E0,-5.337899780E-1,-8.878038025E-1,1.110495712E1,1.115316995E1
1.400973542E0,-4.547543335E-1,-9.078620911E-1,1.099463654E1,1.104142417E1
1.411029542E0,-2.327659607E-1,-9.557624817E-1,1.088102280E1,1.092539789E1
1.421086542E0,-1.865121460E-1,-9.514215088E-1,1.081351318E1,1.085688984E1
1.431143542E0,-4.074526978E-1,-8.437953186E-1,1.077923447E1,1.081988465E1
1.441199542E0,-4.577481079E-1,-8.714877319E-1,1.054137909E1,1.058724220E1
1.451256542E0,-5.016069031E-1,-9.241781616E-1,1.025472519E1,1.030849666E1
1.461312542E0,-6.704557800E-1,-9.038204956E-1,1.003677841E1,1.009966947E1
1.471369542E0,-6.800358582E-1,-8.080197144E-1,9.788893890E0,9.845698971E0
1.481425542E0,-6.694079590E-1,-6.536906433E-1,9.698032837E0,9.743062115E0
1.491482542E0,-5.848338318E-1,-5.390290833E-1,9.651329956E0,9.684046307E0
1.501538542E0,-4.321513367E-1,-5.119354248E-1,9.600585480E0,9.623932367E0
1.511595542E0,-2.402503967E-1,-4.249662781E-1,9.629625092E0,9.641991288E0
1.521651542E0,-1.246907043E-1,-3.691323853E-1,9.698631592E0,9.706454618E0
1.531708542E0,-3.682342529E-2,-3.861968994E-1,9.716294861E0,9.724036705E0
1.541764542E0,-2.185455322E-2,-4.412823486E-1,9.705068207E0,9.715120001E0
1.551821542E0,-9.145980835E-2,-5.008584595E-1,9.685159607E0,9.698532915E0
1.561878542E0,-1.995350647E-1,-5.562432861E-1,9.584868164E0,9.603068185E0
1.571934542E0,-2.668949890E-1,-5.995033264E-1,9.427844696E0,9.450655680E0
1.581991542E0,-3.344046021E-1,-6.191125488E-1,9.268875275E0,9.295546011E0
1.592047542E0,-4.230203247E-1,-6.069877625E-1,9.166188812E0,9.195999004E0
1.602104542E0,-4.917274475E-1,-5.545967102E-1,9.074729004E0,9.104948099E0
1.612160542E0,-5.334906006E-1,-5.004093933E-1,8.987161102E0,9.016877867E0
1.622217542E0,-5.566923523E-1,-4.430786133E-1,8.900042267E0,8.928436447E0
1.632273542E0,-5.566923523E-1,-3.797602844E-1,8.828341370E0,8.854023695E0
1.642330542E0,-5.545967102E-1,-3.204835510E-1,8.846304016E0,8.869463454E0
1.652386542E0,-5.415737915E-1,-3.014730835E-1,8.914113007E0,8.935636457E0
1.662443542E0,-5.204676819E-1,-2.939886475E-1,8.989406433E0,9.009258790E0
1.672499542E0,-5.294490051E-1,-3.135978699E-1,9.115893402E0,9.136639010E0
1.682556542E0,-5.466632080E-1,-3.306623840E-1,9.221274261E0,9.243380187E0
1.692613542E0,-5.574407959E-1,-3.489244080E-1,9.294472046E0,9.317708897E0
1.702669542E0,-5.201683044E-1,-3.519181824E-1,9.303752747E0,9.324925557E0
1.712726542E0,-4.806504822E-1,-3.532653809E-1,9.330996094E0,9.350043284E0
1.722782542E0,-4.147874451E-1,-3.294648743E-1,9.416767731E0,9.431654692E0
1.732839542E0,-3.700305176E-1,-2.766247559E-1,9.490115204E0,9.501354136E0
1.742895542E0,-3.646417236E-1,-2.646496582E-1,9.512867889E0,9.523531830E0
1.752952542E0,-3.918850708E-1,-2.960842896E-1,9.497449951E0,9.510141712E0
1.763008542E0,-4.649331665E-1,-2.856060791E-1,9.503437500E0,9.519089137E0
1.773065542E0,-5.421725464E-1,-2.706372070E-1,9.509125671E0,9.528413646E0
1.783121542E0,-6.128256226E-1,-2.944377136E-1,9.507778473E0,9.532056457E0
1.793178542E0,-6.845265198E-1,-3.252735901E-1,9.562714233E0,9.592699462E0
1.803235542E0,-7.688012695E-1,-3.552113342E-1,9.595346375E0,9.632647742E0
1.813291542E0,-8.208929443E-1,-3.510200500E-1,9.606573029E0,9.647970028E0
1.823348542E0,-8.234376526E-1,-3.697311401E-1,9.624535675E0,9.666769763E0
1.833404542E0,-7.845185852E-1,-3.739224243E-1,9.657018127E0,9.696044890E0
1.843461542E0,-7.268884277E-1,-3.480262756E-1,9.659862213E0,9.693421844E0
1.853517542E0,-6.706054688E-1,-3.261717224E-1,9.682465210E0,9.711139595E0
1.863574542E0,-6.715036011E-1,-3.056643677E-1,9.709259491E0,9.737251545E0
1.873630542E0,-6.960525513E-1,-2.797682190E-1,9.686057739E0,9.715064279E0
1.883687542E0,-7.036866760E-1,-2.525248718E-1,9.606872406E0,9.635919322E0
1.893743542E0,-6.445596313E-1,-2.224374390E-1,9.478140106E0,9.502635182E0
1.903801292E0,-5.819897461E-1,-2.046244812E-1,9.396709442E0,9.416938546E0
1.913857292E0,-5.285508728E-1,-1.808239746E-1,9.381740570E0,9.398357274E0
1.923914292E0,-4.661306763E-1,-1.679507446E-1,9.414971466E0,9.427999415E0
1.933971292E0,-4.375401306E-1,-1.480421448E-1,9.497749329E0,9.508974716E0
1.944027292E0,-3.896397400E-1,-1.393601990E-1,9.556726685E0,9.565681644E0
1.954084292E0,-3.611988831E-1,-1.420545959E-1,9.595645752E0,9.603492153E0
1.964140292E0,-3.640429688E-1,-1.435514832E-1,9.597891083E0,9.605865268E0
1.974197292E0,-3.444337463E-1,-1.475930786E-1,9.601034546E0,9.608344429E0
1.984253292E0,-3.164419556E-1,-1.740879822E-1,9.641600189E0,9.648362366E0
1.994310292E0,-3.019221497E-1,-1.751358032E-1,9.728120270E0,9.734379976E0
2.004366292E0,-2.772235107E-1,-1.796264648E-1,9.773925018E0,9.779505550E0
2.014423292E0,-2.213896179E-1,-1.695973206E-1,9.760602722E0,9.764586121E0
2.024479292E0,-1.975891113E-1,-1.293310547E-1,9.702523499E0,9.705396963E0
2.034536292E0,-1.787283325E-1,-1.234931946E-1,9.652826843E0,9.655271123E0
2.044592292E0,-1.800755310E-1,-1.327738953E-1,9.599687347E0,9.602294167E0
2.054649292E0,-1.871109009E-1,-1.374142456E-1,9.588760071E0,9.591569885E0
2.064706292E0,-1.692979431E-1,-1.658551025E-1,9.585466919E0,9.588396412E0
2.074762292E0,-1.357676697E-1,-1.945953369E-1,9.623936920E0,9.626861485E0
2.084819292E0,-6.810836792E-2,-2.287243652E-1,9.686057739E0,9.688997271E0
2.094875292E0,-2.110610962E-2,-2.574645996E-1,9.730814667E0,9.734243040E0
2.104932292E0,-4.640350342E-3,-2.903961182E-1,9.764943695E0,9.769261835E0
2.114988292E0,-9.430389404E-3,-3.243754578E-1,9.797875214E0,9.803247782E0
2.125045292E0,-3.457809448E-2,-3.363505554E-1,9.775421906E0,9.781267851E0
2.135101292E0,-2.664459229E-2,-3.474275208E-1,9.755064240E0,9.761285475E0
2.145158292E0,1.541793823E-2,-3.456312561E-1,9.726024628E0,9.732176208E0
2.155214292E0,5.643264771E-2,-3.311114502E-1,9.726324005E0,9.732121973E0
2.165271292E0,7.723937988E-2,-3.258723450E-1,9.754914551E0,9.760661689E0
2.175327292E0,1.374142456E-1,-3.508703613E-1,9.793234863E0,9.800481711E0
2.185384292E0,1.871109009E-1,-3.662882996E-1,9.819131012E0,9.827741930E0
2.195441292E0,2.010319519E-1,-3.836521912E-1,9.843081207E0,9.852606280E0
2.205497292E0,1.969903564E-1,-3.924838257E-1,9.857002258E0,9.866779732E0
2.215554292E0,1.893562317E-1,-3.962260437E-1,9.883497162E0,9.893248557E0
2.225610292E0,1.707948303E-1,-3.911366272E-1,9.879156189E0,9.888371238E0
2.235667292E0,1.799258423E-1,-3.857478333E-1,9.867031403E0,9.876207946E0
2.245723292E0,2.008822632E-1,-3.978726196E-1,9.867031403E0,9.877092943E0
2.255780292E0,2.263293457E-1,-3.917353821E-1,9.860295410E0,9.870669033E0
2.265836292E0,2.674937439E-1,-3.721261597E-1,9.864935760E0,9.875575342E0
2.275893292E0,3.020718384E-1,-3.622467041E-1,9.871372375E0,9.882634398E0
2.285949292E0,3.432362366E-1,-3.585044861E-1,9.841883698E0,9.854390458E0
2.296006292E0,3.721261597E-1,-3.924838257E-1,9.829160156E0,9.844029196E0
2.306063292E0,3.677851868E-1,-4.107458496E-1,9.849218445E0,9.864637959E0
2.316119292E0,3.606001282E-1,-4.293072510E-1,9.832303619E0,9.848275566E0
2.326176292E0,3.671864319E-1,-4.441264343E-1,9.827064514E0,9.843945913E0
2.336232292E0,3.558100891E-1,-4.531077576E-1,9.831255798E0,9.848121548E0
2.346289292E0,3.620970154E-1,-4.583468628E-1,9.829309845E0,9.846650604E0
2.356345292E0,3.400927734E-1,-4.644841003E-1,9.803114319E0,9.820003000E0
2.366402292E0,3.167413330E-1,-4.507127380E-1,9.760003967E0,9.775538066E0
2.376458292E0,2.851570129E-1,-4.412823486E-1,9.727222137E0,9.741401087E0
2.386515292E0,2.532733154E-1,-4.120930481E-1,9.692943420E0,9.705004905E0
2.396571292E0,2.558180237E-1,-3.815565491E-1,9.668394470E0,9.679301622E0
2.406628292E0,2.567161560E-1,-3.511697388E-1,9.657916260E0,9.667707580E0
2.416684292E0,2.929408264E-1,-3.400927734E-1,9.661957855E0,9.672378561E0
2.426741292E0,2.905458069E-1,-3.305126953E-1,9.668693848E0,9.678703231E0
2.436798292E0,2.692900085E-1,-3.529660034E-1,9.676777039E0,9.686955970E0
2.446854292E0,2.856060791E-1,-3.879931641E-1,9.673783264E0,9.685772668E0
2.456911292E0,3.035687256E-1,-3.875440979E-1,9.702822876E0,9.715303195E0
2.466967292E0,3.179388428E-1,-4.073030090E-1,9.733059998E0,9.746765503E0
2.477024292E0,3.128494263E-1,-4.273612976E-1,9.764195251E0,9.778549041E0
2.487080292E0,3.079096985E-1,-4.294569397E-1,9.789342957E0,9.803595114E0
2.497137292E0,3.525169373E-1,-4.385879517E-1,9.751172333E0,9.767394199E0
2.507193292E0,3.761677551E-1,-4.029620361E-1,9.675579529E0,9.691270288E0
2.517250292E0,3.863465881E-1,-3.764671326E-1,9.611512756E0,9.626638492E0
2.527306292E0,4.155358887E-1,-3.622467041E-1,9.596843262E0,9.612663176E0
2.537363292E0,4.796026611E-1,-3.604504395E-1,9.608968048E0,9.627679377E0
2.547419292E0,5.554948425E-1,-3.441343689E-1,9.646240540E0,9.668348335E0
2.557476292E0,6.533912659E-1,-3.471281433E-1,9.609267426E0,9.637709196E0
2.567533292E0,5.718109131E-1,-4.073030090E-1,9.519304504E0,9.545156977E0
2.577589292E0,4.580474854E-1,-5.242098999E-1,9.518256683E0,9.543679259E0
2.587646292E0,3.779640198E-1,-5.408253479E-1,9.587562561E0,9.610239577E0
2.597702292E0,4.076023865E-1,-5.733078003E-1,9.563762054E0,9.589596768E0
2.607759292E0,1.030906219E0,-5.536985779E-1,9.552834778E0,9.624240336E0
2.617815292E0,1.561103668E0,-2.148033142E-1,9.735005951E0,9.861720235E0
2.627872292E0,1.251397705E0,-2.830613708E-1,9.461674347E0,9.548266932E0
2.637928292E0,5.182223511E-1,-7.545808411E-1,9.351054382E0,9.395752482E0
2.647985292E0,-1.646575928E-1,-1.012344818E0,9.957443390E0,1.001012652E1
2.658041292E0,5.748046875E-1,-9.613009644E-1,9.277706909E0,9.345070651E0
2.668098292E0,6.173162842E-1,-8.925938416E-1,9.492360535E0,9.554198641E0
2.678154292E0,4.734654236E-1,-9.077124023E-1,9.873767395E0,9.926701057E0
2.688211292E0,5.528004456E-1,-1.108594666E0,9.978699188E0,1.005529751E1
2.698268292E0,8.313711548E-1,-1.179098053E0,1.009665390E1,1.019920929E1
2.708324292E0,1.143921204E0,-1.129102020E0,1.018856277E1,1.031456439E1
2.718381292E0,1.503772888E0,-9.457333374E-1,1.016715729E1,1.032118364E1
2.728437292E0,1.866917725E0,-7.560777283E-1,1.006417145E1,1.026375089E1
2.738494292E0,2.060016174E0,-5.475613403E-1,9.919123077E0,1.014556517E1
2.748550292E0,2.231559448E0,-3.445834351E-1,9.909992065E0,1.016398239E1
2.758607292E0,2.295775909E0,-3.225791931E-1,9.999206543E0,1.026444231E1
2.768663292E0,2.182311859E0,-4.559518433E-1,9.985584869E0,1.023143599E1
2.778720292E0,2.248174896E0,-4.239184570E-1,9.882149963E0,1.014351444E1
2.788776292E0,2.069446564E0,-3.608995056E-1,9.909093933E0,1.012931390E1
2.798833292E0,2.008672943E0,-1.218466187E-1,9.951455841E0,1.015288565E1
2.808889292E0,2.432591400E0,1.622625732E-1,9.851912842E0,1.014908945E1
2.818946292E0,2.774929504E0,4.074526978E-1,9.764045563E0,1.015887972E1
2.829003292E0,3.157533875E0,6.382727051E-1,9.661808167E0,1.018469191E1
2.839059292E0,3.500919800E0,8.075706482E-1,9.434880066E0,1.009581951E1
2.849116292E0,3.784430237E0,8.361611938E-1,9.179211731E0,9.963885074E0
2.859172292E0,3.851490784E0,8.464897156E-1,8.973988495E0,9.802193408E0
2.869229292E0,3.748654633E0,1.020727386E0,8.776549072E0,9.598026337E0
2.879285292E0,3.682342529E0,1.192869415E0,8.625812531E0,9.454481781E0
2.889342292E0,3.688180389E0,1.303938446E0,8.468339996E0,9.328221285E0
2.899398292E0,3.798351288E0,1.404080200E0,8.317453766E0,9.250889193E0
2.909455042E0,3.940256195E0,1.496587830E0,8.209977264E0,9.228711757E0
2.919511042E0,3.889212341E0,1.624122620E0,8.086633759E0,9.119067522E0
2.929568042E0,3.760779419E0,1.858086090E0,7.852969666E0,8.903093750E0
2.939625042E0,3.662733307E0,2.080373840E0,7.636669464E0,8.721369795E0
2.949681042E0,3.577710114E0,2.220183105E0,7.438182220E0,8.547267249E0
2.959738042E0,3.625909882E0,2.271077271E0,7.203170929E0,8.377988176E0
2.969794042E0,3.745211792E0,2.150278473E0,6.904392242E0,8.143767010E0
2.979851042E0,3.847598877E0,1.964514771E0,6.664740601E0,7.942424232E0
2.989907042E0,3.922143860E0,1.859283600E0,6.410419464E0,7.741681062E0
2.999964042E0,3.975882111E0,1.813329163E0,6.165828094E0,7.557330038E0
3.010020042E0,4.129313049E0,1.884281616E0,5.952970734E0,7.485960461E0
3.020077042E0,4.673730927E0,2.171085205E0,5.770051117E0,7.736333863E0
3.030133042E0,5.486540680E0,2.549947357E0,5.820795593E0,8.395595363E0
3.040190042E0,6.073769531E0,2.819087677E0,6.010900269E0,8.998269483E0
3.050246042E0,6.443949738E0,2.899171143E0,6.175108795E0,9.384116909E0
3.060303042E0,6.627917175E0,2.793490906E0,6.111191711E0,9.438195890E0
3.070360042E0,6.620432739E0,2.618055725E0,5.829776917E0,9.201665302E0
3.080416042E0,6.484814758E0,2.397564240E0,5.493426361E0,8.830564530E0
3.090473042E0,6.355034637E0,2.181413727E0,5.167104950E0,8.476084276E0
3.100529042E0,6.232140198E0,2.077529755E0,4.924160156E0,8.209936332E0
3.110586042E0,6.094725952E0,1.983375549E0,4.473447418E0,7.816085645E0
3.120642042E0,6.293362885E0,1.941313019E0,3.768263855E0,7.587814251E0
3.130699042E0,6.269263000E0,1.951042786E0,3.461252289E0,7.422297079E0
3.140755042E0,5.981112213E0,2.046843567E0,3.230581970E0,7.099290934E0
3.150812042E0,6.014642487E0,2.081421661E0,2.708318024E0,6.916879852E0
3.160868042E0,5.973927155E0,2.009122009E0,2.251018982E0,6.692642479E0
3.170925042E0,5.641917572E0,1.901196442E0,1.917063446E0,6.254671379E0
3.180981042E0,5.553002472E0,1.712888031E0,1.441352692E0,5.987263101E0
3.191038042E0,5.637576599E0,1.400487671E0,1.146166534E0,5.920923353E0
3.201095042E0,5.844147034E0,1.060544586E0,1.128652954E0,6.045880156E0
3.211151042E0,6.208639069E0,7.637118530E-1,1.333427124E0,6.395973950E0
3.221208042E0,6.803052979E0,5.857319641E-1,1.782493286E0,7.057045705E0
3.231264042E0,7.427105255E0,4.616400146E-1,2.219135284E0,7.765279479E0
3.241321042E0,7.962990875E0,4.932243347E-1,2.618953857E0,8.397107432E0
3.251377042E0,8.371491394E0,6.896159363E-1,2.685265961E0,8.818621864E0
3.261434042E0,8.629704437E0,8.348139954E-1,2.496807861E0,9.022347953E0
3.271490042E0,8.787476349E0,8.134085083E-1,1.980232086E0,9.044484126E0
3.281547042E0,8.785680084E0,6.396199036E-1,1.262774048E0,8.898982327E0
3.291603042E0,8.642877045E0,3.751199341E-1,5.279521179E-1,8.667108631E0
3.301660042E0,8.359965363E0,1.517843628E-1,-1.136137390E-1,8.362115010E0
3.311716042E0,8.415499878E0,-6.331832886E-2,-6.351292419E-1,8.439670406E0
3.321773042E0,8.898096313E0,-2.474354553E-1,-9.171427917E-1,8.948658738E0
3.331830042E0,9.519005127E0,-3.655398560E-1,-7.261399841E-1,9.553656749E0
3.341886042E0,1.025038422E1,-4.456233215E-1,-2.234852600E-1,1.026249981E1
3.351943042E0,1.087174210E1,-4.622387695E-1,2.902464294E-1,1.088543448E1
3.361999042E0,1.110271179E1,-3.727249146E-1,6.201603699E-1,1.112626316E1
3.372056042E0,1.110346024E1,-3.495231628E-1,5.813909912E-1,1.112416339E1
3.382112042E0,1.100197128E1,-3.758683777E-1,1.103205872E-1,1.100894272E1
3.392169042E0,1.073387878E1,-3.070115662E-1,-4.613406372E-1,1.074817403E1
3.402225042E0,1.056113800E1,-1.682501221E-1,-1.044228516E0,1.061396991E1
3.412282042E0,1.039363632E1,-3.113525391E-2,-1.592687988E0,1.051500359E1
3.422338042E0,1.015533188E1,2.395019531E-2,-2.048190765E0,1.035984675E1
3.432395042E0,1.000833755E1,1.167572021E-2,-2.481689301E0,1.031143728E1
3.442451042E0,9.897268524E0,-1.387614441E-1,-2.863694916E0,1.030417040E1
3.452508042E0,9.951904907E0,-2.139051819E-1,-3.119063873E0,1.043142973E1
3.462565042E0,1.016401382E1,-3.129991150E-1,-3.271596680E0,1.068215757E1
3.472621042E0,1.052506302E1,-5.801934814E-1,-3.308569794E0,1.104808626E1
3.482678042E0,1.097757202E1,-6.746470642E-1,-3.294199677E0,1.148102729E1
3.492734042E0,1.158021881E1,-6.453080750E-1,-3.215164032E0,1.203557934E1
3.502791042E0,1.193632828E1,-1.047671356E0,-2.777025146E0,1.229981368E1
3.512847042E0,1.238569382E1,-5.536985779E-1,-1.981279907E0,1.255537588E1
3.522904042E0,1.152408554E1,-1.619033203E0,-2.223925323E0,1.184785465E1
3.532960042E0,1.153785690E1,-2.142045593E0,-2.308349762E0,1.195989046E1
3.543017042E0,1.200159256E1,-1.792672119E0,-2.169288940E0,1.232711287E1
3.553073042E0,1.174322983E1,-1.658551025E0,-2.174078979E0,1.205739846E1
3.563130042E0,1.153082153E1,-2.085014191E0,-2.451302490E0,1.197146663E1
3.573186042E0,1.167272644E1,-2.642904053E0,-2.867586823E0,1.230693051E1
3.583243042E0,1.179592026E1,-3.119662628E0,-3.203638000E0,1.261504364E1
3.593300042E0,1.169727539E1,-3.555406494E0,-3.324137421E0,1.266953261E1
3.603356042E0,1.182181641E1,-3.947141876E0,-3.249891815E0,1.288010361E1
3.613413042E0,1.210787155E1,-4.279151459E0,-3.001857605E0,1.318798088E1
3.623469042E0,1.234961884E1,-4.453089752E0,-2.768792267E0,1.341675461E1
3.633526042E0,1.259885056E1,-4.246818695E0,-2.562970276E0,1.354013741E1
3.643582042E0,1.301618271E1,-3.824397125E0,-2.317480774E0,1.376291186E1
3.653639042E0,1.354533234E1,-4.214785309E0,-2.147584076E0,1.434756288E1
3.663695042E0,1.387105499E1,-4.545148315E0,-1.765578461E0,1.470312236E1
3.673752042E0,1.365310822E1,-4.216282196E0,-1.430275726E0,1.436071336E1
3.683808042E0,1.311647415E1,-3.629053345E0,-1.235979767E0,1.366526869E1
3.693865042E0,1.253553223E1,-3.220253448E0,-1.203347626E0,1.299837090E1
3.703921042E0,1.207508972E1,-3.031795349E0,-1.314416656E0,1.251907608E1
3.713978042E0,1.160222305E1,-2.932701416E0,-1.314865723E0,1.203915235E1
3.724035042E0,1.118623810E1,-2.881058807E0,-1.298998718E0,1.162410514E1
3.734091042E0,1.070244415E1,-2.899021454E0,-1.270857239E0,1.116072195E1
3.744148042E0,1.004381378E1,-2.755619659E0,-1.198707275E0,1.048372711E1
3.754204042E0,9.621541901E0,-2.617906036E0,-1.190025330E0,1.004209445E1
3.764261042E0,9.184151459E0,-2.530038757E0,-1.253044281E0,9.608322127E0
3.774317042E0,8.706943817E0,-2.374362488E0,-1.325343933E0,9.121677718E0
3.784374042E0,8.334518280E0,-2.307002563E0,-1.393003235E0,8.759390036E0
3.794430042E0,8.062384186E0,-2.327060852E0,-1.406325531E0,8.508525282E0
3.804487042E0,7.828570404E0,-2.309996338E0,-1.324595490E0,8.269047760E0
3.814543042E0,7.634723511E0,-2.160157928E0,-1.153650970E0,8.017867293E0
3.824600042E0,7.492968292E0,-1.953737183E0,-1.009800110E0,7.809056221E0
3.834656042E0,7.399113464E0,-1.760039978E0,-1.064885559E0,7.679752733E0
3.844713042E0,7.408094788E0,-1.550924835E0,-1.285077667E0,7.677021612E0
3.854770042E0,7.194788361E0,-1.372346191E0,-1.593885498E0,7.495917863E0
3.864826042E0,6.732399902E0,-1.141975250E0,-1.860032043E0,7.077360745E0
3.874883042E0,6.322252808E0,-8.062234497E-1,-2.065554657E0,6.699805434E0
3.884939042E0,5.918542328E0,-7.229965210E-1,-2.307601318E0,6.393503820E0
3.894996042E0,5.657934265E0,-7.809260559E-1,-2.450104980E0,6.214907889E0
3.905052583E0,5.605692902E0,-9.261241150E-1,-2.592009888E0,6.244999123E0
3.915109583E0,5.989494781E0,-1.135538635E0,-2.760858765E0,6.692222116E0
3.925165583E0,6.760990448E0,-1.469793549E0,-2.911595306E0,7.506575261E0
3.935222583E0,7.749534760E0,-1.936522980E0,-3.044668579E0,8.548416052E0
3.945278583E0,8.836125183E0,-2.456092529E0,-3.314257965E0,9.751605233E0
3.955335583E0,9.904303894E0,-2.969075775E0,-3.766467590E0,1.100440479E1
3.965391583E0,1.136346954E1,-3.732039185E0,-4.443809052E0,1.275946689E1
3.975448583E0,1.333247498E1,-4.984933777E0,-5.191803589E0,1.515121375E1
3.985504583E0,1.551673279E1,-6.671775970E0,-5.852379913E0,1.787545640E1
3.995561583E0,1.711540833E1,-8.234376526E0,-6.025270386E0,1.992601421E1
4.005618583E0,1.776820084E1,-9.033115540E0,-5.620961151E0,2.070993340E1
4.015674583E0,1.819137085E1,-9.423952789E0,-5.070256348E0,2.110555280E1
4.025731583E0,1.870465347E1,-9.919272766E0,-4.668641510E0,2.168068835E1
4.035787583E0,1.882545227E1,-1.034678375E1,-4.413721619E0,2.193021946E1
4.045844583E0,1.838925934E1,-1.051907547E1,-4.318818970E0,2.162100842E1
4.055900583E0,1.766850815E1,-1.053494247E1,-4.373754730E0,2.103071381E1
4.065957583E0,1.654629181E1,-1.021236328E1,-4.392465820E0,1.993403854E1
4.076013583E0,1.507574982E1,-9.463470612E0,-4.209396515E0,1.829083179E1
4.086070583E0,1.346854202E1,-8.308622131E0,-4.003275146E0,1.632363433E1
4.096126583E0,1.205892334E1,-6.691534882E0,-3.598067780E0,1.425273177E1
4.106183583E0,1.064092209E1,-5.189109192E0,-2.748284912E0,1.215356520E1
4.116239583E0,8.985664215E0,-3.838617554E0,-2.166295166E0,1.000849543E1
4.126296583E0,7.165748749E0,-2.464475098E0,-1.489402771E0,7.722688214E0
4.136352583E0,5.320236511E0,-9.916877747E-1,-9.364526367E-1,5.492295032E0
4.146409583E0,3.605252838E0,3.803590393E-1,-6.979985046E-1,3.691845465E0
4.156466583E0,2.169288940E0,1.335971832E0,-8.581654358E-1,2.688323485E0
4.166522583E0,1.283730469E0,1.983525238E0,-1.406175842E0,2.749484822E0
4.176579583E0,3.538641357E-1,2.419269104E0,-2.258952484E0,3.328805965E0
4.186635583E0,-2.695893860E-1,2.870131531E0,-2.899919586E0,4.088993403E0
4.196692583E0,-5.063969421E-1,2.954555969E0,-3.451971588E0,4.571864683E0
4.206748583E0,-8.827143860E-1,3.086132355E0,-3.498973846E0,4.748285541E0
4.216805583E0,-1.040186920E0,3.159479828E0,-3.312910767E0,4.694643688E0
4.226861583E0,-9.839039612E-1,2.931054840E0,-3.015479279E0,4.318826780E0
4.236918583E0,-7.476951599E-1,2.452799377E0,-2.642305298E0,3.681989968E0
4.246974583E0,-4.288581848E-1,1.918410645E0,-2.266287231E0,3.000046093E0
4.257031583E0,-1.589694214E-1,1.379082184E0,-1.822310486E0,2.290841429E0
4.267087583E0,-1.648072815E-1,1.174757080E0,-1.234482880E0,1.712064139E0
4.277144583E0,-2.170486450E-2,1.135688324E0,-7.406597900E-1,1.356036871E0
4.287201583E0,7.851173401E-1,9.681866455E-1,-5.638774109E-1,1.368120007E0
4.297257583E0,1.889221344E0,6.125262451E-1,-5.867797852E-1,2.070907097E0
4.307314583E0,3.194956055E0,1.835183716E-1,-8.036787415E-1,3.299594324E0
4.317370583E0,5.089416504E0,-5.529501343E-1,-1.445993042E0,5.319662591E0
4.327427583E0,7.982001343E0,-2.163002014E0,-2.571951599E0,8.660592253E0
4.337483583E0,1.226878693E1,-5.212161255E0,-4.211492157E0,1.397950013E1
4.347540583E0,1.748933075E1,-9.560468903E0,-5.823190613E0,2.076508619E1
4.357596583E0,2.168690186E1,-1.338800949E1,-6.449937286E0,2.628996389E1
4.367653583E0,2.353525818E1,-1.480256790E1,-5.903573456E0,2.842316966E1
4.377709583E0,2.391741348E1,-1.525956757E1,-5.102439423E0,2.882589041E1
4.387766583E0,2.440659622E1,-1.594843506E1,-4.372706909E0,2.948143629E1
4.397822583E0,2.477842300E1,-1.629750916E1,-3.840413818E0,2.990531440E1
4.407879583E0,2.394615372E1,-1.616892654E1,-3.836970978E0,2.914746661E1
4.417935583E0,2.153556656E1,-1.530656982E1,-3.923940125E0,2.671084074E1
4.427992583E0,1.829675171E1,-1.347632584E1,-3.855981445E0,2.304888444E1
4.438049583E0,1.553978485E1,-1.144924118E1,-3.745211792E0,1.966206114E1
4.448105583E0,1.364292938E1,-9.550140381E0,-3.486849060E0,1.701448853E1
4.458162583E0,1.207344315E1,-7.710166626E0,-3.024909668E0,1.464120136E1
4.468218583E0,1.033346146E1,-5.585185547E0,-2.389181671E0,1.198678073E1
4.478275583E0,8.275540924E0,-3.277584229E0,-1.812131653E0,9.083554210E0
4.488331583E0,6.310726776E0,-1.141376495E0,-1.402882690E0,6.564761427E0
4.498388583E0,4.737498322E0,5.574407959E-1,-1.251697083E0,4.931670728E0
4.508444583E0,3.559597778E0,1.726060638E0,-1.306782532E0,4.166257584E0
4.518501583E0,2.734663239E0,2.500550079E0,-1.496138763E0,3.996193805E0
4.528557583E0,2.217339020E0,3.036286011E0,-1.547032928E0,4.065579411E0
4.538614583E0,1.717827759E0,3.415896606E0,-1.399739227E0,4.071676772E0
4.548670583E0,1.113833771E0,3.603306885E0,-1.368005219E0,4.011967653E0
4.558727583E0,3.589535522E-1,3.662583618E0,-1.448837128E0,3.955059473E0
4.568783583E0,-2.628533936E-1,3.505410461E0,-1.630259857E0,3.874886013E0
4.578840583E0,-5.709127808E-1,2.996319122E0,-1.877096558E0,3.581530563E0
4.588897583E0,-6.816824341E-1,2.325114899E0,-1.976190491E0,3.126688198E0
4.598953583E0,-7.204518127E-1,1.672771454E0,-1.898052979E0,2.630555124E0
4.609010583E0,-4.655319214E-1,1.121318207E0,-1.555415497E0,1.973167975E0
4.619066583E0,-2.754272461E-2,6.935078430E-1,-1.054557037E0,1.262458821E0
4.629123583E0,2.758763123E-1,4.966671753E-1,-5.595364380E-1,7.974127213E-1
4.639179583E0,5.956114197E-1,5.038522339E-1,-2.827619934E-1,8.298038212E-1
4.649236583E0,1.068777466E0,5.607339478E-1,-2.297721863E-1,1.228618366E0
4.659292583E0,1.636247406E0,5.424719238E-1,-2.642005920E-1,1.743956225E0
4.669349583E0,2.531385956E0,2.712359619E-1,-3.180885315E-1,2.565670306E0
4.679405583E0,3.598217468E0,-3.185375977E-1,-4.370910645E-1,3.638637623E0
4.689462583E0,5.076992340E0,-1.678759003E0,-1.264720001E0,5.494870307E0
4.699518583E0,7.894583130E0,-4.130061493E0,-2.594554596E0,9.279739451E0
4.709575583E0,1.122231308E1,-6.667434998E0,-3.628753967E0,1.354853703E1
4.719632583E0,1.417073181E1,-9.524244232E0,-4.490511932E0,1.765461882E1
4.729688583E0,1.746373398E1,-1.220846237E1,-5.134921875E0,2.191793742E1
4.739745583E0,2.029823959E1,-1.432970123E1,-5.461692352E0,2.543990864E1
4.749801583E0,2.222548187E1,-1.597163681E1,-5.836812286E0,2.798452438E1
4.759858583E0,2.289713516E1,-1.705777817E1,-6.260281677E0,2.923076669E1
4.769914583E0,2.254641449E1,-1.722348358E1,-6.339467010E0,2.907194584E1
4.779971583E0,2.194900681E1,-1.708352463E1,-6.253994751E0,2.850821222E1
4.790027583E0,2.125385239E1,-1.678175217E1,-6.079757080E0,2.775458328E1
4.800084583E0,2.034509216E1,-1.622116791E1,-5.611979828E0,2.661847819E1
4.810140583E0,1.930894684E1,-1.571806412E1,-5.036576385E0,2.540196979E1
4.820197583E0,1.800785248E1,-1.497515900E1,-4.377047882E0,2.382638634E1
4.830253583E0,1.621727600E1,-1.361224319E1,-3.573818207E0,2.147243308E1
4.840310583E0,1.396041916E1,-1.168290527E1,-2.672841797E0,1.839912123E1
4.850366583E0,1.149564468E1,-9.367370453E0,-1.807491302E0,1.493869140E1
4.860423583E0,9.029822388E0,-6.979985046E0,-1.118474121E0,1.146773160E1
4.870479583E0,6.786587219E0,-4.732109528E0,-6.174659729E-1,8.296498713E0
4.880536583E0,4.955894165E0,-2.752925262E0,-3.501219177E-1,5.679970936E0
4.890593583E0,3.615281982E0,-1.109193420E0,-3.206332397E-1,3.795178458E0
4.900649583E0,2.706222382E0,1.297801208E-1,-5.489085388E-1,2.764377514E0
4.910706292E0,2.113305359E0,1.068029022E0,-1.109043732E0,2.614712896E0
4.920762292E0,1.683249664E0,1.761985931E0,-1.770069122E0,3.011821468E0
4.930819292E0,1.200353851E0,2.280208282E0,-2.123334503E0,3.338974183E0
4.940875292E0,8.355624390E-1,2.679428101E0,-2.629132690E0,3.845755874E0
4.950932292E0,5.227130127E-1,3.072959747E0,-2.765499115E0,4.167048819E0
4.960988292E0,2.962339783E-1,3.262465668E0,-2.718945923E0,4.257241329E0
4.971045292E0,2.865042114E-1,3.315006409E0,-2.503394165E0,4.163932576E0
4.981101292E0,7.229965210E-1,3.400927734E0,-1.909579010E0,3.966802922E0
4.991158292E0,9.473799133E-1,3.011437683E0,-1.372346191E0,3.442327656E0
5.001214292E0,5.562432861E-1,1.952839050E0,-1.674118652E0,2.631664913E0
5.011271292E0,7.631130981E-1,1.580114136E0,-1.710343323E0,2.450382942E0
5.021327292E0,1.223405914E0,1.559307404E0,-1.302890625E0,2.371852776E0
5.031384292E0,1.404080200E0,1.293310547E0,-8.599617004E-1,2.093711419E0
5.041441292E0,1.513053589E0,7.496411133E-1,-4.926255798E-1,1.758969279E0
5.051497292E0,1.601819000E0,2.746788025E-1,-2.436932373E-1,1.643368172E0
5.061554292E0,1.982327728E0,4.939727783E-3,-1.604663086E-1,1.988818006E0
5.071610292E0,2.816243591E0,-2.469863892E-1,-2.766247559E-1,2.840554787E0
5.081667292E0,4.132456512E0,-7.262896729E-1,-5.899232483E-1,4.237063011E0
5.091723292E0,6.163582764E0,-1.553170166E0,-1.452279968E0,6.520061898E0
5.101780292E0,9.016949158E0,-3.083288269E0,-2.948867798E0,9.975362648E0
5.111836292E0,1.290122177E1,-5.799839172E0,-4.700375519E0,1.490547509E1
5.121893292E0,1.761596741E1,-9.798923035E0,-6.672973480E0,2.123369434E1
5.131949292E0,2.216979767E1,-1.435020859E1,-8.152496796E0,2.763858931E1
5.142006292E0,2.581097580E1,-1.747690659E1,-8.923393707E0,3.242338185E1
5.152062292E0,2.748404663E1,-1.832998260E1,-8.692424011E0,3.416020077E1
5.162119292E0,2.705234436E1,-1.770338562E1,-7.800428925E0,3.325786958E1
5.172175292E0,2.593626526E1,-1.711391144E1,-7.110513611E0,3.187687601E1
5.182232292E0,2.425481186E1,-1.696003143E1,-6.983876953E0,3.040909571E1
5.192289292E0,2.150038971E1,-1.623389145E1,-6.785689087E0,2.778221672E1
5.202345292E0,1.822774521E1,-1.483894226E1,-6.259682922E0,2.432341533E1
5.212402292E0,1.546778458E1,-1.331271606E1,-5.546565857E0,2.114817159E1
5.222458292E0,1.307141785E1,-1.149519562E1,-4.632117462E0,1.801271770E1
5.232515292E0,1.061457687E1,-9.095835114E0,-3.551514587E0,1.442278456E1
5.242571292E0,8.016280060E0,-6.364165649E0,-2.548450470E0,1.054788842E1
5.252628292E0,5.593867493E0,-3.723057861E0,-1.751208344E0,6.944007778E0
5.262684292E0,3.616479492E0,-1.517693939E0,-1.193767548E0,4.099682886E0
5.272741292E0,2.210752716E0,1.640588379E-1,-9.508227539E-1,2.412137389E0
5.282797292E0,1.203048248E0,1.409468994E0,-1.030756531E0,2.120468571E0
5.292854292E0,5.533992004E-1,2.179916840E0,-1.262624359E0,2.579245699E0
5.302910292E0,8.128097534E-2,2.637215881E0,-1.536704407E0,3.053354653E0
5.312967292E0,-4.008663940E-1,2.941083984E0,-1.645228729E0,3.393736354E0
5.323023292E0,-7.500901794E-1,3.076252899E0,-1.686692505E0,3.587603487E0
5.333080292E0,-9.629475403E-1,3.027005310E0,-1.537602539E0,3.529058044E0
5.343136292E0,-9.783654785E-1,2.837948456E0,-1.418150940E0,3.319985322E0
5.353193292E0,-8.104147339E-1,2.514770508E0,-1.325643311E0,2.956040077E0
5.363250292E0,-5.028044128E-1,2.154469757E0,-1.247505798E0,2.539847029E0
5.373306292E0,-2.080673218E-1,1.817819824E0,-1.159339142E0,2.166062827E0
5.383363292E0,2.499801636E-2,1.539698181E0,-9.857002258E-1,1.828360010E0
5.393419292E0,2.674937439E-1,1.335971832E0,-7.054829407E-1,1.534301085E0
5.403476292E0,3.659889221E-1,1.219663696E0,-4.198768616E-1,1.340829595E0
5.413532292E0,4.920268250E-1,1.161434784E0,-1.823208618E-1,1.274465398E0
5.423589292E0,7.732919312E-1,1.118474121E0,-4.595443726E-2,1.360542752E0
5.433645292E0,1.212927704E0,1.071172485E0,5.373825073E-2,1.619102192E0
5.443702292E0,1.834435272E0,9.508227539E-1,1.487905884E-1,2.071558668E0
5.453758292E0,2.805166626E0,6.445596313E-1,-1.113684082E-1,2.880420081E0
5.463815292E0,4.143683167E0,-1.131646729E-1,-8.244854736E-1,4.226427892E0
5.473871292E0,5.877377930E0,-1.474284210E0,-1.884580994E0,6.345764791E0
5.483928292E0,8.070467377E0,-3.375181274E0,-3.225941620E0,9.323679083E0
5.493984292E0,1.129476242E1,-5.933660889E0,-4.814737701E0,1.363677707E1
5.504041292E0,1.579201035E1,-9.208999786E0,-6.660699005E0,1.945657162E1
5.514097292E0,2.055016571E1,-1.273686356E1,-8.500822449E0,2.562812881E1
5.524154292E0,2.439222610E1,-1.518232819E1,-1.025053391E1,3.050503612E1
5.534210292E0,2.649625076E1,-1.633822449E1,-1.098879868E1,3.301124930E1
5.544267292E0,2.669279205E1,-1.640827881E1,-1.050545380E1,3.304695630E1
5.554324292E0,2.554183548E1,-1.533066971E1,-9.393715668E0,3.123550364E1
5.564380292E0,2.340547806E1,-1.416953430E1,-8.264314270E0,2.858130501E1
5.574437292E0,2.093067444E1,-1.321526871E1,-7.507937164E0,2.586707521E1
5.584493292E0,1.885479126E1,-1.266276764E1,-6.915918274E0,2.374191996E1
5.594550292E0,1.719773712E1,-1.258223511E1,-6.444997559E0,2.226236277E1
5.604606292E0,1.541748917E1,-1.214619186E1,-5.805976410E0,2.046798258E1
5.614663292E0,1.337932755E1,-1.068552933E1,-4.787045288E0,1.777927853E1
5.624719292E0,1.122321121E1,-8.463100891E0,-3.680995331E0,1.453046019E1
5.634776292E0,9.118887177E0,-5.922134857E0,-2.655926971E0,1.119284292E1
5.644832292E0,7.027436371E0,-3.455863495E0,-1.967807922E0,8.074659278E0
5.654889292E0,5.296136627E0,-1.314416656E0,-1.755100250E0,5.732114026E0
5.664945292E0,3.949387207E0,1.845661926E-1,-1.961071930E0,4.413335145E0
5.675002292E0,2.834804993E0,1.091530151E0,-2.031425629E0,3.654346385E0
5.685058292E0,1.420995026E0,1.679806824E0,-1.550475769E0,2.691645025E0
5.695115292E0,5.254074097E-2,2.304158478E0,-1.303639069E0,2.647901365E0
5.705172292E0,-9.961784363E-1,2.872676239E0,-1.024918671E0,3.208597596E0
5.715228292E0,-1.710642700E0,3.298241272E0,-9.912387085E-1,3.845419108E0
5.725285292E0,-1.947001190E0,3.399879913E0,-1.034947815E0,4.052297378E0
5.735341292E0,-1.741179199E0,3.198099518E0,-1.104403381E0,3.805161279E0
5.745398292E0,-1.232387238E0,2.727328491E0,-1.256936188E0,3.246072640E0
5.755454292E0,-7.084767151E-1,2.237247620E0,-1.363065491E0,2.713883509E0
5.765511292E0,-1.481918335E-1,1.767674103E0,-1.386865997E0,2.251672678E0
5.775567292E0,3.481759644E-1,1.330283661E0,-1.259181519E0,1.864515813E0
5.785624292E0,7.207511902E-1,9.602531433E-1,-1.037791901E0,1.587003594E0
5.795680292E0,1.072669373E0,7.194039917E-1,-8.565188599E-1,1.549769739E0
5.805737292E0,1.433868256E0,5.730084229E-1,-7.723937988E-1,1.726530917E0
5.815793292E0,1.703307953E0,5.287005615E-1,-5.974076843E-1,1.880871662E0
5.825850292E0,1.826202393E0,5.770500183E-1,-4.689747620E-1,1.971785797E0
5.835906292E0,2.014211426E0,5.248086548E-1,-4.495152283E-1,2.129444935E0
5.845963292E0,2.629282379E0,2.784210205E-1,-6.143225098E-1,2.714412688E0
5.856019292E0,3.971990204E0,-4.326004028E-1,-1.265019379E0,4.190957327E0
5.866076292E0,5.992189178E0,-1.688339081E0,-2.396516418E0,6.670840348E0
5.876132292E0,9.068442078E0,-3.524570618E0,-4.074077911E0,1.054786000E1
5.886189292E0,1.311033691E1,-6.362070007E0,-6.236780548E0,1.585100313E1
5.896245292E0,1.783032166E1,-1.034304153E1,-8.724008331E0,2.238319012E1
5.906301917E0,2.242786102E1,-1.441427536E1,-1.106843307E1,2.886677147E1
5.916358917E0,2.483335876E1,-1.623763367E1,-1.231938171E1,3.212668082E1
5.926414917E0,2.457798981E1,-1.667457504E1,-1.289897644E1,3.238059031E1
5.936471917E0,2.436213867E1,-1.611443985E1,-1.208571762E1,3.161097187E1
5.946527917E0,2.489203674E1,-1.534414169E1,-1.054018158E1,3.108297935E1
5.956584917E0,2.351130798E1,-1.419138885E1,-8.927135925E0,2.887682248E1
5.966640917E0,2.092423782E1,-1.283999908E1,-7.762407990E0,2.574770442E1
5.976697917E0,1.858639938E1,-1.186163361E1,-7.143295441E0,2.317712803E1
5.986753917E0,1.666439621E1,-1.144490021E1,-6.686146088E0,2.129301273E1
5.996810917E0,1.468386475E1,-1.065903442E1,-6.153254242E0,1.915968258E1
6.006866917E0,1.247221390E1,-8.819809113E0,-5.492528229E0,1.623308408E1
6.016923917E0,1.029993118E1,-6.285728760E0,-4.594994659E0,1.291173669E1
6.026979917E0,8.253386993E0,-3.728446655E0,-3.921395416E0,9.868994545E0
6.037036917E0,6.529721375E0,-1.600022736E0,-2.900518341E0,7.321908264E0
6.047092917E0,5.022355957E0,-1.056802368E-1,-2.011966095E0,5.411398640E0
6.057149917E0,3.708238678E0,8.125103760E-1,-1.402733002E0,4.047081304E0
6.067205917E0,2.480491791E0,1.684147797E0,-1.102457428E0,3.194464854E0
6.077262917E0,1.192869415E0,2.386038208E0,-8.595126343E-1,2.802655480E0
6.087319917E0,5.987548828E-3,2.839595032E0,-8.437953186E-1,2.962317730E0
6.097375917E0,-8.743318176E-1,3.170706482E0,-1.040186920E0,3.449612232E0
6.107432917E0,-1.279239807E0,3.300935669E0,-1.267115021E0,3.760081282E0
6.117488917E0,-1.331481171E0,3.229085083E0,-1.451381836E0,3.782372511E0
6.127545917E0,-1.119521942E0,2.977757721E0,-1.740580444E0,3.626291592E0
6.137601917E0,-8.283773804E-1,2.601589966E0,-1.860331421E0,3.303832991E0
6.147658917E0,-5.736071777E-1,2.193239136E0,-1.814826050E0,2.903948466E0
6.157714917E0,-3.305126953E-1,1.789828033E0,-1.688638458E0,2.482785306E0
6.167771917E0,-5.673202515E-2,1.364562378E0,-1.533411255E0,2.053435921E0
6.177827917E0,1.686991882E-1,9.987231445E-1,-1.343605957E0,1.682612345E0
6.187884917E0,4.056564331E-1,7.662565613E-1,-1.139879608E0,1.432142374E0
6.197940917E0,7.767347717E-1,6.182144165E-1,-1.033600616E0,1.433121141E0
6.207997917E0,1.293011169E0,4.788542175E-1,-8.963360596E-1,1.644566076E0
6.218053917E0,1.877246246E0,3.505709839E-1,-7.062313843E-1,2.036103203E0
6.228110917E0,2.619253235E0,2.155517578E-1,-6.870712280E-1,2.716434601E0
6.238166917E0,3.691623230E0,-7.484436035E-2,-8.238867188E-1,3.783182929E0
6.248223917E0,5.216651917E0,-7.376660156E-1,-1.422342224E0,5.457166460E0
6.258279917E0,7.449109497E0,-2.156715088E0,-2.853366394E0,8.263313624E0
6.268336917E0,1.051323761E1,-4.403842163E0,-4.921914825E0,1.241560455E1
6.278392917E0,1.386611526E1,-7.319928131E0,-7.012617188E0,1.717635876E1
6.288449917E0,1.704804840E1,-1.046907944E1,-9.021739197E0,2.194605561E1
6.298506917E0,1.971684860E1,-1.268716690E1,-1.079929276E1,2.581362134E1
6.308562917E0,2.158945450E1,-1.368080063E1,-1.190938431E1,2.819755816E1
6.318619917E0,2.230870880E1,-1.411399979E1,-1.234782257E1,2.914364769E1
6.328675917E0,2.294728088E1,-1.418989197E1,-1.230396378E1,2.965330097E1
6.338732917E0,2.357223129E1,-1.394964157E1,-1.171718399E1,2.979152545E1
6.348788917E0,2.303559723E1,-1.323981766E1,-1.033780243E1,2.850967678E1
6.358845917E0,2.142225220E1,-1.197898956E1,-9.164542236E0,2.619919683E1
6.368901917E0,1.951806198E1,-1.114327744E1,-8.712332611E0,2.410460776E1
6.378958917E0,1.750714371E1,-1.059017761E1,-8.423732758E0,2.212716015E1
6.389014917E0,1.536240372E1,-9.673334198E0,-7.807913361E0,1.976209385E1
6.399071917E0,1.310180466E1,-8.074808350E0,-6.720873871E0,1.679374767E1
6.409127917E0,1.084150497E1,-6.059549103E0,-5.349425812E0,1.352304411E1
6.419184917E0,8.712931366E0,-3.964206390E0,-3.939208374E0,1.035120611E1
6.429240917E0,6.748566284E0,-2.013013916E0,-2.705773315E0,7.544307864E0
6.439297917E0,5.081483002E0,-4.755610657E-1,-1.812580719E0,5.416001910E0
6.449353917E0,3.750750275E0,5.728587341E-1,-1.209784241E0,3.982445563E0
6.459410917E0,2.636317749E0,1.364113312E0,-7.946974182E-1,3.072868430E0
6.469466917E0,1.657353516E0,1.935175781E0,-5.792953491E-1,2.612911993E0
6.479523917E0,8.399034119E-1,2.304607544E0,-4.761598206E-1,2.498676019E0
6.489579917E0,1.793270874E-1,2.484533386E0,-4.818479919E-1,2.537172016E0
6.499636917E0,-2.839595032E-1,2.524500275E0,-5.864804077E-1,2.607238751E0
6.509693917E0,-5.581892395E-1,2.454296265E0,-6.554869080E-1,2.600924541E0
6.519749917E0,-5.921685791E-1,2.264790344E0,-7.435038757E-1,2.456163053E0
6.529806917E0,-4.608915710E-1,2.050286407E0,-7.867639160E-1,2.243901257E0
6.539862917E0,-2.689906311E-1,1.841919708E0,-7.168592834E-1,1.994720884E0
6.549919917E0,-4.355941772E-2,1.709445190E0,-6.233038330E-1,1.820057128E0
6.559975917E0,2.233355713E-1,1.596280518E0,-4.758604431E-1,1.680605078E0
6.570032917E0,5.384303284E-1,1.453627167E0,-3.704795837E-1,1.593798695E0
6.580088917E0,8.214916992E-1,1.288071442E0,-2.975811768E-1,1.556448267E0
6.590145917E0,1.147214355E0,1.182690582E0,-2.041754150E-1,1.660284732E0
6.600201917E0,1.551673279E0,1.179098053E0,-1.207987976E-1,1.952576383E0
6.610258917E0,1.930535431E0,1.193767548E0,8.232879639E-3,2.269827260E0
6.620314917E0,2.721939697E0,8.716374207E-1,-1.778302002E-1,2.863622023E0
6.630371917E0,3.813769226E0,4.176315308E-2,-6.575825500E-1,3.870270621E0
6.640427917E0,5.062622223E0,-8.972341919E-1,-1.096469879E0,5.257130316E0
6.650484917E0,6.973398743E0,-2.023043060E0,-1.895957336E0,7.504375222E0
6.660540917E0,1.013018417E1,-3.985312500E0,-3.646866302E0,1.148054794E1
6.670597917E0,1.500045639E1,-7.756420441E0,-6.756350098E0,1.818856829E1
6.680653917E0,2.067814957E1,-1.363200211E1,-1.047985703E1,2.689321019E1
6.690710917E0,2.494981659E1,-1.870510254E1,-1.329894470E1,3.390038553E1
6.700766917E0,2.619507706E1,-1.968975494E1,-1.357586884E1,3.547073056E1
6.710823917E0,2.450748642E1,-1.834794525E1,-1.185010757E1,3.282817441E1
6.720880917E0,2.382116364E1,-1.737556732E1,-1.065529221E1,3.135113122E1
6.730936917E0,2.278262329E1,-1.607237732E1,-9.396110687E0,2.942203482E1
6.740993917E0,1.993314880E1,-1.444541061E1,-8.587941284E0,2.607207404E1
6.751049917E0,1.647938095E1,-1.270423141E1,-8.001909943E0,2.229345319E1
6.761106917E0,1.393736710E1,-1.154339539E1,-7.675438843E0,1.965737877E1
6.771162917E0,1.201626205E1,-1.074151291E1,-8.060587921E0,1.802064735E1
6.781219917E0,1.068657715E1,-9.885892181E0,-7.967182159E0,1.659547489E1
6.791275917E0,9.208251343E0,-8.017627258E0,-6.225104828E0,1.370496880E1
6.801332917E0,7.424410858E0,-5.392236786E0,-4.522245941E0,1.022979973E1
6.811388917E0,5.985752563E0,-3.201093292E0,-3.540737000E0,7.655916047E0
6.821445917E0,4.702620850E0,-1.347797241E0,-2.904859314E0,5.689411911E0
6.831501917E0,3.646267548E0,7.783813477E-2,-2.539768524E0,4.444294090E0
6.841558917E0,2.647694092E0,1.080602875E0,-2.380499725E0,3.720855482E0
6.851614917E0,1.780846710E0,1.671424255E0,-2.053130493E0,3.190676867E0
6.861671917E0,9.942324829E-1,2.059417419E0,-1.672921143E0,2.833436692E0
6.871727917E0,2.978805542E-1,2.387684784E0,-1.446591797E0,2.807561091E0
6.881784917E0,-2.682421875E-1,2.646945648E0,-1.306782532E0,2.964111287E0
6.891840917E0,-7.821235657E-1,2.811004486E0,-1.111438751E0,3.122300368E0
6.901897917E0,-1.100062408E0,2.896027679E0,-9.723779297E-1,3.246942017E0
6.911954583E0,-1.128353577E0,2.833158417E0,-9.116043091E-1,3.182921743E0
6.922011583E0,-9.054670715E-1,2.582579498E0,-9.080117798E-1,2.883413407E0
6.932067583E0,-4.728666687E-1,2.215393066E0,-9.463320923E-1,2.455018076E0
6.942124583E0,-1.130149841E-1,1.842069397E0,-9.223818970E-1,2.063196649E0
6.952181583E0,1.200503540E-1,1.550924835E0,-8.128097534E-1,1.755118123E0
6.962237583E0,1.769320679E-1,1.338965607E0,-6.038442993E-1,1.479446447E0
6.972294583E0,1.848655701E-1,1.099463654E0,-3.026705933E-1,1.155251095E0
6.982350583E0,1.868115234E-1,9.163943481E-1,1.221459961E-1,9.431843886E-1
6.992407583E0,4.565505981E-1,8.201445007E-1,3.820056152E-1,1.013411930E0
7.002463583E0,1.202150116E0,5.201683044E-1,3.957769775E-1,1.368349145E0
7.012520583E0,2.441872101E0,-1.695973206E-1,1.339714050E-1,2.451418150E0
7.022576583E0,4.082909546E0,-1.137334900E0,-4.953199768E-1,4.267203172E0
7.032633583E0,6.253395996E0,-2.310295715E0,-1.570833435E0,6.849083549E0
7.042689583E0,9.464368744E0,-3.846101990E0,-3.276985474E0,1.072871894E1
7.052746583E0,1.362466736E1,-6.594835968E0,-5.755681000E0,1.619417444E1
7.062802583E0,1.827369965E1,-1.108459946E1,-8.956175537E0,2.317346595E1
7.072859583E0,2.246393600E1,-1.579979416E1,-1.157857224E1,2.980478571E1
7.082915583E0,2.437620941E1,-1.793435532E1,-1.210472809E1,3.259394312E1
7.092972583E0,2.366952896E1,-1.713756226E1,-1.016895355E1,3.094107719E1
7.103028583E0,2.300625824E1,-1.578003525E1,-8.368497620E0,2.912609110E1
7.113085583E0,2.336401428E1,-1.543410461E1,-7.654482422E0,2.902894848E1
7.123141583E0,2.277319290E1,-1.514385818E1,-7.511978760E0,2.836167450E1
7.133198583E0,2.059836548E1,-1.459240494E1,-7.491471405E0,2.633159862E1
7.143254583E0,1.824346252E1,-1.410307251E1,-7.288343811E0,2.418347648E1
7.153311583E0,1.618209915E1,-1.363783997E1,-6.939569092E0,2.227125122E1
7.163367583E0,1.443238770E1,-1.269854324E1,-6.275998993E0,2.022214080E1
7.173424583E0,1.291514282E1,-1.120644608E1,-5.414241028E0,1.793597931E1
7.183480583E0,1.150357819E1,-9.300010529E0,-4.446503448E0,1.544648503E1
7.193537583E0,1.005234604E1,-7.226372681E0,-3.445534973E0,1.285075228E1
7.203594583E0,8.612041168E0,-5.196893005E0,-2.437531128E0,1.034971053E1
7.213650583E0,7.252268829E0,-3.433410187E0,-1.622625732E0,8.186368117E0
7.223707583E0,5.912405090E0,-1.962119751E0,-1.019080811E0,6.312287507E0
7.233763583E0,4.524491272E0,-6.740483093E-1,-6.197113037E-1,4.616211054E0
7.243820583E0,3.204536133E0,3.917353821E-1,-4.017645264E-1,3.253294203E0
7.253876583E0,2.116598511E0,1.191671906E0,-3.062631226E-1,2.448237792E0
7.263933583E0,1.433419189E0,1.687141571E0,-4.104464722E-1,2.251578016E0
7.273989583E0,1.090632019E0,1.983824615E0,-7.077282715E-1,2.371901687E0
7.284046583E0,8.367599487E-1,2.210603027E0,-9.228309631E-1,2.537429791E0
7.294102583E0,7.643106079E-1,2.343376923E0,-1.032552795E0,2.672405542E0
7.304159583E0,8.101153564E-1,2.374063110E0,-1.136137390E0,2.753773904E0
7.314215583E0,8.110134888E-1,2.395019531E0,-1.167422333E0,2.785091800E0
7.324272583E0,6.803352356E-1,2.469863892E0,-1.058149567E0,2.771779966E0
7.334328583E0,4.869374084E-1,2.521207123E0,-9.710307312E-1,2.745267578E0
7.344385583E0,4.593946838E-1,2.449356537E0,-8.964857483E-1,2.648410394E0
7.354441583E0,5.316943359E-1,2.258952484E0,-8.656498718E-1,2.476876035E0
7.364498583E0,5.785469055E-1,2.003284149E0,-8.111631775E-1,2.237375607E0
7.374554583E0,6.137237549E-1,1.751058655E0,-6.616241455E-1,1.969926336E0
7.384611583E0,7.506889343E-1,1.451381836E0,-4.809498596E-1,1.703336689E0
7.394667583E0,9.807604980E-1,1.010847931E0,-3.192860413E-1,1.444177368E0
7.404724583E0,1.383722534E0,4.269122314E-1,-1.606159973E-1,1.456962458E0
7.414780583E0,2.435585175E0,-3.427871704E-1,-2.576142883E-1,2.473043329E0
7.424837583E0,4.394112396E0,-1.482816467E0,-8.249345398E-1,4.710359373E0
7.434893583E0,6.888225861E0,-3.121159515E0,-1.785187683E0,7.770211535E0
7.444950583E0,9.748777313E0,-5.264402618E0,-2.984344025E0,1.147427136E1
7.455006583E0,1.308459045E1,-7.805668030E0,-4.723128204E0,1.595126643E1
7.465063583E0,1.667128189E1,-1.076052338E1,-6.505022736E0,2.088147083E1
7.475119583E0,1.979902771E1,-1.376896729E1,-7.756420441E0,2.533274593E1
7.485176583E0,2.142599442E1,-1.568348602E1,-7.933951263E0,2.771267856E1
7.495232583E0,2.172926376E1,-1.620290588E1,-7.092251587E0,2.801776392E1
7.505289583E0,2.156909683E1,-1.611698456E1,-6.140530701E0,2.761682905E1
7.515346583E0,2.149739594E1,-1.630828674E1,-5.795797577E0,2.759872312E1
7.525402583E0,2.071302704E1,-1.643507309E1,-5.672005005E0,2.704279492E1
7.535459583E0,1.873953094E1,-1.600696335E1,-5.526357880E0,2.525734600E1
7.545515583E0,1.641576324E1,-1.543814621E1,-5.407205658E0,2.317437193E1
7.555572583E0,1.462907867E1,-1.491483444E1,-5.389991455E0,2.157577895E1
7.565628583E0,1.325852875E1,-1.406115967E1,-5.390440521E0,2.006393891E1
7.575685583E0,1.207868225E1,-1.249870880E1,-5.155429230E0,1.812983004E1
7.585741583E0,1.091844498E1,-1.046294220E1,-4.514611816E0,1.578186681E1
7.595798583E0,9.663005676E0,-8.169261932E0,-3.759581909E0,1.320018846E1
7.605854583E0,8.361761627E0,-5.966742096E0,-2.991229706E0,1.069899640E1
7.615911583E0,6.942562866E0,-3.693419495E0,-2.446512451E0,8.235651151E0
7.625967583E0,5.537434845E0,-1.594334564E0,-2.020198975E0,6.106250180E0
7.636024583E0,3.978277130E0,2.359094238E-1,-1.755399628E0,4.354741098E0
7.646080583E0,2.527643738E0,1.611249390E0,-1.700912933E0,3.446478241E0
7.656137583E0,1.430724792E0,2.555485840E0,-2.016007690E0,3.555526447E0
7.666193583E0,7.105723572E-1,3.005300446E0,-2.323318634E0,3.864524980E0
7.676250583E0,2.050735474E-1,3.155438232E0,-2.619851990E0,4.106393801E0
7.686306583E0,-2.929408264E-1,3.247796173E0,-2.801873474E0,4.299359170E0
7.696363583E0,-6.533912659E-1,3.322790222E0,-2.760858765E0,4.369232899E0
7.706419583E0,-7.387138367E-1,3.209176483E0,-2.669398956E0,4.239127578E0
7.716476583E0,-7.023394775E-1,2.880010986E0,-2.521057434E0,3.891461757E0
7.726532583E0,-5.556445312E-1,2.397564240E0,-2.259700928E0,3.341153006E0
7.736589583E0,-5.044509888E-1,1.894610138E0,-1.908082123E0,2.735835478E0
7.746645583E0,-5.328918457E-1,1.418899384E0,-1.500629425E0,2.132870800E0
7.756702583E0,-4.343966675E-1,9.398954773E-1,-1.087189178E0,1.501360810E0
7.766758583E0,-2.574645996E-1,5.114863586E-1,-6.497987366E-1,8.661089499E-1
7.776815583E0,1.541793823E-2,2.185455322E-1,-1.972897339E-1,2.948272402E-1
7.786871583E0,5.065466309E-1,8.846603394E-2,1.649569702E-1,5.400245646E-1
7.796928583E0,1.211430817E0,-1.601669312E-1,2.854563904E-1,1.254871874E0
7.806984583E0,2.367476807E0,-6.806346130E-1,-1.511856079E-2,2.463420077E0
7.817041583E0,4.071682892E0,-1.507215729E0,-9.075627136E-1,4.435535019E0
7.827098583E0,6.562054138E0,-2.950364685E0,-2.200873260E0,7.523898550E0
7.837154583E0,1.016102005E1,-5.073399811E0,-3.897145844E0,1.200722532E1
7.847211583E0,1.397658554E1,-8.090825043E0,-5.837411041E0,1.717212162E1
7.857267583E0,1.685105804E1,-1.133457962E1,-7.673642578E0,2.170980522E1
7.867324583E0,1.824316315E1,-1.346165634E1,-8.766070862E0,2.430788332E1
7.877380583E0,1.852637421E1,-1.390817780E1,-9.007967834E0,2.485573244E1
7.887437583E0,1.832564163E1,-1.349159409E1,-8.437953186E0,2.427037919E1
7.897493583E0,1.896945282E1,-1.311662384E1,-7.834258575E0,2.435696140E1
7.907549917E0,2.065240311E1,-1.350282074E1,-7.744595032E0,2.586168351E1
7.917605917E0,2.144036453E1,-1.351569397E1,-7.513475647E0,2.643511927E1
7.927662917E0,2.079550552E1,-1.230935257E1,-6.847360840E0,2.511691783E1
7.937718917E0,1.985306534E1,-1.144939087E1,-6.439459076E0,2.380544870E1
7.947775917E0,1.904729095E1,-1.120315292E1,-6.350394287E0,2.299211682E1
7.957831917E0,1.788929901E1,-1.074136322E1,-5.985004120E0,2.170769857E1
7.967888917E0,1.638866959E1,-9.776170349E0,-5.197641449E0,1.977820705E1
7.977944917E0,1.475826004E1,-8.494236145E0,-4.385280762E0,1.758377020E1
7.988001917E0,1.304941360E1,-7.045698395E0,-3.732039185E0,1.529238954E1
7.998057917E0,1.109402985E1,-5.477110291E0,-3.178490295E0,1.277415500E1
8.008114917E0,8.987759857E0,-3.821702728E0,-2.663261719E0,1.012315178E1
8.018170917E0,6.906487885E0,-2.351011047E0,-2.251318359E0,7.635133411E0
8.028227917E0,5.089715881E0,-1.123713226E0,-1.983974304E0,5.577104375E0
8.038283917E0,3.583398285E0,-1.769320679E-1,-1.855391693E0,4.039124479E0
8.048340917E0,2.299069061E0,4.564009094E-1,-1.777703247E0,2.941810526E0
8.058396917E0,1.086440735E0,1.046324158E0,-1.788480835E0,2.339617792E0
8.068453917E0,3.876937866E-2,1.503473511E0,-1.852248230E0,2.385950370E0
8.078509917E0,-7.905061340E-1,1.858684845E0,-1.874102783E0,2.755334924E0
8.088566917E0,-1.418899384E0,2.069446564E0,-1.772015076E0,3.071794584E0
8.098622917E0,-1.712588654E0,2.118245087E0,-1.656605072E0,3.188144054E0
8.108679917E0,-1.646126862E0,1.993105316E0,-1.564696198E0,3.021667857E0
8.118735917E0,-1.416354675E0,1.760489044E0,-1.439107361E0,2.678882647E0
8.128792917E0,-1.055904236E0,1.470392303E0,-1.250499573E0,2.200167372E0
8.138848917E0,-5.623805237E-1,1.146914978E0,-1.038390656E0,1.646189835E0
8.148905917E0,-6.870712280E-2,8.210426331E-1,-7.979905701E-1,1.147005067E0
8.158961917E0,3.016227722E-1,5.598358154E-1,-5.200186157E-1,8.214692920E-1
8.169018917E0,6.005511475E-1,3.300636292E-1,-2.787203979E-1,7.397896595E-1
8.179074917E0,9.901908875E-1,1.606159973E-1,-1.065783691E-1,1.008778688E0
8.189131917E0,1.422641602E0,7.873626709E-2,5.164260864E-2,1.425754357E0
8.199187917E0,1.986668701E0,-7.394622803E-2,4.041595459E-2,1.988455185E0
8.209244917E0,3.135679321E0,-4.487667847E-1,-1.953437805E-1,3.173647054E0
8.219301917E0,4.982389069E0,-1.401236115E0,-9.735754395E-1,5.266451615E0
8.229357917E0,7.790250092E0,-3.248694305E0,-2.592608643E0,8.829701623E0
8.239414917E0,1.171389084E1,-6.206693115E0,-4.670138397E0,1.405519373E1
8.249470917E0,1.644450348E1,-1.041923309E1,-7.052135010E0,2.070542733E1
8.259527917E0,2.076990875E1,-1.443508209E1,-8.794811096E0,2.677889854E1
8.269583917E0,2.289938049E1,-1.592493393E1,-9.260193329E0,2.938939142E1
8.279640917E0,2.328153580E1,-1.554083267E1,-8.492140503E0,2.925173225E1
8.289696917E0,2.450598953E1,-1.584859268E1,-8.009394379E0,3.026337409E1
8.299753917E0,2.741354324E1,-1.782208878E1,-8.877588959E0,3.388127488E1
8.309809917E0,2.836376724E1,-1.923305466E1,-8.964408417E0,3.542279354E1
8.319866917E0,2.503364227E1,-1.739352997E1,-7.045698395E0,3.128673834E1
8.329922917E0,2.038954971E1,-1.422506882E1,-4.811145172E0,2.532258751E1
8.339979917E0,1.684417236E1,-1.202389618E1,-3.452570343E0,2.098143141E1
8.350035917E0,1.398317184E1,-9.989327087E0,-2.598147125E0,1.738004945E1
8.360092917E0,1.111917755E1,-7.406897278E0,-1.748364258E0,1.347423520E1
8.370148917E0,8.322992249E0,-4.759502563E0,-1.022373962E0,9.642111446E0
8.380205917E0,5.923631744E0,-2.331551514E0,-9.237290955E-1,6.432637169E0
8.390261917E0,4.181704102E0,-3.156935120E-1,-1.310973816E0,4.393741450E0
8.400318917E0,3.028352509E0,9.840536499E-1,-2.097737732E0,3.813106882E0
8.410374917E0,1.990410919E0,1.615740051E0,-2.744542694E0,3.755644571E0
8.420431917E0,9.922865295E-1,1.780247955E0,-3.106789398E0,3.715650105E0
8.430487917E0,-4.595443726E-2,1.884730682E0,-3.267555084E0,3.772431283E0
8.440544917E0,-1.029259644E0,2.027234344E0,-3.281925201E0,3.992503917E0
8.450600917E0,-1.713786163E0,2.120490417E0,-3.126548309E0,4.148354729E0
8.460657917E0,-2.095791779E0,2.160008240E0,-2.931653595E0,4.201496350E0
8.470713917E0,-2.128124542E0,2.122136993E0,-2.704276428E0,4.042955662E0
8.480770917E0,-1.795216827E0,1.913321228E0,-2.508034515E0,3.629578310E0
8.490826917E0,-1.256038055E0,1.528920593E0,-2.335892487E0,3.061310746E0
8.500883917E0,-6.932084656E-1,1.050964508E0,-2.010918274E0,2.372521165E0
8.510939917E0,-1.710942078E-1,7.194039917E-1,-1.576970673E0,1.741738164E0
8.520996917E0,3.799099731E-1,5.673202515E-1,-1.146166534E0,1.334122026E0
8.531052917E0,8.632548523E-1,4.760101318E-1,-6.462062073E-1,1.178718392E0
8.541109917E0,1.168320465E0,4.728666687E-1,-1.128652954E-1,1.265430429E0
8.551165917E0,1.454375610E0,5.501060486E-1,5.050497437E-1,1.634900708E0
8.561222917E0,1.812131653E0,5.234614563E-1,1.062490540E0,2.164883177E0
8.571278917E0,2.593955841E0,1.350192261E-1,1.313219147E0,2.910563798E0
8.581335917E0,3.824097748E0,-5.598358154E-1,1.065634003E0,4.009079140E0
8.591391917E0,5.307662659E0,-1.627565460E0,2.390528870E-1,5.556743517E0
8.601448917E0,7.288493500E0,-3.299438782E0,-1.176253967E0,8.086532456E0
8.611504917E0,1.010174332E1,-5.821993103E0,-3.226690063E0,1.209761755E1
8.621561917E0,1.387285126E1,-9.214987335E0,-5.698948975E0,1.760255700E1
8.631617917E0,1.815334991E1,-1.283550842E1,-8.117769012E0,2.366838743E1
8.641674917E0,2.170860672E1,-1.532962189E1,-9.791139221E0,2.832185234E1
8.651730917E0,2.421469528E1,-1.611189514E1,-1.034708313E1,3.087080760E1
8.661787917E0,2.541729446E1,-1.560235474E1,-1.005324417E1,3.147284623E1
8.671843917E0,2.554931992E1,-1.460662537E1,-9.280101929E0,3.085841124E1
8.681900917E0,2.456990662E1,-1.379261810E1,-8.555159454E0,2.944668706E1
8.691956917E0,2.218626343E1,-1.291005341E1,-8.054899750E0,2.690318148E1
8.702013917E0,1.969529343E1,-1.231324448E1,-7.630083160E0,2.444869612E1
8.712069917E0,1.784529053E1,-1.231548981E1,-7.262747040E0,2.286642031E1
8.722126917E0,1.620949219E1,-1.215637070E1,-6.893315277E0,2.140193405E1
8.732182917E0,1.434332291E1,-1.116782639E1,-6.245312805E0,1.922121719E1
8.742239917E0,1.188453598E1,-9.693841553E0,-5.600753174E0,1.632731440E1
8.752296917E0,9.506580963E0,-8.177943878E0,-4.317322083E0,1.326247027E1
8.762352917E0,6.877597961E0,-5.539380798E0,-2.485581207E0,9.174105258E0
8.772409917E0,4.887187042E0,-3.680396576E0,-1.635049896E0,6.332716977E0
8.782465917E0,3.681145020E0,-2.333497467E0,-1.067879333E0,4.487360622E0
8.792522917E0,2.437980194E0,-1.213825836E0,-9.873468018E-1,2.896890453E0
8.802578917E0,1.217268677E0,-4.299060059E-1,-1.254840546E0,1.800329692E0
8.812635917E0,3.457809448E-1,1.863624573E-1,-1.468146973E0,1.519786485E0
8.822691917E0,-2.827619934E-1,5.954617310E-1,-1.651066589E0,1.777793548E0
8.832748917E0,-7.111711121E-1,9.470805359E-1,-1.597328339E0,1.988512940E0
8.842804917E0,-1.020727386E0,1.392853546E0,-1.338815918E0,2.185029396E0
8.852861917E0,-1.193468170E0,1.839524689E0,-9.610015869E-1,2.394105554E0
8.862917917E0,-1.060694275E0,2.109413452E0,-6.499484253E-1,2.448903921E0
8.872974917E0,-6.908134460E-1,2.042502594E0,-6.679110718E-1,2.257242845E0
8.883030917E0,-2.555186462E-1,1.649569702E0,-9.288185120E-1,1.910254907E0
8.893087917E0,-1.930984497E-2,1.122066650E0,-1.060394897E0,1.543970135E0
8.903143917E0,-2.484832764E-2,6.023474121E-1,-1.021775208E0,1.186366056E0
8.913200792E0,9.550140381E-2,2.100132751E-1,-8.138575745E-1,8.459256737E-1
8.923256792E0,2.722837830E-1,-3.083587646E-2,-3.830534363E-1,4.709769047E-1
8.933313792E0,5.017565918E-1,2.844085693E-3,1.064286804E-1,5.129277047E-1
8.943369792E0,1.035396881E0,7.005432129E-2,4.354444885E-1,1.125418239E0
8.953426792E0,1.945354614E0,3.517684937E-2,4.326004028E-1,1.993184661E0
8.963482792E0,3.259621582E0,-3.311114502E-1,1.586700439E-2,3.276433947E0
8.973539792E0,5.042563934E0,-1.095571747E0,-1.003513184E0,5.256878084E0
8.983595792E0,7.016958160E0,-2.153122559E0,-2.401605835E0,7.722781181E0
8.993652792E0,9.407786407E0,-3.829935608E0,-4.158801727E0,1.097590469E1
9.003708792E0,1.235246292E1,-6.372248840E0,-6.206543427E0,1.522202604E1
9.013765792E0,1.576371918E1,-9.627978516E0,-8.357720032E0,2.027422740E1
9.023821792E0,1.879267044E1,-1.266980301E1,-9.997260590E0,2.477162873E1
9.033878792E0,2.047951263E1,-1.402388718E1,-1.053988220E1,2.696607065E1
9.043934792E0,2.124187729E1,-1.399275192E1,-1.020143600E1,2.740590728E1
9.053991792E0,2.193553482E1,-1.382794464E1,-9.767039337E0,2.770874949E1
9.064047792E0,2.299518127E1,-1.446067886E1,-9.787097626E0,2.887346316E1
9.074104792E0,2.285716827E1,-1.457309509E1,-9.162147217E0,2.861416055E1
9.084160792E0,2.055271042E1,-1.284239410E1,-7.617060242E0,2.540394848E1
9.094217792E0,1.793824722E1,-1.117111954E1,-6.464307404E0,2.209891163E1
9.104273792E0,1.625724289E1,-1.077654007E1,-5.976022797E0,2.039962281E1
9.114330792E0,1.480945358E1,-1.049856812E1,-5.561085663E0,1.898592957E1
9.124386792E0,1.304731796E1,-9.365873566E0,-4.719984741E0,1.674008213E1
9.134443792E0,1.106858276E1,-7.645800476E0,-3.624862061E0,1.393238724E1
9.144499792E0,9.057215424E0,-5.679190063E0,-2.565514984E0,1.099400828E1
9.154556792E0,7.297923889E0,-3.776047668E0,-1.868115234E0,8.426629434E0
9.164612792E0,5.762416992E0,-2.144440613E0,-1.582808533E0,6.348965111E0
9.174669792E0,4.338727570E0,-7.695497131E-1,-1.586101685E0,4.683212812E0
9.184725792E0,2.945724335E0,3.849993896E-1,-1.682650909E0,3.414210080E0
9.194782792E0,1.729204102E0,1.270557861E0,-1.723216553E0,2.752079103E0
9.204838792E0,8.650511169E-1,1.871707764E0,-1.799707489E0,2.736886997E0
9.214895792E0,3.278182983E-1,2.215842133E0,-1.752256165E0,2.843909784E0
9.224951792E0,3.637435913E-2,2.471510468E0,-1.682052155E0,2.989813796E0
9.235008792E0,-3.023712158E-2,2.614163818E0,-1.598076782E0,3.064084880E0
9.245064792E0,5.957611084E-2,2.529290314E0,-1.528321838E0,2.955778484E0
9.255121792E0,3.147953796E-1,2.279160461E0,-1.494941254E0,2.743814478E0
9.265177792E0,5.155279541E-1,1.860780487E0,-1.436712341E0,2.406743743E0
9.275234792E0,5.965095520E-1,1.401535492E0,-1.268761597E0,1.982392839E0
9.285290792E0,6.773414612E-1,9.348060608E-1,-1.051114197E0,1.561247860E0
9.295347792E0,7.707472229E-1,5.439688110E-1,-7.238946533E-1,1.189107572E0
9.305403792E0,7.855664063E-1,3.731739807E-1,-3.083587646E-1,9.227451036E-1
9.315460792E0,7.882608032E-1,2.917433167E-1,1.496887207E-3,8.405185884E-1
9.325516792E0,9.580078125E-1,2.667453003E-1,7.978408813E-2,9.976459917E-1
9.335573792E0,1.568288727E0,1.622625732E-1,-2.444416809E-1,1.595496916E0
9.345629792E0,2.485431519E0,-2.155517578E-2,-1.009949799E0,2.682877756E0
9.355686792E0,3.798800354E0,-3.836521912E-1,-2.052980804E0,4.335066703E0
9.365742792E0,6.111191711E0,-1.516496429E0,-3.489244080E0,7.198697785E0
9.375799792E0,9.280101929E0,-3.633394318E0,-5.172643433E0,1.122844986E1
9.385855792E0,1.313129333E1,-6.806046753E0,-7.218289490E0,1.645772889E1
9.395912792E0,1.699520828E1,-1.032582733E1,-9.358239441E0,2.197809046E1
9.405968792E0,1.968586304E1,-1.225142303E1,-1.059526703E1,2.549294517E1
9.416025792E0,2.077454910E1,-1.179636932E1,-1.056502991E1,2.612194626E1
9.426081792E0,2.023776535E1,-1.043255539E1,-1.027044250E1,2.497773704E1
9.436138792E0,1.972059082E1,-9.514813843E0,-1.040426422E1,2.424215541E1
9.446194792E0,2.028895889E1,-9.739496613E0,-1.114297806E1,2.511305651E1
9.456251792E0,2.023342438E1,-1.023810974E1,-1.192270660E1,2.561954890E1
9.466307792E0,1.880793869E1,-9.926008759E0,-1.271021896E1,2.477526738E1
9.476364792E0,1.761387177E1,-9.713151398E0,-1.367645966E1,2.432363742E1
9.486420792E0,1.709564941E1,-9.448202362E0,-1.333487000E1,2.365054998E1
9.496477792E0,1.638911865E1,-9.063352661E0,-1.240545273E1,2.246425670E1
9.506533792E0,1.524130554E1,-7.871381378E0,-1.080363373E1,2.027250703E1
9.516590792E0,1.340417587E1,-6.400989075E0,-8.956774292E0,1.734555844E1
9.526646792E0,1.109432922E1,-5.163961487E0,-7.368277588E0,1.428433246E1
9.536703792E0,8.536148987E0,-4.050427094E0,-5.800587616E0,1.108686682E1
9.546759792E0,6.126909027E0,-2.893033905E0,-4.238585815E0,7.992137957E0
9.556816792E0,4.026925964E0,-1.834584961E0,-2.814746704E0,5.244486029E0
9.566872792E0,2.413131866E0,-9.316625977E-1,-1.786834259E0,3.143879335E0
9.576929792E0,1.273551636E0,-2.212399292E-1,-1.170116730E0,1.743575073E0
9.586985792E0,3.998185730E-1,4.361929321E-1,-6.893165588E-1,9.084472927E-1
9.597042792E0,-3.656895447E-1,1.080602875E0,-3.350033569E-1,1.188973787E0
9.607098792E0,-1.117126923E0,1.548230438E0,-9.969268799E-2,1.911786778E0
9.617155792E0,-1.730102234E0,1.840722198E0,-5.867797852E-2,2.526846861E0
9.627211792E0,-2.120789795E0,1.935175781E0,-1.986369324E-1,2.877865753E0
9.637268792E0,-2.245630188E0,1.826651459E0,-5.004093933E-1,2.937672557E0
9.647324792E0,-2.077080688E0,1.592388611E0,-8.860075378E-1,2.763145858E0
9.657381792E0,-1.647174683E0,1.306034088E0,-1.329235840E0,2.487122311E0
9.667437792E0,-9.621990967E-1,1.030906219E0,-1.650168457E0,2.170633703E0
9.677494792E0,-3.282673645E-1,9.039701843E-1,-1.724563751E0,1.974599121E0
9.687550792E0,1.670526123E-1,9.306147766E-1,-1.621128845E0,1.876701673E0
9.697607792E0,6.466552734E-1,1.021326141E0,-1.483115845E0,1.913348567E0
9.707663792E0,1.147064667E0,9.499246216E-1,-1.513652344E0,2.123501249E0
9.717720792E0,1.454824677E0,8.728349304E-1,-1.364562378E0,2.177242784E0
9.727776792E0,1.877545624E0,8.864566040E-1,-1.020278320E0,2.313428350E0
9.737833792E0,2.677182770E0,5.926176453E-1,-9.136999512E-1,2.890216403E0
9.747889792E0,3.876488800E0,-3.938310242E-1,-1.480421448E0,4.168202965E0
9.757946792E0,5.564678192E0,-1.859133911E0,-2.523901520E0,6.386869434E0
9.768002792E0,8.013735352E0,-4.010310516E0,-4.080664215E0,9.846540771E0
9.778059792E0,1.118054993E1,-6.744973755E0,-6.205645294E0,1.445715744E1
9.788115792E0,1.516256927E1,-9.674382019E0,-8.917855225E0,2.007549044E1
9.798172792E0,1.913171539E1,-1.184891006E1,-1.135388947E1,2.520575350E1
9.808228792E0,2.207250000E1,-1.231159790E1,-1.318203781E1,2.850503149E1
9.818285792E0,2.330099533E1,-1.170446045E1,-1.361897919E1,2.941780705E1
9.828341792E0,2.349843475E1,-1.090138046E1,-1.327948517E1,2.910947025E1
9.838398792E0,2.426229630E1,-1.119447098E1,-1.358619736E1,2.997598974E1
9.848454792E0,2.404390045E1,-1.148636398E1,-1.351419708E1,2.987773802E1
9.858511792E0,2.193703171E1,-1.056757462E1,-1.259136612E1,2.741257912E1
9.868567792E0,1.923170746E1,-9.692045288E0,-1.155117920E1,2.443816799E1
9.878624792E0,1.713531693E1,-9.595945129E0,-1.069645660E1,2.236326078E1
9.888680792E0,1.516960464E1,-9.210047607E0,-9.486372986E0,2.012295094E1
9.898737792E0,1.310809158E1,-7.993976440E0,-7.747289429E0,1.719727356E1
9.908794083E0,1.087413712E1,-6.220913544E0,-5.891598358E0,1.384404401E1
9.918851083E0,8.284671936E0,-4.229604492E0,-4.510121155E0,1.033762720E1
9.928907083E0,5.900729370E0,-2.085463257E0,-3.656296692E0,7.248190781E0
9.938964083E0,4.517006836E0,-7.789801025E-1,-2.596799927E0,5.268161977E0
9.949020083E0,2.948867798E0,-1.688488770E-1,-2.241438904E0,3.707880741E0
9.959077083E0,1.346300354E0,1.089733887E-1,-1.825304260E0,2.270712550E0
9.969133083E0,-3.502716064E-2,2.544708252E-1,-1.479972382E0,1.502098716E0
9.979190083E0,-1.165177002E0,1.998344421E-1,-1.289119263E0,1.749113982E0
9.989246083E0,-2.320175171E0,2.890489197E-1,-1.118474121E0,2.591861582E0
9.999303083E0,-3.378773804E0,6.770420837E-1,-9.565109253E-1,3.576228677E0
1.000935908E1,-3.845652924E0,1.201551361E0,-9.042695618E-1,4.129222145E0
1.001941608E1,-3.825894012E0,1.464554443E0,-1.072070618E0,4.234586181E0
1.002947208E1,-3.439996490E0,1.464404755E0,-1.256936188E0,3.944356186E0
1.003952908E1,-2.864443359E0,1.453178101E0,-1.373394012E0,3.493275464E0
1.004958508E1,-2.330204315E0,1.367256775E0,-1.496138763E0,3.088312555E0
1.005964208E1,-1.794917450E0,1.287921753E0,-1.580712891E0,2.716454369E0
1.006969808E1,-1.235530701E0,1.293011169E0,-1.645977173E0,2.430566775E0
1.007975508E1,-6.640191650E-1,1.377884674E0,-1.739382935E0,2.316234146E0
1.008981108E1,-2.544708252E-2,1.383123779E0,-1.774559784E0,2.250053637E0
1.009986808E1,6.542893982E-1,1.378184052E0,-1.796713715E0,2.357046047E0
1.010992408E1,1.486858063E0,1.141077118E0,-1.951791229E0,2.705973557E0
1.011998108E1,2.545606384E0,5.393284607E-1,-2.160008240E0,3.381807601E0
1.013003708E1,3.739074554E0,-3.333567810E-1,-2.502645721E0,4.511656112E0
1.014009408E1,5.216202850E0,-1.533261566E0,-3.034040680E0,6.226159816E0
1.015015008E1,7.200027466E0,-3.183729401E0,-4.015848999E0,8.837622508E0
1.016020708E1,1.000923569E1,-5.657335510E0,-5.786816254E0,1.287157669E1
1.017026308E1,1.444391373E1,-9.564959564E0,-8.783734131E0,1.942341578E1
1.018032008E1,1.997146912E1,-1.446846268E1,-1.209439957E1,2.746762625E1
1.019037608E1,2.440045898E1,-1.729952545E1,-1.377390701E1,3.292987236E1
1.020043308E1,2.595931732E1,-1.629152161E1,-1.282038986E1,3.322141220E1
1.021048908E1,2.514531006E1,-1.341225906E1,-1.042417282E1,3.034532402E1
1.022054608E1,2.540037964E1,-1.236054611E1,-9.325457611E0,2.974771496E1
1.023060208E1,2.501253616E1,-1.197554672E1,-8.785979462E0,2.909010347E1
1.024065908E1,2.303874069E1,-1.132410141E1,-8.261170807E0,2.696786585E1
1.025071508E1,2.082948486E1,-1.130868347E1,-8.532107391E0,2.519028817E1
1.026077208E1,1.914039734E1,-1.185729263E1,-9.139544220E0,2.429982443E1
1.027082808E1,1.711091766E1,-1.144699585E1,-9.184600525E0,2.254271732E1
1.028088508E1,1.461036758E1,-9.739197235E0,-8.490793304E0,1.950406047E1
1.029094108E1,1.229752716E1,-7.596702576E0,-7.460186462E0,1.626632861E1
1.030099808E1,1.027343628E1,-5.467979279E0,-6.459667053E0,1.331050671E1
1.031105408E1,8.162376251E0,-3.492836609E0,-5.817502441E0,1.061450085E1
1.032111108E1,6.048023071E0,-1.794917450E0,-5.059029694E0,8.086661435E0
1.033116708E1,4.105662231E0,-6.321354675E-1,-4.398004303E0,6.049669368E0
1.034122408E1,2.298619995E0,3.962260437E-1,-4.122876434E0,4.736956729E0
1.035128008E1,7.256909180E-1,1.297352142E0,-3.621119843E0,3.914365696E0
1.036133708E1,-8.201445007E-1,1.910177765E0,-3.061733093E0,3.700760142E0
1.037139308E1,-2.138752441E0,2.431543579E0,-2.801125031E0,4.281701486E0
1.038144908E1,-2.842439117E0,2.797831879E0,-2.866089935E0,4.911394392E0
1.039150608E1,-3.031645660E0,2.785557404E0,-2.977158966E0,5.080716580E0
1.040156208E1,-2.890040131E0,2.672093353E0,-3.016527100E0,4.959017099E0
1.041161908E1,-2.413580933E0,2.469265137E0,-2.890638885E0,4.503158492E0
1.042167508E1,-1.723366241E0,2.148033142E0,-2.703977051E0,3.859472694E0
1.043173208E1,-1.213975525E0,1.843566284E0,-2.383343811E0,3.248507494E0
1.044178808E1,-8.903485107E-1,1.581611023E0,-1.989363098E0,2.692912816E0
1.045184508E1,-6.421646118E-1,1.274300079E0,-1.605710907E0,2.148144222E0
1.046190108E1,-4.234693909E-1,1.049916687E0,-1.182391205E0,1.636979027E0
1.047195808E1,-1.697470093E-1,8.801696777E-1,-7.857160950E-1,1.191999367E0
1.048201408E1,9.834548950E-2,7.451504517E-1,-3.719764709E-1,8.386223977E-1
1.049207108E1,4.755610657E-1,5.950126648E-1,-9.939331055E-2,7.681649749E-1
1.050212708E1,9.975256348E-1,3.366499329E-1,-3.577560425E-2,1.053408972E0
1.051218408E1,1.836231537E0,3.832031250E-2,-1.624122620E-1,1.843798375E0
1.052224008E1,3.139870605E0,-5.780978394E-1,-7.973918152E-1,3.290716979E0
1.053229708E1,4.723277893E0,-1.750459900E0,-1.813927917E0,5.353858273E0
1.054235308E1,6.751560059E0,-3.474424896E0,-3.114273834E0,8.206941763E0
1.055241008E1,9.626930695E0,-5.935457153E0,-4.922812958E0,1.233456662E1
1.056246608E1,1.390862686E1,-9.570797424E0,-7.363786926E0,1.841943057E1
1.057252308E1,1.899879181E1,-1.406729691E1,-1.005504044E1,2.568942916E1
1.058257908E1,2.271511368E1,-1.672067917E1,-1.181193695E1,3.057906728E1
1.059263608E1,2.360710876E1,-1.553170166E1,-1.163036453E1,3.055805491E1
1.060269208E1,2.263038986E1,-1.251966522E1,-1.024215134E1,2.781686946E1
1.061274908E1,2.320803864E1,-1.164233963E1,-1.026520340E1,2.792009187E1
1.062280508E1,2.451182739E1,-1.261471756E1,-1.136691238E1,2.981891142E1
1.063286208E1,2.360201935E1,-1.259196487E1,-1.118084930E1,2.899352148E1
1.064291808E1,2.125564865E1,-1.181433197E1,-1.011416748E1,2.633775661E1
1.065297508E1,1.936373291E1,-1.167676804E1,-9.669891357E0,2.459284170E1
1.066303108E1,1.754052429E1,-1.164683029E1,-9.254654846E0,2.299928878E1
1.067308808E1,1.501437744E1,-1.039348663E1,-8.376880188E0,2.009050064E1
1.068314408E1,1.211535599E1,-8.092172241E0,-7.712561646E0,1.648480238E1
1.069320108E1,1.003123993E1,-5.994584198E0,-5.961952057E0,1.311890569E1
1.070325708E1,7.909402313E0,-3.948489075E0,-4.859045563E0,1.008759311E1
1.071331408E1,6.124514008E0,-1.908231812E0,-3.741619263E0,7.426354098E0
1.072337008E1,4.431534576E0,-1.303788757E-1,-2.886297913E0,5.290199712E0
1.073342708E1,3.069516907E0,9.621990967E-1,-2.398162994E0,4.012349298E0
1.074348308E1,1.788929901E0,1.601519623E0,-1.957629089E0,3.097974652E0
1.075354008E1,3.071612549E-1,2.220781860E0,-1.542242889E0,2.721163949E0
1.076359608E1,-8.252339172E-1,2.677482147E0,-1.276545410E0,3.078878018E0
1.077365308E1,-1.514849854E0,2.733016663E0,-1.261875916E0,3.369937831E0
1.078370908E1,-1.958078156E0,2.493514709E0,-1.406774597E0,3.468530011E0
1.079376608E1,-2.342778168E0,2.183359680E0,-1.452729034E0,3.516545277E0
1.080382208E1,-2.556383972E0,1.920506287E0,-1.341061249E0,3.467259535E0
1.081387908E1,-2.553689575E0,1.683698730E0,-1.155896301E0,3.269903381E0
1.082393508E1,-2.323917389E0,1.450334015E0,-1.012195129E0,2.920376648E0
1.083399208E1,-2.018253021E0,1.278790741E0,-8.934919739E-1,2.550878069E0
1.084404808E1,-1.741628265E0,1.203647003E0,-7.601193237E-1,2.249403590E0
1.085410508E1,-1.483864288E0,1.197809143E0,-6.099815369E-1,2.002168186E0
1.086416108E1,-1.275647278E0,1.295555878E0,-3.610491943E-1,1.853671365E0
1.087421808E1,-9.340576172E-1,1.450483704E0,-5.837860107E-2,1.726202383E0
1.088427408E1,-3.520678711E-1,1.441951447E0,1.422042847E-1,1.491106240E0
1.089433108E1,5.390290833E-1,1.170266418E0,2.174977112E-1,1.306667937E0
1.090438708E1,1.721120911E0,6.954537964E-1,1.321751404E-1,1.861016776E0
1.091444396E1,3.119662628E0,-6.316864014E-2,-3.742218018E-3,3.120304343E0
1.092449996E1,5.086123352E0,-1.118324432E0,-3.258723450E-1,5.217805389E0
1.093455596E1,8.516839142E0,-3.017275543E0,-1.668580170E0,9.188289311E0
1.094461296E1,1.417746780E1,-6.553222504E0,-4.680915985E0,1.630510021E1
1.095466896E1,2.139590698E1,-1.212523544E1,-8.995244293E0,2.618626720E1
1.096472596E1,2.737761795E1,-1.667232971E1,-1.275452682E1,3.449896371E1
1.097478196E1,2.908586563E1,-1.548454971E1,-1.381073044E1,3.572807208E1
1.098483896E1,2.590812378E1,-1.070813232E1,-1.185145477E1,3.043603055E1
1.099489496E1,2.473067230E1,-8.541537781E0,-1.043390259E1,2.816789562E1
1.100495196E1,2.615166733E1,-1.035142410E1,-1.121946899E1,3.028098693E1
1.101500796E1,2.492287262E1,-1.185609512E1,-1.144355301E1,2.987760828E1
1.102506496E1,2.154484726E1,-1.169952072E1,-1.056787399E1,2.669717568E1
1.103512096E1,1.840482697E1,-1.151630173E1,-1.019305344E1,2.398460338E1
1.104517796E1,1.574919937E1,-1.130089966E1,-9.784702606E0,2.171377487E1
1.105523396E1,1.351329895E1,-1.004111938E1,-8.437803497E0,1.883161849E1
1.106529096E1,1.144250519E1,-8.106991425E0,-6.500532074E0,1.545675102E1
1.107534696E1,9.626032562E0,-6.191275177E0,-5.166506195E0,1.255727588E1
1.108540396E1,8.114026794E0,-4.434228973E0,-5.144352264E0,1.058131266E1
1.109545996E1,6.553222504E0,-2.817441101E0,-4.166735229E0,8.261015798E0
1.110551696E1,4.261637878E0,-1.069525909E0,-3.313060455E0,5.502891300E0
1.111557296E1,2.620450745E0,-1.631607056E-1,-3.121458893E0,4.078834287E0
1.112562996E1,1.113085327E0,7.764353943E-1,-2.776725769E0,3.090633732E0
1.113568596E1,-3.490740967E-1,1.492995300E0,-2.626887360E0,3.041615507E0
1.114574296E1,-1.415606232E0,1.854194183E0,-2.437082062E0,3.373625060E0
1.115579896E1,-2.157313843E0,2.098037109E0,-2.139949951E0,3.692580198E0
1.116585596E1,-2.530188446E0,2.160157928E0,-1.884131927E0,3.823360952E0
1.117591196E1,-2.532284088E0,2.016756134E0,-1.566941528E0,3.596536356E0
1.118596896E1,-2.260599060E0,1.752405853E0,-1.296154633E0,3.140262922E0
1.119602496E1,-1.916165314E0,1.467099152E0,-9.999206543E-1,2.612261615E0
1.120608196E1,-1.608105927E0,1.251098328E0,-6.131250000E-1,2.127715668E0
1.121613796E1,-1.184636536E0,1.081051941E0,-2.427951050E-1,1.622031591E0
1.122619496E1,-6.623725891E-1,9.454339600E-1,5.688171387E-2,1.155776081E0
1.123625096E1,-2.766247559E-1,8.779243469E-1,3.719764709E-1,9.927934878E-1
1.124630696E1,-7.619155884E-2,9.418414307E-1,6.562353516E-1,1.150441337E0
1.125636396E1,2.101629639E-1,1.024170227E0,8.626560974E-1,1.355458840E0
1.126642096E1,6.616241455E-1,1.103505249E0,9.524693298E-1,1.600833586E0
1.127647696E1,1.364113312E0,1.115779724E0,8.476872253E-1,1.955592788E0
1.128653296E1,2.654130707E0,8.167016602E-1,4.221221924E-1,2.808842921E0
1.129658996E1,4.699028320E0,1.107696533E-2,-5.224136353E-1,4.727991737E0
1.130664596E1,7.257657623E0,-1.228944397E0,-1.857637024E0,7.591753014E0
1.131670296E1,1.009919861E1,-3.098257141E0,-3.487298126E0,1.112448911E1
1.132675896E1,1.348560654E1,-5.905669098E0,-5.515879669E0,1.572143249E1
1.133681596E1,1.764575546E1,-1.000519409E1,-7.944130096E0,2.178499019E1
1.134687196E1,2.126358215E1,-1.388003632E1,-1.017673737E1,2.735619340E1
1.135692896E1,2.320279953E1,-1.481334549E1,-1.135433853E1,2.977794677E1
1.136698496E1,2.329545685E1,-1.321826248E1,-1.139430542E1,2.910723224E1
1.137704196E1,2.381592453E1,-1.183947968E1,-1.168350403E1,2.904954056E1
1.138709796E1,2.530637512E1,-1.252011429E1,-1.275931686E1,3.098331891E1
1.139715496E1,2.430929855E1,-1.243703705E1,-1.289822800E1,3.019910880E1
1.140721096E1,2.148841461E1,-1.095137650E1,-1.194800400E1,2.691541211E1
1.141726796E1,1.898023041E1,-9.838590546E0,-1.140942398E1,2.423266320E1
1.142732396E1,1.739981689E1,-9.419911194E0,-1.087024521E1,2.257544209E1
1.143738096E1,1.591685074E1,-8.879534912E0,-9.784253540E0,2.068632145E1
1.144743696E1,1.402867722E1,-7.644602966E0,-8.221652985E0,1.796772987E1
1.145749396E1,1.198752182E1,-5.963598633E0,-6.592890015E0,1.492418798E1
1.146754996E1,9.873767395E0,-3.933220825E0,-5.218148804E0,1.184021054E1
1.147760696E1,7.816894684E0,-1.900298309E0,-4.018244019E0,8.992288983E0
1.148766296E1,5.916446686E0,-6.406677246E-2,-3.049458618E0,6.656398711E0
1.149771996E1,4.402794342E0,1.373244324E0,-2.392474823E0,5.195607161E0
1.150777596E1,3.119063873E0,2.194736023E0,-2.079625397E0,4.343992109E0
1.151783296E1,1.838776245E0,2.686463470E0,-1.837878113E0,3.738446203E0
1.152788896E1,6.432124329E-1,3.068469086E0,-1.460812225E0,3.458785498E0
1.153794596E1,-1.820214844E-1,3.274889832E0,-1.125958557E0,3.467826106E0
1.154800196E1,-6.469546509E-1,3.268602905E0,-9.562115479E-1,3.466504839E0
1.155805796E1,-9.246272278E-1,3.106639709E0,-8.861572266E-1,3.360270886E0
1.156811496E1,-1.090182953E0,2.888094177E0,-8.704399109E-1,3.207374703E0
1.157817096E1,-1.072519684E0,2.569406891E0,-8.596623230E-1,2.913961145E0
1.158822796E1,-9.187893677E-1,2.218087463E0,-8.527766418E-1,2.547805703E0
1.159828396E1,-8.140072632E-1,1.947899323E0,-8.948391724E-1,2.292958076E0
1.160834096E1,-6.878196716E-1,1.785487061E0,-9.047186279E-1,2.116500824E0
1.161839696E1,-4.210743713E-1,1.667831726E0,-9.804611206E-1,1.979967248E0
1.162845396E1,1.182540894E-2,1.589694214E0,-1.092727661E0,1.929072646E0
1.163850996E1,3.504212952E-1,1.615740051E0,-1.005159760E0,1.934879102E0
1.164856696E1,6.857240295E-1,1.739682312E0,-7.979905701E-1,2.033101311E0
1.165862296E1,1.249601440E0,1.609602814E0,-6.444099426E-1,2.137191885E0
1.166867996E1,2.081122284E0,1.054557037E0,-6.689588928E-1,2.427069531E0
1.167873596E1,3.250640259E0,2.921923828E-1,-9.280700684E-1,3.393133144E0
1.168879296E1,4.787494354E0,-6.382727051E-1,-1.326840820E0,5.008792350E0
1.169884896E1,6.894363098E0,-1.905387726E0,-2.020797729E0,7.432790080E0
1.170890596E1,1.017299515E1,-4.177961884E0,-3.453318787E0,1.152695131E1
1.171896196E1,1.517050278E1,-8.325536957E0,-6.060147858E0,1.833532416E1
1.172901896E1,2.117616394E1,-1.464569412E1,-9.257947998E0,2.736121117E1
1.173907496E1,2.582893845E1,-2.025722488E1,-1.136047577E1,3.473542329E1
1.174913196E1,2.730681519E1,-2.060570023E1,-1.099942657E1,3.593388961E1
1.175918796E1,2.490191620E1,-1.614213226E1,-8.322992249E0,3.082119505E1
1.176924496E1,2.434058350E1,-1.352662125E1,-7.278164978E0,2.878202864E1
1.177930096E1,2.481225266E1,-1.368828506E1,-8.104596405E0,2.947374277E1
1.178935796E1,2.303933945E1,-1.331301544E1,-8.219257965E0,2.784966326E1
1.179941396E1,1.980052460E1,-1.219963074E1,-7.794890442E0,2.452859722E1
1.180947096E1,1.666274963E1,-1.158920013E1,-7.647746429E0,2.168973975E1
1.181952696E1,1.412073578E1,-1.122770187E1,-7.262896729E0,1.944752265E1
1.182958396E1,1.183678528E1,-1.000040405E1,-5.983956299E0,1.661099937E1
1.183963996E1,9.649234314E0,-7.893086243E0,-4.475093994E0,1.324518779E1
1.184969596E1,7.616162109E0,-5.462740173E0,-3.397035828E0,9.969318326E0
1.185975296E1,5.826483765E0,-2.957699432E0,-3.026556244E0,7.201106977E0
1.186980896E1,3.900438995E0,-8.071215820E-1,-2.678380280E0,4.799853178E0
1.187986596E1,2.103874969E0,4.968168640E-1,-2.630779266E0,3.405013426E0
1.188992196E1,7.755372620E-1,1.204994202E0,-2.811004486E0,3.155188630E0
1.189997896E1,-2.646496582E-1,1.613345032E0,-2.879561920E0,3.311313710E0
1.191003529E1,-8.255332947E-1,1.898502045E0,-2.810854797E0,3.490948285E0
1.192009229E1,-9.639953613E-1,2.043550415E0,-2.370919647E0,3.275155772E0
1.193014829E1,-9.689350891E-1,2.189496918E0,-1.813628540E0,3.003661173E0
1.194020529E1,-1.269360352E0,2.398162994E0,-1.380279694E0,3.044278812E0
1.195026129E1,-1.694176941E0,2.499202881E0,-1.257385254E0,3.270667856E0
1.196031829E1,-1.880090332E0,2.349364471E0,-1.280886383E0,3.270309313E0
1.197037429E1,-1.663490753E0,2.050885162E0,-1.407223663E0,2.992258323E0
1.198043129E1,-1.289568329E0,1.767973480E0,-1.417701874E0,2.607411610E0
1.199048729E1,-8.032296753E-1,1.473236389E0,-1.255588989E0,2.095735451E0
1.200054429E1,-1.222956848E-1,1.130449219E0,-9.888436890E-1,1.506878732E0
1.201060029E1,6.809339905E-1,8.470884705E-1,-6.529421997E-1,1.267897272E0
1.202065729E1,1.526375885E0,6.307882690E-1,-3.448828125E-1,1.687205185E0
1.203071329E1,2.438728638E0,4.917274475E-1,-7.574249268E-2,2.488961666E0
1.204077029E1,3.278632050E0,4.144880676E-1,3.068618774E-1,3.318944514E0
1.205082629E1,4.154610443E0,2.668949890E-1,4.432283020E-1,4.186701828E0
1.206088329E1,4.561913452E0,-5.298980713E-2,3.013233948E-1,4.572161202E0
1.207093929E1,5.004992065E0,-7.710466003E-1,-3.144960022E-1,5.073792090E0
1.208099529E1,7.035968628E0,-2.598147125E0,-1.864672394E0,7.728662637E0
1.209105229E1,1.097248260E1,-5.560786285E0,-3.935615845E0,1.291537033E1
1.210110829E1,1.644704819E1,-9.725575562E0,-6.193221130E0,2.008602006E1
1.211116529E1,2.170231979E1,-1.447160614E1,-8.049211578E0,2.729849585E1
1.212122129E1,2.489083923E1,-1.696287552E1,-8.263865204E0,3.123434795E1
1.213127829E1,2.612636993E1,-1.644779663E1,-7.307054901E0,3.172554604E1
1.214133429E1,2.648322784E1,-1.521975037E1,-6.545887756E0,3.123861080E1
1.215139129E1,2.730172577E1,-1.468266724E1,-6.568041687E0,3.168760197E1
1.216144729E1,2.581576584E1,-1.370011047E1,-6.233188019E0,2.988309599E1
1.217150429E1,2.265972885E1,-1.135942795E1,-5.537584534E0,2.594541881E1
1.218156029E1,1.974768448E1,-9.619745636E0,-5.550757141E0,2.265659845E1
1.219161729E1,1.805799820E1,-9.103768616E0,-5.692961426E0,2.100903881E1
1.220167329E1,1.687111633E1,-9.310638428E0,-5.533542938E0,2.004850747E1
1.221173029E1,1.528755936E1,-8.524024200E0,-4.648134155E0,1.811004171E1
1.222178629E1,1.333367249E1,-6.978787537E0,-3.282973022E0,1.540351289E1
1.223184329E1,1.115884506E1,-5.082081757E0,-2.139650574E0,1.244690655E1
1.224189929E1,9.004375305E0,-3.155737610E0,-1.192120972E0,9.615539866E0
1.225195629E1,7.061565399E0,-1.470841370E0,-5.406756592E-1,7.233354021E0
1.226201229E1,5.295837250E0,-2.170486450E-1,-3.305126953E-1,5.310578211E0
1.227206929E1,3.734583893E0,7.301815796E-1,-1.438508606E-1,3.808014583E0
1.228212529E1,2.215692444E0,1.561253357E0,-1.933978271E-1,2.717389882E0
1.229218129E1,8.669970703E-1,2.109712830E0,-4.574487305E-1,2.326334345E0
1.230223829E1,-1.242416382E-1,2.440674591E0,-6.959028625E-1,2.540985879E0
1.231229429E1,-8.782237244E-1,2.690205688E0,-1.051263885E0,3.018880474E0
1.232235129E1,-1.424587555E0,2.645598450E0,-1.379531250E0,3.306319302E0
1.233240729E1,-1.608704681E0,2.575394440E0,-1.554816742E0,3.411457514E0
1.234246429E1,-1.649270325E0,2.319576416E0,-1.644929352E0,3.287296751E0
1.235252029E1,-1.532812500E0,2.183659058E0,-1.687291260E0,3.156712346E0
1.236257729E1,-1.295705566E0,1.844464417E0,-1.720522156E0,2.835683055E0
1.237263329E1,-8.794212341E-1,1.466799774E0,-1.626068573E0,2.359869125E0
1.238269029E1,-3.614982605E-1,1.182840271E0,-1.451082458E0,1.906680991E0
1.239274629E1,1.582209778E-1,8.289761353E-1,-1.124611359E0,1.406053348E0
1.240280329E1,4.968168640E-1,5.072950745E-1,-6.403683472E-1,9.561625955E-1
1.241285929E1,8.514294434E-1,2.236349487E-1,-1.139131165E-1,8.876490779E-1
1.242291629E1,1.369801483E0,-1.496887207E-4,3.174897766E-1,1.406113752E0
1.243297229E1,2.094444580E0,-2.294728088E-1,5.340893555E-1,2.173616182E0
1.244302929E1,3.204087067E0,-5.495072937E-1,3.986210632E-1,3.275214642E0
1.245308529E1,4.821773071E0,-1.171164551E0,-2.085163879E-1,4.966346851E0
1.246314229E1,7.230563965E0,-2.386636963E0,-1.271306305E0,7.719670392E0
1.247319829E1,1.043719574E1,-4.332440643E0,-2.812351685E0,1.164536040E1
1.248325429E1,1.417716843E1,-7.016958160E0,-4.650529175E0,1.648809352E1
1.249331129E1,1.868983429E1,-1.017973114E1,-6.327192535E0,2.220293218E1
1.250336729E1,2.313978058E1,-1.295735504E1,-7.164850616E0,2.747139566E1
1.251342429E1,2.602637787E1,-1.474838058E1,-7.386838989E0,3.081318655E1
1.252348029E1,2.705339218E1,-1.509296402E1,-7.207062836E0,3.180605832E1
1.253353729E1,2.693453934E1,-1.418869446E1,-6.435716858E0,3.111602338E1
1.254359329E1,2.619193359E1,-1.277742920E1,-5.150339813E0,2.959402106E1
1.255365029E1,2.407234131E1,-1.099418747E1,-3.941154327E0,2.675598011E1
1.256370629E1,2.130953659E1,-9.305249634E0,-3.776496735E0,2.355729076E1
1.257376329E1,1.884012177E1,-8.584348755E0,-3.918102264E0,2.107113564E1
1.258381929E1,1.754770935E1,-8.669671326E0,-4.279750214E0,2.003500852E1
1.259387629E1,1.627700180E1,-7.931256866E0,-4.989873505E0,1.878149250E1
1.260393229E1,1.443508209E1,-6.427633667E0,-4.344864807E0,1.638791993E1
1.261398929E1,1.192540100E1,-4.574038239E0,-2.988535309E0,1.311748292E1
1.262404529E1,9.385033722E0,-3.057242432E0,-1.666933594E0,1.001020763E1
1.263410229E1,7.106322327E0,-1.630259857E0,-4.779560852E-1,7.306572810E0
1.264415829E1,5.004093933E0,-3.844006348E-1,2.561174011E-1,5.025367256E0
1.265421529E1,3.112477570E0,4.480183411E-1,7.192543030E-1,3.225765616E0
1.266427129E1,1.510957947E0,1.115929413E0,9.641450500E-1,2.111366394E0
1.267432729E1,4.231700134E-1,1.660646667E0,9.672885132E-1,1.967858552E0
1.268438429E1,-3.336561584E-1,2.145488434E0,8.060737610E-1,2.316074688E0
1.269444029E1,-7.635621643E-1,2.522554321E0,6.679110718E-1,2.718899167E0
1.270449729E1,-1.087638245E0,2.661166077E0,4.888833618E-1,2.916122216E0
1.271455329E1,-1.121318207E0,2.652633820E0,3.779640198E-1,2.904595927E0
1.272461029E1,-9.117539978E-1,2.578837280E0,2.501298523E-1,2.746682001E0
1.273466629E1,-5.769003296E-1,2.469265137E0,2.414479065E-1,2.547230142E0
1.274472329E1,-2.956352234E-1,2.252515869E0,9.475296021E-2,2.273808710E0
1.275477929E1,-7.110214233E-2,2.001936951E0,-1.992356873E-1,2.013082693E0
1.276483629E1,1.228944397E-1,1.773212585E0,-2.424957275E-1,1.793931463E0
1.277489229E1,3.700305176E-1,1.428778839E0,2.152523804E-1,1.491531140E0
1.278494929E1,9.614506531E-1,7.939489746E-1,7.640112305E-1,1.462345887E0
1.279500529E1,1.948348389E0,1.098715210E-1,1.300645294E0,2.345167665E0
1.280506229E1,2.948269043E0,-2.213896179E-1,1.755399628E0,3.438419923E0
1.281511829E1,3.811823273E0,-4.417314148E-1,1.404828644E0,4.086400228E0
1.282517529E1,4.805906067E0,-6.686595154E-1,7.186555481E-1,4.905130423E0
1.283523129E1,6.346801758E0,-1.222208405E0,7.170089722E-2,6.463809013E0
1.284528729E1,9.056317291E0,-2.552342377E0,-7.201524353E-1,9.436628318E0
1.285534429E1,1.262789017E1,-4.683161316E0,-1.301094360E0,1.353101831E1
1.286540029E1,1.684072952E1,-7.384144592E0,-1.604812775E0,1.845836359E1
1.287545729E1,2.089594666E1,-1.031175659E1,-1.297052765E0,2.333785030E1
1.288551329E1,2.361264725E1,-1.262714172E1,-5.289999390E-1,2.678211454E1
1.289557029E1,2.454909988E1,-1.396505951E1,1.463955688E-1,2.824362979E1
1.290562629E1,2.397669022E1,-1.434781357E1,1.175954590E0,2.796648525E1
1.291568304E1,2.297377579E1,-1.430440384E1,1.488504639E0,2.710398475E1
1.292573904E1,2.141671371E1,-1.406295593E1,1.340911560E0,2.565619613E1
1.293579604E1,1.949156708E1,-1.330178879E1,1.096469879E0,2.362331514E1
1.294585204E1,1.842518463E1,-1.253822662E1,6.903643799E-1,2.229733523E1
1.295590904E1,1.827160400E1,-1.229138992E1,2.192939758E-1,2.202221308E1
1.296596504E1,1.843730942E1,-1.174876831E1,2.252815247E-1,2.186363847E1
1.297602204E1,1.769844589E1,-1.077324692E1,7.568261719E-1,2.073332154E1
1.298607804E1,1.608285553E1,-9.545050964E0,1.379980316E0,1.875288206E1
1.299613404E1,1.409813278E1,-8.096213837E0,1.434916077E0,1.632069271E1
1.300619104E1,1.181298477E1,-6.428831177E0,1.081650696E0,1.349245892E1
1.301624704E1,9.327403564E0,-4.703518982E0,5.745053101E-1,1.046200767E1
1.302630404E1,6.901847534E0,-3.188519440E0,1.077758789E-1,7.603536759E0
1.303636004E1,4.689148865E0,-1.981130219E0,-3.439846802E-1,5.102089717E0
1.304641704E1,2.824027405E0,-1.011296997E0,-7.222480774E-1,3.085367836E0
1.305647304E1,1.358874207E0,-2.429447937E-1,-9.729766846E-1,1.688859056E0
1.306653004E1,3.930825806E-1,2.824626160E-1,-1.205143890E0,1.298718923E0
1.307658604E1,-1.405577087E-1,6.478527832E-1,-1.363514557E0,1.516127186E0
1.308664304E1,-5.309458923E-1,9.318122864E-1,-1.432221680E0,1.789255884E0
1.309669904E1,-9.370513916E-1,1.335971832E0,-1.421444092E0,2.164113988E0
1.310675604E1,-9.611512756E-1,1.729653168E0,-1.384321289E0,2.414923868E0
1.311681204E1,-7.232958984E-1,1.927391968E0,-1.400637360E0,2.489936097E0
1.312686904E1,-4.990621948E-1,2.006726990E0,-1.504521332E0,2.557264305E0
1.313692504E1,-2.339634705E-1,2.023342438E0,-1.588047638E0,2.582740565E0
1.314698104E1,-1.706451416E-2,1.905238037E0,-1.616039429E0,2.498360785E0
1.315703804E1,1.956431580E-1,1.668729858E0,-1.624421997E0,2.337024264E0
1.316709404E1,4.073030090E-1,1.336720276E0,-1.484612732E0,2.038821179E0
1.317715104E1,7.946974182E-1,1.012195129E0,-1.284478912E0,1.818232395E0
1.318720704E1,1.228645020E0,7.216493225E-1,-1.068328400E0,1.780918835E0
1.319726404E1,1.495390320E0,4.906796265E-1,-6.590794373E-1,1.706266219E0
1.320732004E1,1.783541107E0,2.618055725E-1,-3.664379883E-1,1.839521089E0
1.321737704E1,2.398612061E0,-1.907034302E-1,-3.418890381E-1,2.430348891E0
1.322743304E1,3.629502411E0,-9.967771912E-1,-5.170248413E-1,3.799232450E0
1.323749004E1,5.736670532E0,-2.328408051E0,-9.442364502E-1,6.262783352E0
1.324754604E1,8.775950317E0,-4.389621735E0,-1.542093201E0,9.932982150E0
1.325760304E1,1.285077667E1,-7.190597076E0,-2.092798004E0,1.487369997E1
1.326765904E1,1.848027008E1,-1.093775482E1,-2.793341217E0,2.165542929E1
1.327771604E1,2.441452972E1,-1.508982056E1,-3.195105743E0,2.887872308E1
1.328777204E1,2.798849762E1,-1.743244904E1,-3.215463409E0,3.312982770E1
1.329782804E1,2.805166626E1,-1.716270996E1,-2.688708801E0,3.299520796E1
1.330788504E1,2.656450882E1,-1.563498688E1,-2.111060028E0,3.089631884E1
1.331794104E1,2.525218781E1,-1.432625839E1,-1.602866821E0,2.907720500E1
1.332799804E1,2.328767303E1,-1.330283661E1,-1.827699280E0,2.688162313E1
1.333805404E1,2.063713486E1,-1.226624222E1,-2.305954742E0,2.411782454E1
1.334811104E1,1.828777039E1,-1.191043213E1,-2.734513550E0,2.199496541E1
1.335816704E1,1.658476181E1,-1.180774567E1,-3.191513214E0,2.060735157E1
1.336822404E1,1.508233612E1,-1.094658646E1,-3.016826477E0,1.887871447E1
1.337828004E1,1.302037399E1,-9.255403290E0,-2.326312408E0,1.614324498E1
1.338833704E1,1.093191696E1,-7.272027740E0,-1.899998932E0,1.326646870E1
1.339839304E1,8.854536896E0,-5.265001373E0,-1.669927368E0,1.043607783E1
1.340845004E1,7.392227783E0,-3.220552826E0,-1.699865112E0,8.240542064E0
1.341850604E1,6.370302887E0,-1.503772888E0,-1.625170441E0,6.744128612E0
1.342856304E1,4.968468018E0,-4.685256958E-2,-1.525477753E0,5.197590978E0
1.343861904E1,3.286565552E0,1.232686615E0,-1.566941528E0,3.843999892E0
1.344867504E1,1.452279968E0,2.297871552E0,-1.741628265E0,3.228405146E0
1.345873204E1,-1.884580994E-1,3.037184143E0,-2.020348663E0,3.652644617E0
1.346878804E1,-1.366658020E0,3.439248047E0,-2.295476532E0,4.354927529E0
1.347884504E1,-2.047142944E0,3.491339722E0,-2.543510742E0,4.780135373E0
1.348890104E1,-2.217788086E0,3.154091034E0,-2.781665497E0,4.754422907E0
1.349895804E1,-2.134112091E0,2.670297089E0,-2.741249542E0,4.381708572E0
1.350901404E1,-1.863923950E0,2.187401276E0,-2.522105255E0,3.823604549E0
1.351907104E1,-1.571881256E0,1.718576202E0,-2.167642365E0,3.181664386E0
1.352912704E1,-1.353036346E0,1.296753387E0,-1.581311646E0,2.452105875E0
1.353918404E1,-1.094823303E0,8.559201050E-1,-9.291178894E-1,1.671675011E0
1.354924004E1,-5.596861267E-1,3.701802063E-1,-2.282752991E-1,7.087958505E-1
1.355929704E1,-1.175056458E-1,-1.175056458E-1,4.966671753E-1,5.237303090E-1
1.356935304E1,2.213896179E-1,-3.448828125E-1,1.243464203E0,1.309259616E0
1.357940904E1,5.520520020E-1,-4.098477173E-1,1.939217377E0,2.057498627E0
1.358946604E1,1.474733276E0,-7.339237976E-1,2.294728088E0,2.824758286E0
1.359952204E1,2.979703674E0,-1.640887756E0,2.260748749E0,4.084376516E0
1.360957904E1,4.715943146E0,-2.685565338E0,1.750310211E0,5.702277332E0
1.361963504E1,8.122559052E0,-3.465892639E0,-5.209167480E-2,8.831256472E0
1.362969204E1,1.048135391E1,-5.495072937E0,-6.719526672E-1,1.185352803E1
1.363974804E1,1.493594055E1,-8.610095215E0,-2.604284363E0,1.743554865E1
1.364980504E1,2.015423904E1,-1.231429230E1,-5.612877960E0,2.427631655E1
1.365986104E1,2.294997528E1,-1.619137985E1,-7.306755524E0,2.902155790E1
1.366991804E1,2.341520782E1,-1.807356583E1,-7.595505066E0,3.053878577E1
1.367997404E1,2.379571655E1,-1.930774933E1,-7.762857056E0,3.161150519E1
1.369003104E1,2.540861252E1,-1.926059738E1,-7.952662354E0,3.286050882E1
1.370008704E1,2.550605988E1,-1.849778366E1,-7.328759766E0,3.234869102E1
1.371014304E1,2.166355042E1,-1.507095978E1,-5.697601776E0,2.699825756E1
1.372020004E1,1.741119324E1,-1.316736832E1,-4.752167816E0,2.234082222E1
1.373025604E1,1.529399597E1,-1.331271606E1,-4.891677704E0,2.085816944E1
1.374031304E1,1.393826523E1,-1.356000183E1,-5.058580627E0,2.009323581E1
1.375036904E1,1.288580383E1,-1.293026138E1,-4.819078674E0,1.888012498E1
1.376042604E1,1.174203232E1,-1.117531082E1,-4.190835114E0,1.674293863E1
1.377048204E1,1.043150757E1,-8.584498444E0,-3.782484283E0,1.402915361E1
1.378053904E1,9.080716553E0,-5.711822205E0,-3.644171906E0,1.132979765E1
1.379059504E1,7.823930054E0,-3.190764771E0,-3.307521973E0,9.073839480E0
1.380065204E1,6.633006592E0,-1.061143341E0,-3.356021118E0,7.509039844E0
1.381070804E1,5.284011841E0,6.491999817E-1,-3.450474701E0,6.344132518E0
1.382076504E1,3.605701904E0,1.947001190E0,-3.463347931E0,5.365321868E0
1.383082104E1,2.008822632E0,2.825524292E0,-3.390748901E0,4.849343667E0
1.384087704E1,7.855664063E-1,3.361559601E0,-3.267255707E0,4.753120804E0
1.385093404E1,-2.529739380E-2,3.604654083E0,-3.106639709E0,4.758716350E0
1.386099004E1,-4.638853455E-1,3.614982605E0,-2.975811768E0,4.705182730E0
1.387104704E1,-5.951623535E-1,3.461551666E0,-2.847079468E0,4.521329413E0
1.388110304E1,-6.179150391E-1,3.247796173E0,-2.578537903E0,4.192714716E0
1.389116004E1,-5.924679565E-1,3.019520874E0,-2.222129059E0,3.795574020E0
1.390121604E1,-4.921765137E-1,2.658471680E0,-1.816772003E0,3.257356275E0
1.391127333E1,-3.221301270E-1,2.219734039E0,-1.353635101E0,2.619792933E0
1.392132933E1,-1.263372803E-1,1.795216827E0,-8.922944641E-1,2.008719487E0
1.393138633E1,1.392105103E-1,1.380728760E0,-3.790118408E-1,1.438555334E0
1.394144233E1,4.156855774E-1,9.547146606E-1,1.007405090E-1,1.046146850E0
1.395149933E1,6.030958557E-1,6.490502930E-1,5.191204834E-1,1.026877291E0
1.396155533E1,8.482859802E-1,5.188211060E-1,9.726773071E-1,1.390994460E0
1.397161133E1,1.244961090E0,4.466711426E-1,1.292711792E0,1.849472088E0
1.398166833E1,2.347568207E0,1.038839722E-1,1.069076843E0,2.581626166E0
1.399172433E1,4.474794617E0,-1.026864624E0,2.710862732E-1,4.599100519E0
1.400178133E1,7.108417969E0,-2.931054840E0,-8.976832581E-1,7.741222366E0
1.401183733E1,1.019095779E1,-5.547613678E0,-2.435435486E0,1.185592613E1
1.402189433E1,1.419004166E1,-9.317524109E0,-4.086053009E0,1.746050878E1
1.403195033E1,1.911719559E1,-1.454600143E1,-6.118376770E0,2.478886563E1
1.404200733E1,2.335727829E1,-1.906255920E1,-7.776029663E0,3.113535370E1
1.405206333E1,2.533346878E1,-2.010319519E1,-8.155490570E0,3.335318761E1
1.406212033E1,2.519515640E1,-1.876123581E1,-7.434739380E0,3.228088018E1
1.407217633E1,2.615032013E1,-1.851050720E1,-7.176825714E0,3.283268108E1
1.408223233E1,2.674548248E1,-1.878638351E1,-7.242539063E0,3.347690862E1
1.409228933E1,2.397833679E1,-1.682770660E1,-6.285429382E0,2.996062361E1
1.410234533E1,1.964948868E1,-1.407762543E1,-5.172643433E0,2.471918654E1
1.411240233E1,1.603196136E1,-1.245245499E1,-4.613406372E0,2.081756323E1
1.412245833E1,1.328921494E1,-1.112067444E1,-4.174968109E0,1.782422487E1
1.413251533E1,1.089509354E1,-9.337881775E0,-3.625161438E0,1.480003022E1
1.414257133E1,8.623417511E0,-7.155270538E0,-2.926863556E0,1.158135382E1
1.415262833E1,6.554719391E0,-4.776716766E0,-2.165846100E0,8.394775678E0
1.416268433E1,4.776417389E0,-2.605032806E0,-1.553918610E0,5.658181867E0
1.417274133E1,3.205134888E0,-8.544232178E-1,-1.265169067E0,3.550152314E0
1.418279733E1,1.752555542E0,6.083349609E-1,-1.518442383E0,2.397329686E0
1.419285333E1,3.082090759E-1,1.690434723E0,-1.610201569E0,2.354848504E0
1.420291033E1,-1.069076843E0,2.399210815E0,-1.804647217E0,3.186830622E0
1.421296633E1,-2.119442596E0,2.836900635E0,-2.109114075E0,4.121699202E0
1.422302333E1,-2.858156433E0,2.994373169E0,-2.390379181E0,4.780088022E0
1.423307933E1,-3.201542358E0,2.872825928E0,-2.602039032E0,5.027286486E0
1.424313633E1,-3.060834961E0,2.417921906E0,-2.701282654E0,4.744679649E0
1.425319233E1,-2.591411133E0,1.779200134E0,-2.647843781E0,4.109992879E0
1.426324933E1,-1.941612396E0,1.203048248E0,-2.393223267E0,3.308277707E0
1.427330533E1,-1.200054474E0,5.998027039E-1,-2.026485901E0,2.430337246E0
1.428336233E1,-5.342390442E-1,1.344204712E-1,-1.438957672E0,1.540804790E0
1.429341833E1,2.957849121E-1,-1.585203552E-1,-8.500822449E-1,9.139240889E-1
1.430347533E1,1.020128632E0,-3.194357300E-1,-1.757345581E-1,1.083320934E0
1.431353133E1,1.526974640E0,-2.680924988E-1,3.493734741E-1,1.589209540E0
1.432358733E1,1.788630524E0,-1.761836243E-1,7.936495972E-1,1.964718683E0
1.433364433E1,1.815125427E0,-1.407073975E-2,1.149010620E0,2.148279243E0
1.434370033E1,2.045646057E0,3.427871704E-2,1.069675598E0,2.308689825E0
1.435375733E1,2.948269043E0,-2.998265076E-1,5.137316895E-1,3.007674606E0
1.436381333E1,4.274511108E0,-1.166524200E0,-3.797602844E-1,4.447071148E0
1.437387033E1,5.924529877E0,-2.530188446E0,-1.634750519E0,6.646376238E0
1.438392633E1,8.538394318E0,-4.634362793E0,-3.299588470E0,1.026005751E1
1.439398333E1,1.225785965E1,-7.727680206E0,-5.424419861E0,1.547244310E1
1.440403933E1,1.696631836E1,-1.222537720E1,-8.046666870E0,2.240679928E1
1.441409533E1,2.161130905E1,-1.743110184E1,-1.093550949E1,2.984086725E1
1.442415233E1,2.444312027E1,-2.056468552E1,-1.301857773E1,3.449428627E1
1.443420833E1,2.425241684E1,-2.024704605E1,-1.321122711E1,3.424411071E1
1.444426533E1,2.251767426E1,-1.817789886E1,-1.189561295E1,3.128877224E1
1.445432133E1,2.163301392E1,-1.715806961E1,-1.045171555E1,2.952329592E1
1.446437833E1,2.005858795E1,-1.641920609E1,-9.090146942E0,2.746940208E1
1.447443433E1,1.764081573E1,-1.507724670E1,-7.886350250E0,2.450951383E1
1.448449133E1,1.558978088E1,-1.418420380E1,-6.995253296E0,2.220735180E1
1.449454733E1,1.406699753E1,-1.383812347E1,-6.415658569E0,2.074933145E1
1.450460433E1,1.258642639E1,-1.294777496E1,-5.707032166E0,1.893761395E1
1.451466033E1,1.093236603E1,-1.097502731E1,-4.599335632E0,1.615926173E1
1.452471633E1,9.338779907E0,-8.389004974E0,-3.466641083E0,1.302327973E1
1.453477333E1,7.779622192E0,-5.655988312E0,-2.371967468E0,9.906510733E0
1.454482933E1,6.264023895E0,-3.019520874E0,-1.648970947E0,7.146650044E0
1.455488633E1,5.023852844E0,-8.922944641E-1,-1.394200745E0,5.289525737E0
1.456494233E1,3.910318451E0,6.845265198E-1,-1.548978882E0,4.261279446E0
1.457499933E1,2.888094177E0,1.898951111E0,-1.946552124E0,3.966883975E0
1.458505533E1,1.957928467E0,2.878364410E0,-2.362237701E0,4.206974271E0
1.459511233E1,1.145717468E0,3.581452332E0,-2.636467438E0,4.592431804E0
1.460516833E1,5.583389282E-1,4.042493591E0,-2.837050323E0,4.970146007E0
1.461522533E1,3.005749512E-1,4.353995819E0,-2.896327057E0,5.237970534E0
1.462528133E1,4.414320374E-1,4.442910919E0,-2.829266510E0,5.285742016E0
1.463533733E1,9.616003418E-1,4.290078735E0,-2.709365845E0,5.164311576E0
1.464539433E1,1.570234680E0,4.032015381E0,-2.522254944E0,5.008448361E0
1.465545033E1,2.158810730E0,3.752845917E0,-2.216291199E0,4.863770443E0
1.466550733E1,2.675236816E0,3.417393494E0,-1.863175507E0,4.723017392E0
1.467556333E1,3.095113678E0,3.033890991E0,-1.442550201E0,4.567841318E0
1.468562033E1,3.380121002E0,2.541265411E0,-1.062191162E0,4.360217649E0
1.469567633E1,3.376678162E0,2.043700104E0,-6.836283875E-1,4.005747532E0
1.470573333E1,3.166066132E0,1.613494720E0,-2.221380615E-1,3.560433300E0
1.471578933E1,2.765199738E0,1.266366577E0,2.392025757E-1,3.050775601E0
1.472584633E1,2.558629303E0,9.204359436E-1,5.936654663E-1,2.783204075E0
1.473590233E1,2.967728577E0,3.838018799E-1,6.403683472E-1,3.060194178E0
1.474595833E1,4.176614685E0,-5.526507568E-1,1.919009399E-1,4.217387705E0
1.475601533E1,6.249055023E0,-2.059118042E0,-8.644523621E-1,6.636108323E0
1.476607133E1,9.254954224E0,-4.335883484E0,-2.481689301E0,1.051726414E1
1.477612833E1,1.294223648E1,-7.624394989E0,-4.598886566E0,1.570931704E1
1.478618433E1,1.692739929E1,-1.197390015E1,-7.212451630E0,2.195291757E1
1.479624133E1,2.074790451E1,-1.617296814E1,-9.563911743E0,2.799122805E1
1.480629733E1,2.323767700E1,-1.793240936E1,-1.108654541E1,3.137630359E1
1.481635433E1,2.366443954E1,-1.778481628E1,-1.142993134E1,3.173245530E1
1.482641033E1,2.341191467E1,-1.703263046E1,-1.090527237E1,3.093789286E1
1.483646633E1,2.275418243E1,-1.664673294E1,-1.041818527E1,3.005669842E1
1.484652333E1,2.085193817E1,-1.663011749E1,-1.004171814E1,2.849912694E1
1.485657933E1,1.821023163E1,-1.628703094E1,-9.583371277E0,2.624349287E1
1.486663633E1,1.562914902E1,-1.577479614E1,-8.753497009E0,2.386918939E1
1.487669233E1,1.328966400E1,-1.485630615E1,-7.686515808E0,2.136369647E1
1.488674933E1,1.119836288E1,-1.315554291E1,-6.412066040E0,1.842786562E1
1.489680533E1,9.199120331E0,-1.060110489E1,-4.992717590E0,1.489746518E1
1.490686233E1,7.176226959E0,-7.633825378E0,-3.673510895E0,1.110262156E1
1.491691858E1,5.095853119E0,-4.718487854E0,-2.663710785E0,7.438225715E0
1.492697558E1,3.138373718E0,-2.393223267E0,-2.206112366E0,4.521486367E0
1.493703158E1,1.627415771E0,-6.044430542E-1,-1.947450256E0,2.608907051E0
1.494708758E1,2.703378296E-1,4.492158508E-1,-2.416275330E0,2.472501545E0
1.495714458E1,-9.054670715E-1,8.804690552E-1,-3.147055664E0,3.391025763E0
1.496720058E1,-1.798809357E0,9.449848938E-1,-3.825894012E0,4.331994523E0
1.497725758E1,-2.461481323E0,9.288185120E-1,-4.228107605E0,4.979808034E0
1.498731358E1,-2.931354218E0,9.681866455E-1,-4.281247101E0,5.278190946E0
1.499737058E1,-3.173550568E0,1.134191437E0,-3.943100281E0,5.187085236E0
1.500742658E1,-2.926115112E0,1.213376770E0,-3.405119019E0,4.650727724E0
1.501748358E1,-2.267784119E0,1.098116455E0,-2.830613708E0,3.789601367E0
1.502753958E1,-1.493294678E0,8.566685486E-1,-2.266137543E0,2.845907476E0
1.503759558E1,-6.819818115E-1,5.694158936E-1,-1.770967255E0,1.981327501E0
1.504765258E1,7.843688965E-2,2.531236267E-1,-1.392853546E0,1.417838114E0
1.505770858E1,8.264314270E-1,-6.017486572E-2,-1.253792725E0,1.502865967E0
1.506776558E1,1.454824677E0,-4.034111023E-1,-1.346150665E0,2.022715247E0
1.507782158E1,1.670226746E0,-6.613247681E-1,-1.534908142E0,2.362826874E0
1.508787858E1,1.235081635E0,-6.942562866E-1,-1.517244873E0,2.075921588E0
1.509793458E1,5.436694336E-1,-6.503974915E-1,-1.236279144E0,1.498992819E0
1.510799158E1,4.245172119E-1,-7.385641479E-1,-8.949888611E-1,1.235595777E0
1.511804758E1,1.265318756E0,-1.414408722E0,-9.978250122E-1,2.144117147E0
1.512810358E1,3.661086731E0,-3.129691772E0,-1.908830566E0,5.180942074E0
1.513816058E1,7.545209656E0,-6.084397430E0,-3.620670776E0,1.034694823E1
1.514821658E1,1.196027847E1,-9.804311829E0,-5.690865784E0,1.647903956E1
1.515827358E1,1.626352982E1,-1.367511246E1,-7.802075500E0,2.263588931E1
1.516832958E1,1.954246124E1,-1.672202637E1,-9.762698364E0,2.751080218E1
1.517838658E1,2.150143753E1,-1.838446930E1,-1.100676132E1,3.035538374E1
1.518844258E1,2.152224426E1,-1.869372620E1,-1.111094467E1,3.059600446E1
1.519849958E1,2.083756805E1,-1.817325851E1,-1.083132614E1,2.969493548E1
1.520855558E1,2.054896820E1,-1.815454742E1,-1.093206665E1,2.951876975E1
1.521861158E1,1.917332886E1,-1.676154419E1,-1.051204010E1,2.755120488E1
1.522866858E1,1.702918762E1,-1.417866531E1,-9.719438324E0,2.419700937E1
1.523872458E1,1.509955032E1,-1.217762650E1,-9.238937531E0,2.148601810E1
1.524878158E1,1.368529129E1,-1.111633347E1,-9.175768890E0,1.987598556E1
1.525883758E1,1.241832596E1,-1.023900787E1,-9.098080444E0,1.848856862E1
1.526889458E1,1.104568039E1,-8.532406769E0,-8.546926575E0,1.636639772E1
1.527895058E1,9.529782715E0,-6.048472137E0,-7.651788025E0,1.363637172E1
1.528900758E1,7.917635193E0,-3.571872253E0,-6.613996124E0,1.091751635E1
1.529906358E1,6.358178101E0,-1.436712341E0,-5.567971344E0,8.572798609E0
1.530911958E1,4.868775330E0,1.998344421E-1,-4.683460693E0,6.758676726E0
1.531917658E1,3.492986298E0,1.492845612E0,-3.816014557E0,5.384376324E0
1.532923258E1,2.340083771E0,2.534679108E0,-2.888393555E0,4.499267447E0
1.533928958E1,1.460512848E0,3.175945587E0,-2.018851776E0,4.036767351E0
1.534934558E1,8.117619324E-1,3.457210693E0,-1.312171326E0,3.785902376E0
1.535940258E1,4.884342957E-1,3.387156372E0,-6.336323547E-1,3.480357210E0
1.536945858E1,3.477268982E-1,3.117117920E0,-7.394622803E-2,3.137324683E0
1.537951558E1,2.019300842E-1,2.782413940E0,3.727249146E-1,2.814520733E0
1.538957158E1,2.245330811E-1,2.414479065E0,7.054829407E-1,2.525436683E0
1.539962758E1,4.475692749E-1,1.971250763E0,8.544232178E-1,2.194581250E0
1.540968458E1,7.262896729E-1,1.549877014E0,8.521778870E-1,1.912020554E0
1.541974058E1,1.023870850E0,1.239422607E0,7.914042664E-1,1.791870707E0
1.542979758E1,1.324146423E0,1.114432526E0,7.792794800E-1,1.898051662E0
1.543985358E1,1.666035461E0,1.141825562E0,7.104226685E-1,2.141060517E0
1.544991058E1,2.064656525E0,1.185834045E0,5.899232483E-1,2.452961147E0
1.545996658E1,2.529140625E0,1.173858948E0,5.372328186E-1,2.839562683E0
1.547002358E1,2.612217865E0,1.270557861E0,8.449928284E-1,3.025229303E0
1.548007958E1,2.823578339E0,1.325643311E0,9.886940002E-1,3.272222585E0
1.549013558E1,3.641327820E0,7.860154724E-1,6.605763245E-1,3.783312001E0
1.550019258E1,5.098996582E0,-4.849914551E-1,-1.224453735E-1,5.123473014E0
1.551024858E1,7.600295105E0,-2.583327942E0,-1.722168732E0,8.209989895E0
1.552030558E1,1.119342316E1,-5.921536102E0,-4.213288422E0,1.334575255E1
1.553036158E1,1.543739777E1,-1.080438217E1,-7.336693268E0,2.022065756E1
1.554041858E1,1.973735596E1,-1.600322113E1,-1.068463120E1,2.756497144E1
1.555047458E1,2.385649017E1,-1.856858643E1,-1.397853149E1,3.330651390E1
1.556053158E1,2.582100494E1,-1.853206238E1,-1.557151886E1,3.539256747E1
1.557058758E1,2.532074524E1,-1.735850281E1,-1.468296661E1,3.403009356E1
1.558064358E1,2.460283813E1,-1.642234955E1,-1.346569794E1,3.250104967E1
1.559070058E1,2.249537064E1,-1.543111084E1,-1.274479706E1,3.010964520E1
1.560075658E1,1.918216049E1,-1.412717239E1,-1.199575470E1,2.667265288E1
1.561081358E1,1.599873047E1,-1.323876984E1,-1.118833374E1,2.358820076E1
1.562086958E1,1.327978455E1,-1.261142441E1,-1.021236328E1,2.096885946E1
1.563092658E1,1.081905167E1,-1.155716675E1,-8.791667633E0,1.810837933E1
1.564098258E1,8.637338562E0,-9.546697540E0,-6.924300842E0,1.461810499E1
1.565103958E1,6.815626831E0,-7.026837616E0,-5.222938843E0,1.109541825E1
1.566109558E1,5.350922699E0,-4.544998627E0,-3.819008331E0,7.992134313E0
1.567115158E1,4.054169312E0,-2.525997162E0,-2.748883667E0,5.511198770E0
1.568120858E1,2.933749237E0,-9.324110413E-1,-1.963916016E0,3.651471081E0
1.569126458E1,1.947450256E0,4.346960449E-1,-1.394949188E0,2.434626540E0
1.570132158E1,1.138682098E0,1.496288452E0,-1.068777466E0,2.162813289E0
1.571137758E1,5.234614563E-1,2.063159637E0,-8.819659424E-1,2.304018991E0
1.572143458E1,7.035369873E-3,2.158062286E0,-8.367599487E-1,2.314616500E0
1.573149058E1,-5.171745300E-1,1.977537689E0,-7.878117371E-1,2.190609993E0
1.574154658E1,-1.094224548E0,1.809437256E0,-6.095324707E-1,2.200663622E0
1.575160358E1,-1.587897949E0,1.720671844E0,-4.011657715E-1,2.375513728E0
1.576165958E1,-1.739981689E0,1.588047638E0,-3.162922668E-1,2.376861876E0
1.577171658E1,-1.692081299E0,1.369352417E0,-3.126997375E-1,2.199101246E0
1.578177258E1,-1.547781372E0,1.090781708E0,-3.159928894E-1,1.919709201E0
1.579182958E1,-1.358874207E0,8.018824768E-1,-3.376977539E-1,1.613565737E0
1.580188558E1,-1.122066650E0,5.014572144E-1,-4.041595459E-1,1.293768853E0
1.581194258E1,-9.174421692E-1,3.406915283E-1,-3.041674805E-1,1.024835942E0
1.582199858E1,-5.733078003E-1,3.409909058E-1,-2.007325745E-1,6.965990225E-1
1.583205458E1,-9.759704590E-2,3.778143311E-1,-9.984237671E-2,4.027869813E-1
1.584211158E1,5.962101746E-1,4.417314148E-1,-1.122665405E-2,7.421046104E-1
1.585216758E1,1.597478027E0,3.435356140E-1,-2.197430420E-1,1.648708516E0
1.586222458E1,2.922971649E0,3.996688843E-2,-8.732839966E-1,3.050899138E0
1.587228058E1,4.790787506E0,-6.033952332E-1,-1.981429596E0,5.219367201E0
1.588233758E1,7.652536469E0,-2.000140686E0,-3.845952301E0,8.795068292E0
1.589239358E1,1.175400742E1,-4.718787231E0,-6.392456818E0,1.418757017E1
1.590245058E1,1.739891876E1,-9.302106171E0,-9.711504822E0,2.199010867E1
1.591250658E1,2.418715256E1,-1.602118378E1,-1.393856461E1,3.218664726E1
1.592256258E1,2.920591599E1,-2.079146393E1,-1.753947647E1,3.991119812E1
1.593261958E1,2.865042114E1,-1.956132202E1,-1.777718216E1,3.898102303E1
1.594267558E1,2.472857666E1,-1.597043930E1,-1.579260910E1,3.340604642E1
1.595273258E1,2.221380615E1,-1.342573105E1,-1.386237305E1,2.942564909E1
1.596278858E1,1.985411316E1,-1.215202972E1,-1.211999634E1,2.624408404E1
1.597284558E1,1.731404526E1,-1.117246674E1,-1.075962524E1,2.324585364E1
1.598290158E1,1.460542786E1,-9.847422180E0,-9.778116302E0,2.014700486E1
1.599295758E1,1.259929962E1,-9.459728394E0,-9.150621185E0,1.821984304E1
1.600301458E1,1.039124130E1,-8.904083862E0,-8.662935333E0,1.619589620E1
1.601307058E1,8.311915283E0,-7.176226959E0,-7.523804169E0,1.331141609E1
1.602312758E1,6.431824951E0,-4.650080109E0,-5.852529602E0,9.861223046E0
1.603318358E1,4.695585480E0,-2.058369598E0,-4.438120880E0,6.781026865E0
1.604324058E1,3.493435364E0,-2.897973633E-1,-3.255729675E0,4.784124671E0
1.605329658E1,2.640059967E0,6.722520447E-1,-2.591860199E0,3.760263120E0
1.606335358E1,2.030527496E0,1.174906769E0,-2.249222717E0,3.249992409E0
1.607340958E1,1.382824402E0,1.671424255E0,-1.828896790E0,2.837380100E0
1.608346558E1,6.027964783E-1,2.224374390E0,-1.288670197E0,2.640431006E0
1.609352258E1,-2.724334717E-2,2.663561096E0,-7.396119690E-1,2.764475679E0
1.610357858E1,-5.077441406E-1,2.967279510E0,-3.995191956E-1,3.036802166E0
1.611363558E1,-6.104306030E-1,3.161874847E0,-7.664062500E-2,3.221172435E0
1.612369158E1,-4.170327759E-1,3.254232788E0,1.850152588E-1,3.286058128E0
1.613374858E1,5.014572144E-2,3.213667145E0,2.157014465E-1,3.221288287E0
1.614380458E1,8.767268372E-1,3.123554535E0,2.275268555E-2,3.244342856E0
1.615386058E1,1.900597687E0,3.008593597E0,-3.463796997E-1,3.575456041E0
1.616391758E1,2.792592773E0,2.889441376E0,-7.506889343E-1,4.087906523E0
1.617397358E1,3.278332672E0,2.771187286E0,-1.095422058E0,4.430225002E0
1.618403058E1,3.404520264E0,2.623893585E0,-1.383123779E0,4.515374532E0
1.619408658E1,3.391647034E0,2.415975952E0,-1.606459351E0,4.463285903E0
1.620414358E1,3.122357025E0,2.029779053E0,-1.558259583E0,4.036990132E0
1.621419958E1,2.727478180E0,1.611698456E0,-1.101559296E0,3.354123137E0
1.622425558E1,2.724634094E0,1.265169067E0,-5.554948425E-1,3.054972706E0
1.623431258E1,3.633094940E0,7.394622803E-1,-1.525328064E-1,3.710720896E0
1.624436858E1,5.405708771E0,-2.523751831E-1,-4.067042542E-1,5.426858106E0
1.625442558E1,8.095914459E0,-1.979034576E0,-1.636995850E0,8.493536613E0
1.626448158E1,1.160416901E1,-4.508025513E0,-3.806883545E0,1.301811794E1
1.627453858E1,1.568558167E1,-8.044271851E0,-6.667884064E0,1.884697481E1
1.628459458E1,2.020408539E1,-1.239302856E1,-9.877210236E0,2.567784075E1
1.629465158E1,2.430840042E1,-1.579919540E1,-1.276904663E1,3.167903815E1
1.630470758E1,2.571712097E1,-1.689222244E1,-1.394724655E1,3.378229087E1
1.631476358E1,2.395333878E1,-1.603794891E1,-1.300914734E1,3.162619418E1
1.632482058E1,2.254342072E1,-1.558798462E1,-1.252580246E1,3.013447875E1
1.633487658E1,2.110191833E1,-1.605186996E1,-1.304088135E1,2.954687924E1
1.634493358E1,1.820648941E1,-1.531764679E1,-1.262025604E1,2.693283168E1
1.635498958E1,1.489612335E1,-1.374831024E1,-1.118219650E1,2.315063809E1
1.636504658E1,1.250933670E1,-1.253343658E1,-9.893526306E0,2.028428949E1
1.637510258E1,1.089853638E1,-1.138966507E1,-9.139843597E0,1.822194574E1
1.638515858E1,9.729168091E0,-9.474697266E0,-8.328530731E0,1.593081995E1
1.639521558E1,8.603658600E0,-7.252568207E0,-7.243137817E0,1.338229174E1
1.640527158E1,7.211703186E0,-5.034630432E0,-6.256240082E0,1.079336400E1
1.641532858E1,5.786965942E0,-3.003504181E0,-5.320535889E0,8.415349923E0
1.642538458E1,4.453389130E0,-1.297352142E0,-4.496499481E0,6.460209355E0
1.643544158E1,3.256627808E0,4.311035156E-2,-3.840114441E0,5.035271800E0
1.644549758E1,2.174378357E0,1.046773224E0,-3.175496521E0,3.988412413E0
1.645555358E1,1.005908203E0,1.698068848E0,-2.541864166E0,3.218130290E0
1.646561058E1,9.250762939E-2,2.033072205E0,-2.198478241E0,2.995871631E0
1.647566658E1,-5.207670593E-1,2.203268280E0,-2.014211426E0,3.030286639E0
1.648572358E1,-9.638456726E-1,2.327958984E0,-1.750310211E0,3.067894612E0
1.649577958E1,-1.095122681E0,2.361489258E0,-1.506467285E0,3.007551975E0
1.650583658E1,-9.156459045E-1,2.284848633E0,-1.331181793E0,2.798389834E0
1.651589258E1,-5.969586182E-1,2.115850067E0,-1.119821320E0,2.467221288E0
1.652594858E1,-2.399510193E-1,1.957030334E0,-9.333091736E-1,2.181423901E0
1.653600558E1,8.711883545E-2,1.825753326E0,-8.077203369E-1,1.998343575E0
1.654606158E1,4.343966675E-1,1.732946320E0,-7.668553162E-1,1.944188902E0
1.655611858E1,8.578660583E-1,1.641037445E0,-8.336164856E-1,2.030727583E0
1.656617458E1,1.262025604E0,1.501228180E0,-9.087602234E-1,2.161536448E0
1.657623158E1,1.440604248E0,1.273102570E0,-9.277706909E-1,2.134687145E0
1.658628758E1,1.490300903E0,8.366102600E-1,-8.716374207E-1,1.918506008E0
1.659634358E1,1.640588379E0,2.390528870E-1,-7.571255493E-1,1.822612304E0
1.660640058E1,2.119592285E0,-3.366499329E-1,-6.752458191E-1,2.249880341E0
1.661645658E1,2.983595581E0,-9.590556335E-1,-6.662644958E-1,3.203987933E0
1.662651358E1,4.535867615E0,-1.873204651E0,-1.119671631E0,5.033552944E0
1.663656958E1,7.059619446E0,-3.602558441E0,-2.301164703E0,8.253000244E0
1.664662658E1,1.126213028E1,-6.634503479E0,-4.609664154E0,1.386005839E1
