"Time (s)","Acceleration x (m/s^2)","Acceleration y (m/s^2)","Acceleration z (m/s^2)","Absolute acceleration (m/s^2)"
2.024999994E-3,-1.278641052E0,6.332731018E0,7.196584625E0,9.671051409E0
1.208200003E-2,-1.245260468E0,6.309080200E0,7.220534821E0,9.669089393E0
2.213800000E-2,-1.133592682E0,6.265969849E0,7.280859375E0,9.672555182E0
3.219500004E-2,-1.009351044E0,6.173013153E0,7.372319183E0,9.668297216E0
4.225100001E-2,-9.294172668E-1,6.065237274E0,7.547904053E0,9.727372473E0
5.230800004E-2,-8.978329468E-1,5.967340851E0,7.647746429E0,9.741831772E0
6.236400001E-2,-8.277786255E-1,5.871689758E0,7.695497131E0,9.715072525E0
7.242100005E-2,-8.090675354E-1,5.840704193E0,7.752079468E0,9.739771651E0
8.247700002E-2,-8.390052795E-1,5.820196838E0,7.727380829E0,9.710357129E0
9.253400000E-2,-8.623567200E-1,5.887856140E0,7.663763123E0,9.702771472E0
1.025900000E-1,-9.256750488E-1,6.036796417E0,7.555388489E0,9.715126376E0
1.126470000E-1,-9.732760620E-1,6.071075134E0,7.420069885E0,9.636527211E0
1.227040000E-1,-9.455836487E-1,6.254892883E0,7.365283813E0,9.709027710E0
1.327600000E-1,-9.231303406E-1,6.262826385E0,7.326514435E0,9.682612133E0
1.428170000E-1,-8.104147339E-1,6.163133698E0,7.311395874E0,9.596744169E0
1.528730000E-1,-7.343728638E-1,6.039341125E0,7.413184204E0,9.590007548E0
1.629300000E-1,-7.074288940E-1,5.851032715E0,7.486531677E0,9.528021622E0
1.729860000E-1,-6.462062073E-1,5.644761658E0,7.656578064E0,9.534364388E0
1.830430000E-1,-5.653742981E-1,5.493725739E0,7.784412231E0,9.544513837E0
1.930990000E-1,-3.492237854E-1,5.400020599E0,7.878716125E0,9.558051450E0
2.031560000E-1,2.454895020E-2,5.140610046E0,8.050409088E0,9.551730774E0
2.132120000E-1,5.806425476E-1,4.718936920E0,8.137078857E0,9.424307070E0
2.232690000E-1,9.506730652E-1,4.283791809E0,7.689808960E0,8.853689253E0
2.333250000E-1,1.001267853E0,4.317322083E0,7.282356262E0,8.524935191E0
2.433820000E-1,9.075627136E-1,4.541406097E0,7.352260895E0,8.689291092E0
2.534380000E-1,1.052910461E0,4.459975433E0,7.464976501E0,8.759330766E0
2.634950000E-1,1.306782532E0,4.108506317E0,7.547305298E0,8.691911297E0
2.735517084E-1,1.846560059E0,3.691174164E0,7.549850006E0,8.604346917E0
2.836087084E-1,2.338437195E0,3.390599213E0,7.362140350E0,8.435968354E0
2.936647084E-1,2.515219574E0,3.088677063E0,7.378007355E0,8.384583951E0
3.037217084E-1,2.534828796E0,2.823578339E0,7.497458954E0,8.402966287E0
3.137777083E-1,2.362088013E0,2.665357361E0,7.621550903E0,8.412587462E0
3.238347084E-1,1.920206909E0,2.537074127E0,8.180937653E0,8.777908668E0
3.338907083E-1,5.891748047E-1,2.279160461E0,9.047934723E0,9.349161573E0
3.439477084E-1,1.927990723E-1,2.397115173E0,7.759414215E0,8.123536274E0
3.540037083E-1,4.026626587E-2,3.362008667E0,7.305108948E0,8.041724963E0
3.640607084E-1,-3.517684937E-2,3.930676117E0,7.662266235E0,8.611723173E0
3.741167083E-1,3.817062378E-2,3.550766144E0,7.444169769E0,8.247730643E0
3.841737083E-1,1.543290710E-1,3.144061890E0,7.867938538E0,8.474278698E0
3.942297084E-1,4.171824646E-1,2.525997162E0,7.907007294E0,8.311165214E0
4.042867083E-1,7.231462097E-1,1.998793488E0,8.000562744E0,8.278110900E0
4.143427084E-1,7.484436035E-1,1.800904999E0,8.430917816E0,8.653542735E0
4.243997083E-1,6.427633667E-1,1.729503479E0,8.973090363E0,9.160822981E0
4.344557084E-1,6.625222778E-1,1.320703583E0,9.442065125E0,9.556975857E0
4.445127083E-1,4.243675232E-1,5.846841431E-1,1.041174866E1,1.043678367E1
4.545687084E-1,1.447489929E-1,-1.285826111E-1,1.189980423E1,1.190137918E1
4.646257084E-1,2.409988403E-2,-4.821473694E-1,1.273162445E1,1.274077345E1
4.746827083E-1,-1.324445801E0,-4.572990417E-1,1.487606506E1,1.494190720E1
4.847387084E-1,-3.828588409E0,1.106798401E0,1.511212418E1,1.562879999E1
4.947957083E-1,-2.252665558E0,2.949167175E0,1.260723312E1,1.314208569E1
5.048517084E-1,-7.493417358E-1,3.786076813E0,1.110390930E1,1.175553880E1
5.149087083E-1,-2.564167786E-1,3.307821350E0,1.116677856E1,1.164922208E1
5.249647084E-1,-9.535171509E-2,3.091221771E0,1.124252106E1,1.166014681E1
5.350217083E-1,5.298980713E-2,2.961591339E0,1.068642746E1,1.108934457E1
5.450777084E-1,-3.426374817E-1,3.091371460E0,1.054347473E1,1.099267198E1
5.551347084E-1,-6.459068298E-1,2.970422974E0,1.035801041E1,1.079485933E1
5.651907084E-1,-2.628533936E-1,2.935545502E0,1.005429199E1,1.047737118E1
5.752477084E-1,1.215472412E-1,3.132236481E0,9.988728333E0,1.046901967E1
5.853037083E-1,3.594026184E-1,3.152594147E0,9.574539642E0,1.008661635E1
5.953607084E-1,4.050576782E-1,3.170856171E0,8.931327209E0,9.486148128E0
6.054167083E-1,8.502319336E-2,3.349584503E0,8.649613037E0,9.275923187E0
6.154737084E-1,-3.814068604E-1,3.584146729E0,8.671018524E0,9.390321678E0
6.255297083E-1,-7.033872986E-1,3.749852142E0,8.634344788E0,9.439706282E0
6.355867084E-1,-7.270381165E-1,3.697161713E0,8.169710999E0,8.996764249E0
6.456427083E-1,-7.658074951E-1,3.605252838E0,7.340285797E0,8.213653556E0
6.556997084E-1,-9.020242310E-1,3.656596069E0,7.630981293E0,8.509771913E0
6.657557084E-1,-1.872456207E0,3.710334320E0,8.116421814E0,9.118606038E0
6.758127083E-1,-3.221900024E0,3.967200165E0,7.766898651E0,9.297528251E0
6.858687084E-1,-3.550466766E0,4.533322906E0,7.193590851E0,9.214368137E0
6.959257083E-1,-3.125949554E0,4.914430389E0,6.739584961E0,8.907591825E0
7.059817084E-1,-1.385369110E0,4.876409454E0,7.187004547E0,8.794978743E0
7.160387083E-1,9.756710815E-1,3.957769775E0,6.413562927E0,7.599320040E0
7.260947084E-1,4.893324280E-1,2.608775024E0,4.920268250E0,5.590544965E0
7.361517083E-1,-3.384461975E-1,2.024090881E0,5.303022308E0,5.686258465E0
7.462077084E-1,-2.261796570E-1,2.131567383E0,7.946375427E0,8.230408202E0
7.562647084E-1,4.093986511E-1,1.780547333E0,8.478668518E0,8.673279420E0
7.663207084E-1,-5.049000549E-1,1.822310486E0,6.400689697E0,6.674171722E0
7.763777084E-1,-1.606159973E-1,2.211950226E0,9.578132172E0,9.831537886E0
7.864337083E-1,1.464704132E0,2.677482147E0,1.464090408E1,1.495561237E1
7.964907084E-1,9.131011963E-1,2.401156769E0,1.355596024E1,1.379722311E1
8.065467083E-1,2.433938599E-1,2.565514984E0,1.269031036E1,1.294932758E1
8.166037084E-1,3.246748352E-1,2.977158966E0,1.184681442E1,1.221948858E1
8.266597083E-1,6.987469482E-1,2.761457520E0,1.011506561E1,1.050849405E1
8.367167084E-1,5.092410278E-1,2.705174561E0,7.963290253E0,8.425632764E0
8.467727083E-1,5.269042969E-2,3.101999359E0,6.975344696E0,7.634173821E0
8.568297084E-1,-2.237846375E-1,3.751498718E0,6.941365356E0,7.893438744E0
8.668867084E-1,7.200027466E-2,4.056115265E0,7.315287781E0,8.364848498E0
8.769427083E-1,4.992118835E-1,3.836821289E0,7.999664612E0,8.886227772E0
8.869997084E-1,1.664987640E0,3.350782013E0,8.396489410E0,9.192440283E0
8.970557083E-1,2.179467773E0,3.025807800E0,8.539591827E0,9.318273510E0
9.071127084E-1,2.097138977E0,2.962040405E0,8.634494476E0,9.366224966E0
9.171687083E-1,1.944306793E0,2.820135498E0,8.958271179E0,9.590834982E0
9.272257084E-1,1.853745117E0,2.625689850E0,9.301657104E0,9.841313075E0
9.372817083E-1,1.713786163E0,2.431094513E0,9.714797974E0,1.015994996E1
9.473387083E-1,1.619482269E0,1.867067413E0,9.832153931E0,1.013804293E1
9.573947084E-1,1.753004608E0,1.713037720E0,9.752818909E0,1.005609268E1
9.674517083E-1,1.476679230E0,1.571132813E0,9.786798248E0,1.002149988E1
9.775077084E-1,1.445394287E0,1.501228180E0,9.716294861E0,9.937265042E0
9.875647083E-1,1.402283936E0,1.462608490E0,9.520951080E0,9.734173478E0
9.976207084E-1,1.299747162E0,1.405128021E0,9.262588348E0,9.458291090E0
1.007677708E0,1.226549377E0,1.406475220E0,9.011710052E0,9.202907909E0
1.017733708E0,1.252295837E0,1.490450592E0,8.638835449E0,8.855459658E0
1.027790708E0,1.352287903E0,1.448537750E0,8.415350189E0,8.645522714E0
1.037846708E0,1.441801758E0,1.285227356E0,8.593629456E0,8.808011631E0
1.047903708E0,1.406774597E0,9.686357117E-1,8.823251953E0,8.987048733E0
1.057959708E0,1.446292419E0,5.798941040E-1,9.093440094E0,9.225979172E0
1.068016708E0,1.468596039E0,2.510279846E-1,9.526339874E0,9.642143993E0
1.078072708E0,1.868863678E0,2.409988403E-2,9.878407745E0,1.005366460E1
1.088129708E0,2.427052917E0,6.496490479E-2,9.732311554E0,1.003058794E1
1.098185708E0,3.019670563E0,4.565505981E-1,9.705666962E0,1.017481302E1
1.108242708E0,3.339255981E0,8.620573425E-1,9.548942871E0,1.015263923E1
1.118298708E0,3.459006958E0,7.845185852E-1,9.325158234E0,9.976912079E0
1.128355708E0,3.464844818E0,4.721182251E-1,9.278155975E0,9.915252066E0
1.138411708E0,3.414699097E0,1.191522217E-1,9.386829987E0,9.989341538E0
1.148468708E0,3.419040070E0,-1.984872437E-1,9.487570496E0,1.008678473E1
1.158524708E0,3.615132294E0,-3.028202820E-1,9.359586639E0,1.003806474E1
1.168581708E0,3.788771210E0,-5.134323120E-2,9.270372162E0,1.001485014E1
1.178637708E0,4.280049591E0,1.859133911E-1,9.053473206E0,1.001592559E1
1.188694708E0,5.250930634E0,3.062631226E-1,8.745114441E0,1.020505248E1
1.198750708E0,5.858517151E0,4.505630493E-1,8.594976654E0,1.041147703E1
1.208807708E0,6.327940979E0,5.257067871E-1,8.341553650E0,1.048335452E1
1.218863708E0,6.377637634E0,8.452922058E-1,7.853119354E0,1.015186014E1
1.228920708E0,6.393804016E0,8.936416626E-1,7.257208557E0,9.713207568E0
1.238976708E0,6.742728424E0,5.339396667E-1,6.515051880E0,9.391239490E0
1.249033708E0,7.130871277E0,3.135978699E-1,6.128405914E0,9.407711084E0
1.259089708E0,7.820038147E0,-2.404000854E-1,6.389912109E0,1.010157243E1
1.269146708E0,8.792116699E0,-1.182989960E0,6.506220245E0,1.100144005E1
1.279202583E0,9.375753021E0,-1.966460724E0,6.754703522E0,1.172167787E1
1.289259583E0,9.417516174E0,-2.276166687E0,7.234904938E0,1.209191445E1
1.299315583E0,9.013057251E0,-2.538720703E0,8.070167999E0,1.236154988E1
1.309372583E0,8.048463135E0,-2.385289764E0,8.622070312E0,1.203359724E1
1.319428583E0,6.179898834E0,-1.275497589E0,8.781488800E0,1.081353731E1
1.329485583E0,5.695955200E0,-1.392105103E0,8.482410736E0,1.031179684E1
1.339541583E0,5.934858398E0,-1.783391418E0,7.865693207E0,1.001359869E1
1.349598583E0,6.266418915E0,-1.618883514E0,7.500452728E0,9.906845158E0
1.359654583E0,6.839876404E0,-1.551673279E0,7.263495483E0,1.009702757E1
1.369711583E0,7.473957825E0,-1.580263824E0,6.968309326E0,1.033995233E1
1.379768583E0,7.805817719E0,-1.536405029E0,6.766379242E0,1.044390821E1
1.389824583E0,7.878716125E0,-1.590742035E0,6.354884949E0,1.024642331E1
1.399881583E0,7.719447327E0,-1.653611298E0,5.763913879E0,9.774814605E0
1.409937583E0,7.493866425E0,-1.647324371E0,5.163811798E0,9.248603346E0
1.419994583E0,7.448810120E0,-1.744023285E0,4.893923035E0,9.081677823E0
1.430050583E0,7.533234558E0,-1.394500122E0,5.075794830E0,9.190100470E0
1.440107583E0,8.054001617E0,-1.378184052E0,4.844376068E0,9.499174323E0
1.450163583E0,8.406668243E0,-1.534608765E0,4.588408356E0,9.699514743E0
1.460220583E0,8.293353882E0,-1.823058929E0,4.077221375E0,9.419500868E0
1.470276583E0,8.014334106E0,-2.034120026E0,3.538491669E0,8.993782227E0
1.480333583E0,8.059689789E0,-1.867067413E0,2.898871765E0,8.766298976E0
1.490389583E0,8.196355591E0,-1.494192810E0,2.115251312E0,8.595763214E0
1.500446583E0,8.129444733E0,-1.299298096E0,1.430575104E0,8.355991403E0
1.510502583E0,8.121810608E0,-1.064436493E0,1.298998718E0,8.293625882E0
1.520559583E0,8.572223969E0,-6.153703308E-1,1.455722809E0,8.716698532E0
1.530615583E0,8.991651764E0,-4.251159668E-1,1.399290161E0,9.109804498E0
1.540672583E0,9.225315857E0,-5.722599792E-1,1.276395721E0,9.330762036E0
1.550728583E0,9.266629944E0,-9.657916260E-1,9.719288635E-1,9.367381155E0
1.560785583E0,9.235943756E0,-1.674717407E0,7.825726318E-1,9.419116486E0
1.570841583E0,9.301208038E0,-2.249372406E0,6.409671021E-1,9.590776091E0
1.580898583E0,9.398505707E0,-2.409389648E0,1.562750244E-1,9.703684346E0
1.590954583E0,9.575288086E0,-2.229763184E0,-4.278103638E-1,9.840782870E0
1.601011583E0,1.014081207E1,-1.836830292E0,-1.283730469E0,1.038546961E1
1.611067583E0,1.053658905E1,-1.135538635E0,-2.406395874E0,1.086737769E1
1.621124583E0,9.707912292E0,-1.205443268E0,-2.645598450E0,1.013389588E1
1.631180583E0,9.024882660E0,-1.541195068E0,-2.090402985E0,9.391143376E0
1.641237583E0,9.199868774E0,-1.330133972E0,-1.843715973E0,9.476609649E0
1.651293583E0,9.454339600E0,-1.326242065E0,-1.632355499E0,9.685455062E0
1.661350583E0,9.808802490E0,-1.556163940E0,-1.625619507E0,1.006364205E1
1.671406583E0,1.011611343E1,-1.847907257E0,-1.723665619E0,1.042696195E1
1.681463583E0,1.039528290E1,-2.127675476E0,-1.783840485E0,1.075969313E1
1.691519583E0,1.037956558E1,-2.419718170E0,-1.813179474E0,1.081101464E1
1.701576583E0,1.010234207E1,-2.557731171E0,-1.916614380E0,1.059588197E1
1.711632583E0,9.854307861E0,-2.440674591E0,-2.206112366E0,1.038899454E1
1.721689583E0,9.879754944E0,-2.183659058E0,-2.664010162E0,1.046302417E1
1.731745583E0,9.769134979E0,-1.845512238E0,-3.073708191E0,1.040622870E1
1.741802583E0,9.433832245E0,-1.712738342E0,-3.342698822E0,1.015402870E1
1.751858583E0,8.860973511E0,-1.521885223E0,-3.394042053E0,9.610021210E0
1.761915583E0,8.554111633E0,-1.772913208E0,-3.624113617E0,9.457814049E0
1.771971583E0,8.527616730E0,-2.359243927E0,-3.411106567E0,9.482717280E0
1.782028583E0,9.091494141E0,-2.567610626E0,-3.073857880E0,9.934610828E0
1.792084583E0,9.707612915E0,-2.354902954E0,-2.678979034E0,1.034215863E1
1.802141583E0,1.009889923E1,-2.433040466E0,-2.494412842E0,1.068314312E1
1.812197583E0,1.010952713E1,-2.869233398E0,-2.410437469E0,1.078170895E1
1.822254583E0,1.030082932E1,-3.102598114E0,-2.516866150E0,1.104843042E1
1.832310583E0,1.045141617E1,-2.964585114E0,-2.644251251E0,1.118091810E1
1.842367583E0,1.049108368E1,-3.002606049E0,-3.038231964E0,1.132737098E1
1.852423583E0,1.023032593E1,-3.342399445E0,-2.841391296E0,1.113124913E1
1.862480583E0,1.000878662E1,-3.426973572E0,-2.287842407E0,1.082377847E1
1.872536583E0,9.973310394E0,-3.409160614E0,-1.883233795E0,1.070681399E1
1.882593583E0,9.898765411E0,-3.285817108E0,-1.534608765E0,1.054216177E1
1.892649583E0,1.006132736E1,-3.209026794E0,-1.538800049E0,1.067221003E1
1.902706583E0,1.036235138E1,-3.114573212E0,-1.475631409E0,1.092045697E1
1.912762583E0,1.060843964E1,-2.950963440E0,-1.426234131E0,1.110321217E1
1.922819583E0,1.070004913E1,-2.846181335E0,-1.247056732E0,1.114212503E1
1.932875583E0,1.073687256E1,-2.826123047E0,-9.858499146E-1,1.114626861E1
1.942932583E0,1.066741699E1,-2.787653046E0,-8.403524780E-1,1.105762122E1
1.952988583E0,1.055814423E1,-2.792443085E0,-8.255332947E-1,1.095233551E1
1.963045583E0,1.046443909E1,-2.727328491E0,-8.952882385E-1,1.085100673E1
1.973101583E0,1.032073792E1,-2.654280396E0,-8.563691711E-1,1.069094026E1
1.983158583E0,1.003348526E1,-2.697241058E0,-6.794371033E-1,1.041189563E1
1.993214583E0,9.824819183E0,-2.645448761E0,-6.212081909E-1,1.019369269E1
2.003271583E0,9.761351166E0,-2.434687042E0,-7.261399841E-1,1.008657310E1
2.013327583E0,9.508077850E0,-2.305056610E0,-7.735913086E-1,9.814034537E0
2.023384583E0,9.197623444E0,-2.381547546E0,-6.195616150E-1,9.521129257E0
2.033440583E0,8.948840790E0,-2.355950775E0,-1.974394226E-1,9.255875856E0
2.043497583E0,8.722062378E0,-2.419418793E0,3.153941345E-1,9.056899739E0
2.053553583E0,8.556057587E0,-2.487078094E0,7.553292847E-1,8.942158643E0
2.063610583E0,8.869655457E0,-2.345023499E0,9.039701843E-1,9.218844028E0
2.073666583E0,9.085805969E0,-2.243534546E0,9.599537659E-1,9.407806790E0
2.083723583E0,9.038654022E0,-2.245031433E0,9.717791748E-1,9.363855372E0
2.093779583E0,9.030421143E0,-2.243085480E0,1.008303223E0,9.359306271E0
2.103836583E0,8.887318726E0,-2.318977661E0,9.650431824E-1,9.235442592E0
2.113892583E0,8.684789886E0,-2.395318909E0,9.862989807E-1,9.062886611E0
2.123949583E0,8.578660583E0,-2.422711945E0,1.176703033E0,8.991528268E0
2.134006583E0,8.621621246E0,-2.543959808E0,1.414109344E0,9.099658766E0
2.144062583E0,8.881929932E0,-2.633174286E0,1.529818726E0,9.389495805E0
2.154119583E0,9.172924805E0,-2.634820862E0,1.594633942E0,9.676140132E0
2.164175583E0,9.216184845E0,-2.717149658E0,1.713037720E0,9.759890552E0
2.174232583E0,9.330846405E0,-2.959196320E0,1.758243713E0,9.945499407E0
2.184288583E0,9.527537384E0,-3.285368042E0,1.912423096E0,1.025792249E1
2.194345583E0,9.836345215E0,-3.627107391E0,1.983824615E0,1.066982452E1
2.204401583E0,1.026265869E1,-4.043541412E0,2.113305359E0,1.123113753E1
2.214458583E0,1.060828995E1,-4.447850647E0,2.467319183E0,1.176464428E1
2.224514583E0,1.096978821E1,-4.822521515E0,2.810256042E0,1.230814796E1
2.234571583E0,1.123339005E1,-5.194947052E0,3.116369476E0,1.276276951E1
2.244627583E0,1.134191437E1,-5.456752625E0,3.410657501E0,1.304023601E1
2.254684583E0,1.122665405E1,-5.283562775E0,3.585793304E0,1.291556079E1
2.264740583E0,1.183439026E1,-6.050717468E0,3.416794739E0,1.372364605E1
2.274797250E0,1.203153030E1,-6.091432800E0,3.068768463E0,1.383042353E1
2.284853250E0,1.169398224E1,-5.463638306E0,3.085683289E0,1.327109662E1
2.294910250E0,1.105975113E1,-4.905898132E0,2.961741028E0,1.245623705E1
2.304966250E0,1.124147324E1,-5.688620453E0,2.443967743E0,1.283370958E1
2.315023250E0,1.115899475E1,-5.852230225E0,1.861079865E0,1.273716533E1
2.325079250E0,1.057236465E1,-4.818180542E0,1.808539124E0,1.175842557E1
2.335136250E0,1.017344421E1,-4.233496399E0,1.514101410E0,1.112267783E1
2.345192250E0,9.726024628E0,-4.006268921E0,1.007854156E0,1.056700126E1
2.355249250E0,9.241033173E0,-3.821253662E0,6.252497864E-1,1.001946161E1
2.365305250E0,8.844507751E0,-3.581452332E0,4.818479919E-1,9.554281535E0
2.375362250E0,8.490194550E0,-3.342698822E0,3.785627747E-1,9.132379136E0
2.385418250E0,8.361611938E0,-2.981799316E0,1.511856079E-1,8.878656343E0
2.395475250E0,8.524473267E0,-2.533032532E0,-1.817221069E-1,8.894713104E0
2.405531250E0,8.463999023E0,-2.273172913E0,-5.001100159E-1,8.778194836E0
2.415588250E0,8.126450958E0,-2.105970612E0,-9.110055542E-1,8.444184301E0
2.425644250E0,7.887098694E0,-1.850451965E0,-1.560205536E0,8.250135732E0
2.435701250E0,7.678881683E0,-1.614841919E0,-2.262844391E0,8.166602909E0
2.445757250E0,7.631430359E0,-1.401685181E0,-2.834954681E0,8.260775915E0
2.455814250E0,7.739804993E0,-1.282832336E0,-3.378175049E0,8.541797632E0
2.465870250E0,7.515720978E0,-1.156345367E0,-3.798500977E0,8.500106240E0
2.475927250E0,7.498656464E0,-1.215921478E0,-3.318299561E0,8.289718076E0
2.485983250E0,7.713759155E0,-1.374441833E0,-3.111429749E0,8.430430934E0
2.496040250E0,8.153694305E0,-1.551673279E0,-2.668500824E0,8.718446963E0
2.506096250E0,8.495134277E0,-1.540296936E0,-2.161505127E0,8.900108171E0
2.516153250E0,8.625513153E0,-1.509311371E0,-1.520837402E0,8.887656855E0
2.526209250E0,8.946595459E0,-1.522933044E0,-9.836045837E-1,9.128437618E0
2.536266250E0,9.301657104E0,-1.757195892E0,-6.499484253E-1,9.488466433E0
2.546322250E0,9.217831421E0,-1.897304535E0,-3.718267822E-1,9.418409407E0
2.556379250E0,9.041348419E0,-1.994452515E0,-3.330574036E-1,9.264704491E0
2.566435250E0,9.158255310E0,-2.013013916E0,-2.183958435E-1,9.379422269E0
2.576492250E0,9.488618317E0,-1.936223602E0,8.816665649E-2,9.684555372E0
2.586548250E0,9.083410950E0,-2.035916290E0,8.876541138E-2,9.309199156E0
2.596605250E0,9.453740845E0,-1.954635315E0,5.703140259E-2,9.653862841E0
2.606661250E0,9.766141205E0,-1.944606171E0,4.161346436E-2,9.957948527E0
2.616718250E0,9.932145996E0,-2.074386292E0,-1.155596924E-1,1.014711568E1
2.626774250E0,1.023406815E1,-2.112257538E0,-6.462062073E-1,1.046973568E1
2.636831250E0,1.000025436E1,-2.046394501E0,-1.143771515E0,1.027136948E1
2.646887250E0,9.971963196E0,-2.053729248E0,-1.294957123E0,1.026327276E1
2.656944250E0,1.047431854E1,-1.961970062E0,-9.328601074E-1,1.069723812E1
2.667000250E0,1.063732956E1,-2.183808746E0,-3.959266663E-1,1.086639585E1
2.677057250E0,1.048584457E1,-2.491568756E0,1.972897339E-1,1.077959992E1
2.687113250E0,1.033046768E1,-2.397564240E0,1.230441284E-1,1.060575394E1
2.697170250E0,1.042222687E1,-2.113455048E0,-4.179309082E-1,1.064256413E1
2.707226250E0,1.015563126E1,-1.325493622E0,-1.150657196E0,1.030620161E1
2.717283250E0,1.034798126E1,-1.199904785E0,-9.511221313E-1,1.046064630E1
2.727339250E0,1.080153809E1,-2.024390259E0,-5.613327026E-1,1.100393000E1
2.737396250E0,1.123458755E1,-2.289189606E0,-1.194515991E-1,1.146606363E1
2.747452250E0,1.164458496E1,-1.919907532E0,3.757186890E-1,1.180777576E1
2.757509250E0,1.243149857E1,-1.711540833E0,7.167095947E-1,1.256921641E1
2.767565250E0,1.316377579E1,-1.537752228E0,4.701722717E-1,1.326162648E1
2.777622250E0,1.392299698E1,-1.108145599E0,3.854484558E-1,1.397234419E1
2.787678250E0,1.168006119E1,-1.051114197E0,-9.005273438E-1,1.176178642E1
2.797735250E0,1.001537292E1,-1.000669098E0,-1.512454834E0,1.017823919E1
2.807791250E0,1.085123474E1,-1.228944397E0,-3.811074829E-1,1.092725229E1
2.817848250E0,8.756790161E0,-1.188827820E0,-1.098565521E0,8.905140747E0
2.827904250E0,8.438551941E0,-1.240919495E0,-6.575825500E-1,8.554615997E0
2.837961250E0,7.734416199E0,-1.555565186E0,-4.505630493E-2,7.889423747E0
2.848017250E0,7.739056549E0,-1.423689423E0,-1.239422607E-1,7.869895141E0
2.858074250E0,7.540718994E0,-1.431622925E0,-1.049467621E0,7.746829638E0
2.868130250E0,6.436465302E0,-1.574575653E0,-1.810485077E0,6.869150623E0
2.878187250E0,6.481521606E0,-1.765578461E0,-1.590742035E0,6.903466510E0
2.888243250E0,6.468498688E0,-2.161954193E0,-1.223555603E0,6.929113184E0
2.898300250E0,7.039411469E0,-2.056423645E0,-1.019978943E0,7.404225083E0
2.908356250E0,8.195906525E0,-1.925595703E0,-8.705895996E-1,8.463966495E0
2.918413250E0,8.725505219E0,-1.724414063E0,-9.334588623E-1,8.943119737E0
2.928469250E0,8.671317902E0,-1.633103943E0,-8.393046570E-1,8.863589281E0
2.938526250E0,8.843310242E0,-1.700613556E0,-5.965095520E-1,9.025078733E0
2.948582250E0,9.116192780E0,-1.712438965E0,-5.439688110E-1,9.291572529E0
2.958639250E0,9.073531494E0,-1.553319855E0,-5.490582275E-1,9.221889247E0
2.968695250E0,8.898096313E0,-1.410217438E0,-6.716532898E-1,9.034154602E0
2.978752250E0,8.854836273E0,-1.578916626E0,-8.780740356E-1,9.037262702E0
2.988808250E0,8.478967896E0,-1.438957672E0,-9.195378113E-1,8.649222251E0
2.998865250E0,8.314310303E0,-1.153800659E0,-1.001118164E0,8.453475578E0
3.008921250E0,8.859326935E0,-1.023122406E0,-8.141569519E-1,8.955294788E0
3.018978250E0,9.221723328E0,-1.273252258E0,-4.293072510E-1,9.319101736E0
3.029034250E0,9.253607025E0,-1.179996185E0,-3.487747192E-1,9.335056389E0
3.039091250E0,9.391021271E0,-8.921447754E-1,-3.427871704E-1,9.439528900E0
3.049147250E0,9.561666412E0,-1.079704742E0,-2.338137817E-1,9.625273804E0
3.059204250E0,9.755662994E0,-1.618284760E0,-2.544708252E-3,9.888974290E0
3.069260250E0,1.037372772E1,-1.731150055E0,1.567240906E-1,1.051834920E1
3.079317250E0,1.092817474E1,-1.484163666E0,-2.576142883E-1,1.103150534E1
3.089373250E0,1.053419403E1,-1.475930786E0,-5.225633240E-1,1.064991493E1
3.099430250E0,1.011132339E1,-1.551074524E0,-3.838018799E-1,1.023679622E1
3.109486250E0,9.688452759E0,-1.766626282E0,-4.592449951E-1,9.858904160E0
3.119543250E0,9.418863373E0,-1.565594330E0,-3.700305176E-1,9.555260092E0
3.129599250E0,9.424102478E0,-1.589843903E0,-8.367599487E-2,9.557631130E0
3.139656250E0,9.384584656E0,-1.704954529E0,1.213975525E-1,9.538974603E0
3.149712250E0,9.193432159E0,-1.836530914E0,4.258644104E-1,9.384742999E0
3.159769250E0,9.063352661E0,-1.889969788E0,8.294252014E-1,9.295390977E0
3.169825250E0,9.076824646E0,-1.691332855E0,3.496728516E-1,9.239676595E0
3.179882250E0,9.334738312E0,-1.257385254E0,4.529580688E-1,9.429927255E0
3.189938250E0,9.483828278E0,-1.544787598E0,3.121009827E-1,9.613884467E0
3.199995250E0,9.242080994E0,-1.526675262E0,3.198847961E-1,9.372786391E0
3.210051250E0,8.944499817E0,-1.381028137E0,5.384303284E-1,9.066489007E0
3.220108250E0,8.556806030E0,-1.382824402E0,5.152285767E-1,8.683121170E0
3.230164250E0,7.937693481E0,-1.232836304E0,2.589614868E-1,8.037034541E0
3.240221250E0,7.155420227E0,-1.171463928E0,4.436773682E-1,7.264242284E0
3.250277250E0,6.352190552E0,-1.593286743E0,1.204545135E0,6.658814942E0
3.260334250E0,5.965694275E0,-2.123184814E0,1.068627777E0,6.421790036E0
3.270390250E0,5.122797089E0,-2.358495483E0,3.179388428E-1,5.648595937E0
3.280446958E0,4.600233765E0,-3.300336914E0,7.158114624E-1,5.706729404E0
3.290502958E0,4.709207153E0,-4.424648895E0,1.018032990E0,6.541447930E0
3.300559958E0,4.333488464E0,-5.588478699E0,1.504671021E0,7.230093451E0
3.310615958E0,5.442083130E0,-6.752907257E0,1.068478088E0,8.738402064E0
3.320672958E0,8.695118408E0,-7.285799103E0,6.503974915E-1,1.136270081E1
3.330728958E0,1.743693970E1,-6.386768646E0,3.760480042E0,1.894673824E1
3.340785958E0,1.839240280E1,-6.124813385E0,4.026476898E0,1.979914988E1
3.350841958E0,1.251277954E1,-6.641389160E0,3.398832092E0,1.456810768E1
3.360898958E0,1.163530426E1,-5.541775818E0,2.231559448E0,1.307942820E1
3.370954958E0,1.166479294E1,-4.876858521E0,2.028431854E0,1.280490840E1
3.381011958E0,9.061107330E0,-4.891228638E0,2.143542480E0,1.051772590E1
3.391067958E0,6.740632782E0,-5.507197723E0,1.825154572E0,8.893623911E0
3.401124958E0,6.431824951E0,-5.738466797E0,1.559157715E0,8.759528878E0
3.411180958E0,8.395591278E0,-4.932842102E0,1.896107025E0,9.920388398E0
3.421237958E0,1.023571472E1,-4.105811920E0,2.841540985E0,1.138867431E1
3.431293958E0,9.594148865E0,-4.686155090E0,3.690874786E0,1.129735804E1
3.441349958E0,8.196654968E0,-5.724396057E0,4.352498932E0,1.090404099E1
3.451406958E0,5.670508118E0,-4.604574738E0,2.154170380E0,7.615590644E0
3.461462958E0,5.990542603E0,-5.068759460E0,4.079017639E-1,7.857818208E0
3.471519958E0,6.495891724E0,-5.706433411E0,1.930984497E-1,8.648541991E0
3.481575958E0,6.499484253E0,-6.608457642E0,4.257147217E-1,9.278806010E0
3.491632958E0,6.267915802E0,-7.791746979E0,-1.437011719E-2,9.999914799E0
3.501688958E0,6.352040863E0,-7.777676239E0,7.319778442E-2,1.004221234E1
3.511745958E0,6.652615814E0,-7.697892151E0,5.191204834E-1,1.018745929E1
3.521801958E0,6.886878662E0,-7.405400391E0,1.258582764E0,1.019083329E1
3.531858958E0,6.638245697E0,-7.244485016E0,1.632505188E0,9.960619572E0
3.541914958E0,5.796096954E0,-7.271428986E0,1.807790680E0,9.472936532E0
3.551971958E0,5.376070404E0,-7.652536469E0,2.267035675E0,9.623039964E0
3.562027958E0,4.697830811E0,-8.314609680E0,2.720891876E0,9.930035300E0
3.572084958E0,4.784051514E0,-8.121062164E0,2.503244476E0,9.752180908E0
3.582140958E0,4.549339600E0,-7.412435760E0,2.243384857E0,8.981841143E0
3.592197958E0,4.562661896E0,-6.687792664E0,1.941163330E0,8.325417068E0
3.602253958E0,4.630321198E0,-5.757177887E0,1.903441772E0,7.629420830E0
3.612310958E0,5.102289734E0,-5.256918182E0,2.221230927E0,7.655221495E0
3.622366958E0,5.256618805E0,-5.903573456E0,2.652633820E0,8.337906631E0
3.632423958E0,4.876559143E0,-7.552245026E0,3.291954346E0,9.573619870E0
3.642479958E0,5.283113708E0,-9.182504883E0,3.714675293E0,1.122624153E1
3.652536958E0,4.899910583E0,-1.027927414E1,2.328707428E0,1.162305807E1
3.662592958E0,5.415588226E0,-1.109612549E1,7.144642639E-1,1.236782341E1
3.672649958E0,4.024680634E0,-1.150986511E1,-9.924362183E-1,1.223355953E1
3.682705958E0,4.481979675E0,-1.110615463E1,-8.860075378E-1,1.200915575E1
3.692762958E0,6.574178925E0,-1.060604462E1,2.341730347E0,1.269612980E1
3.702818958E0,5.335205383E0,-1.043554916E1,1.511856079E-1,1.172126102E1
3.712875958E0,3.875890045E0,-1.014290771E1,-2.621049500E-1,1.086139031E1
3.722931958E0,3.241658936E0,-9.037007446E0,1.031504974E0,9.656078850E0
3.732988958E0,4.685855713E0,-7.732021179E0,9.494755554E-1,9.090813996E0
3.743044958E0,3.892655182E0,-6.978937225E0,2.584226074E0,8.398604263E0
3.753101958E0,2.196681976E0,-6.484665070E0,6.258934479E0,9.276343761E0
3.763157958E0,4.047283630E0,-6.447841644E0,1.543739777E0,7.767773114E0
3.773214958E0,4.610562286E0,-5.958658905E0,-5.634283447E-1,7.555154005E0
3.783270958E0,4.696932678E0,-5.951922913E0,1.358275452E0,7.702692720E0
3.793327958E0,4.448449402E0,-6.374194794E0,2.188299408E0,8.075129451E0
3.803383958E0,3.778592377E0,-6.543941803E0,1.893562317E0,7.790154871E0
3.813440958E0,3.467838593E0,-6.695726166E0,1.534758453E0,7.695072248E0
3.823496958E0,3.440894623E0,-6.606362000E0,1.842219086E0,7.673170520E0
3.833553958E0,3.263363800E0,-7.080276489E0,2.217339020E0,8.105334711E0
3.843609958E0,3.674109650E0,-7.786507874E0,1.803749084E0,8.796720829E0
3.853666958E0,2.861449585E0,-5.990243225E0,1.763782196E0,6.868903498E0
3.863722958E0,3.050656128E0,-6.062542877E0,1.439107361E0,6.937720011E0
3.873779958E0,2.146236877E0,-8.887618103E0,-8.619076538E-1,9.183625269E0
3.883835958E0,1.063238983E0,-1.039498352E1,4.534071350E-1,1.045905051E1
3.893892958E0,8.442443848E-1,-1.109522736E1,1.694326630E0,1.125555691E1
3.903948958E0,1.429976349E0,-1.129461273E1,8.425978088E-1,1.141591346E1
3.914005958E0,2.149679718E0,-1.211670319E1,1.193019104E-1,1.230649633E1
3.924061958E0,3.018622742E0,-1.307965073E1,1.390458527E0,1.349528515E1
3.934118958E0,3.258873138E0,-1.527962585E1,2.891686707E0,1.588864602E1
3.944174958E0,2.569556580E0,-1.623164612E1,3.484753418E0,1.679918043E1
3.954231958E0,-1.260379028E-1,-1.521975037E1,8.274792480E-1,1.524274938E1
3.964287958E0,1.576671295E0,-1.419108948E1,-4.340972900E-2,1.427847321E1
3.974344958E0,2.839295654E0,-1.235755234E1,1.078806610E0,1.272534963E1
3.984400958E0,3.162623291E0,-1.155342453E1,1.388811951E0,1.205871482E1
3.994457958E0,2.960693207E0,-1.118174744E1,1.813478851E0,1.170836818E1
4.004513958E0,2.377056885E0,-1.056218582E1,1.754202118E0,1.096756098E1
4.014570958E0,2.783910828E0,-1.018272491E1,1.610650635E0,1.067858800E1
4.024626958E0,2.185754700E0,-7.833809509E0,1.670975189E0,8.302906305E0
4.034683958E0,1.904489594E0,-5.702691193E0,1.674418030E0,6.241109131E0
4.044739958E0,1.501377869E0,-5.316344604E0,4.400848389E-1,5.541780411E0
4.054796958E0,1.105900269E0,-5.968837738E0,6.185137939E-1,6.101852068E0
4.064852958E0,1.701212311E0,-6.969955902E0,1.295855255E0,7.290654939E0
4.074909958E0,1.627565460E0,-8.041727142E0,1.121617584E0,8.281085120E0
4.084965958E0,2.587369537E0,-8.598569183E0,1.402733002E0,9.088318491E0
4.095022958E0,2.075733490E0,-9.283095703E0,1.804347839E0,9.681952617E0
4.105078958E0,1.308279419E0,-1.068493057E1,1.048120422E0,1.081563187E1
4.115135958E0,1.530567169E0,-1.119447098E1,1.144070892E0,1.135639531E1
4.125191958E0,1.799258423E0,-1.145163620E1,1.507515106E0,1.168973500E1
4.135248958E0,7.929011536E-1,-9.989327087E0,1.562301178E0,1.014180126E1
4.145304958E0,1.073417816E0,-9.368268585E0,1.809137878E0,9.601544769E0
4.155361958E0,1.017134857E0,-9.335187378E0,1.812580719E0,9.563772036E0
4.165417958E0,8.493338013E-1,-9.357490997E0,1.629361725E0,9.536185050E0
4.175473958E0,1.068478088E0,-9.483079834E0,1.644180908E0,9.683686252E0
4.185530958E0,1.076860657E0,-9.235045624E0,1.874102783E0,9.484616903E0
4.195586958E0,1.221310272E0,-9.146579590E0,1.888772278E0,9.419075204E0
4.205643958E0,1.409468994E0,-9.153914337E0,1.812880096E0,9.437546545E0
4.215699958E0,1.300645294E0,-9.051227875E0,1.821562042E0,9.323866821E0
4.225756958E0,9.440867615E-1,-8.649014282E0,1.671723633E0,8.859537673E0
4.235812958E0,5.734574890E-1,-9.043893127E0,1.922302551E0,9.263698154E0
4.245869958E0,2.005828857E-1,-8.480614471E0,1.623823242E0,8.637005108E0
4.255925958E0,3.350033569E-1,-8.511001282E0,2.010618896E0,8.751683176E0
4.265982958E0,7.402107239E-1,-8.093070374E0,2.141147461E0,8.404178273E0
4.276038958E0,1.149010620E0,-7.388784943E0,1.923799438E0,7.721099184E0
4.286095958E0,1.159937897E0,-6.799161072E0,1.696272583E0,7.102914041E0
4.296151958E0,9.186396790E-1,-6.249653778E0,1.584604797E0,6.512529737E0
4.306208958E0,7.701484680E-1,-5.935008087E0,1.906585236E0,6.281123858E0
4.316264958E0,1.436562653E0,-5.729335785E0,2.672991486E0,6.483354400E0
4.326321958E0,1.115480347E0,-5.299729156E0,2.028581543E0,5.783300841E0
4.336377958E0,4.303550720E-1,-6.040089569E0,1.901795197E0,6.347023906E0
4.346434958E0,3.457809448E-2,-6.812333679E0,1.838925934E0,7.056254983E0
4.356490958E0,5.766009521E-1,-8.120463409E0,2.371069336E-1,8.144360892E0
4.366547958E0,6.357279968E-1,-8.229436798E0,5.086422729E-1,8.269612873E0
4.376603958E0,6.438111877E-1,-9.549841003E0,5.763015747E-1,9.588851836E0
4.386660958E0,4.602928162E-1,-1.014141083E1,1.138532410E0,1.021549505E1
4.396716958E0,6.475534058E-1,-1.055619827E1,2.146985321E0,1.079176507E1
4.406773958E0,1.258882141E-1,-1.125689117E1,1.170715485E0,1.131830471E1
4.416829958E0,-5.089416504E-2,-1.120420074E1,6.245013428E-1,1.122170693E1
4.426886958E0,-3.885919189E-1,-1.145897095E1,5.813909912E-1,1.148028895E1
4.436942958E0,5.044509888E-2,-1.158934982E1,1.469943237E0,1.168230744E1
4.446999958E0,1.271006927E0,-1.037956558E1,1.652264099E0,1.058682280E1
4.457055958E0,1.836680603E0,-9.738448792E0,1.222208405E0,9.985217769E0
4.467112958E0,1.578317871E0,-9.185199280E0,8.762777710E-1,9.360920673E0
4.477168958E0,9.577084351E-1,-9.450148315E0,7.030879211E-1,9.524538900E0
4.487225958E0,5.712121582E-1,-8.291707306E0,5.566923523E-1,8.329981978E0
4.497281958E0,-2.893482971E-1,-7.655081177E0,2.683918762E-1,7.665247841E0
4.507338958E0,-7.047344971E-1,-8.491392059E0,-6.297404480E-1,8.543826008E0
4.517394958E0,9.669891357E-2,-1.029813492E1,-5.617817688E-1,1.031389995E1
4.527451958E0,-2.486928406E0,-7.593559113E0,1.973346405E0,8.230495060E0
4.537507958E0,-2.640808411E0,-7.834408264E0,-6.724017334E-1,8.294814404E0
4.547564958E0,-1.578916626E0,-7.960595856E0,-2.662363586E0,8.541208577E0
4.557620958E0,-2.140548706E0,-7.194938049E0,-2.008074188E0,7.770549803E0
4.567677958E0,-4.717889099E0,-9.549841003E0,-1.892813873E0,1.081853433E1
4.577733958E0,-3.214415588E0,-7.450007629E0,2.279759216E-1,8.117084099E0
4.587790958E0,-1.564845886E0,-6.084397430E0,2.394271088E0,6.723181448E0
4.597846958E0,-6.336323547E-1,-1.479119156E1,4.252656555E0,1.540343875E1
4.607903958E0,2.119592285E-1,-3.345438126E1,3.360511780E0,3.362340838E1
4.617959958E0,5.798941040E-1,-3.405837524E1,1.335373077E0,3.408947671E1
4.628016958E0,2.739453278E0,-1.348590591E1,-8.461903381E-1,1.378732391E1
4.638072958E0,1.999092865E0,-8.500523071E0,-2.883304138E0,9.196124593E0
4.648129958E0,-2.001338196E0,-1.082653610E1,-2.414479065E0,1.127159916E1
4.658185958E0,-3.563339996E0,-1.027538223E1,-3.938759308E0,1.156696576E1
4.668242958E0,-2.545007629E0,-9.134005737E0,-4.625231781E0,1.054987648E1
4.678298958E0,-1.695524139E0,-8.575217743E0,-3.804937592E0,9.533452235E0
4.688355958E0,-1.712289276E0,-9.526788940E0,-2.220183105E0,9.930803346E0
4.698411958E0,-1.468895416E0,-9.569899292E0,-9.035211182E-1,9.724041167E0
4.708467958E0,-8.568182373E-1,-7.778873749E0,-4.456233215E-1,7.838596458E0
4.718524958E0,-2.153122559E0,-9.046138458E0,1.333726501E-1,9.299803547E0
4.728580958E0,-2.271676025E0,-1.012030472E1,4.475692749E-1,1.038178201E1
4.738637958E0,-2.330503693E0,-1.070364166E1,5.599855042E-1,1.096871807E1
4.748693958E0,-2.431693268E0,-1.020023849E1,6.261479187E-1,1.050476362E1
4.758750958E0,-2.685116272E0,-9.925859070E0,4.068539429E-1,1.029067820E1
4.768806958E0,-2.486928406E0,-9.469907227E0,-2.374063110E-1,9.793891848E0
4.778863958E0,-2.094444580E0,-8.889713745E0,-7.929011536E-1,9.167464252E0
4.788919958E0,-1.554367676E0,-7.934250641E0,-1.080004120E0,8.156886722E0
4.798976958E0,-2.164798279E0,-8.798104248E0,-9.779164124E-1,9.113139440E0
4.809032958E0,-1.413360901E0,-9.590556335E0,-9.455836487E-1,9.740148269E0
4.819089958E0,-1.948947144E0,-9.970915375E0,-7.521858215E-1,1.018741046E1
4.829145958E0,-2.590063934E0,-1.056592804E1,-6.421646118E-1,1.089768975E1
4.839202958E0,-1.296004944E0,-1.008018814E1,-1.528321838E0,1.027743107E1
4.849258958E0,-6.508465576E-1,-1.000369720E1,-2.144290924E0,1.025161171E1
4.859315958E0,-7.827223206E-1,-1.012225067E1,-2.250719604E0,1.039895916E1
4.869371958E0,-9.898915100E-1,-1.007300308E1,-2.215093689E0,1.036107699E1
4.879428958E0,-1.340911560E0,-9.961484985E0,-1.948348389E0,1.023842216E1
4.889484958E0,-1.813029785E0,-9.792785797E0,-1.618284760E0,1.008982538E1
4.899541958E0,-2.177072754E0,-9.660161591E0,-1.067579956E0,9.959824029E0
4.909597958E0,-2.303260345E0,-9.567504272E0,-6.206094360E-1,9.860390575E0
4.919654958E0,-2.282752991E0,-9.404942322E0,-1.936972046E-1,9.679949375E0
4.929710958E0,-2.150577850E0,-9.326804810E0,-8.981323242E-4,9.571534561E0
4.939767958E0,-2.018851776E0,-9.327253876E0,-1.948947144E-1,9.545229767E0
4.949823958E0,-2.031725006E0,-9.265582123E0,-6.583309937E-1,9.508539229E0
4.959880958E0,-1.860331421E0,-9.188791809E0,-1.099463654E0,9.439467582E0
4.969936958E0,-1.660347290E0,-9.126221924E0,-1.417402496E0,9.383693812E0
4.979993958E0,-1.551224213E0,-9.130113831E0,-1.562151489E0,9.391783238E0
4.990049958E0,-1.653012543E0,-9.125473480E0,-1.589843903E0,9.409267790E0
5.000106958E0,-1.654958496E0,-8.946745148E0,-1.577270050E0,9.234225315E0
5.010162958E0,-1.487456818E0,-8.733438721E0,-1.473535767E0,8.980912388E0
5.020219958E0,-1.376387787E0,-8.731941833E0,-1.205443268E0,8.921566286E0
5.030275958E0,-1.403481445E0,-8.809929657E0,-8.698411560E-1,8.963327751E0
5.040332958E0,-1.578916626E0,-8.871152344E0,-6.557862854E-1,9.034399663E0
5.050388958E0,-1.844015350E0,-8.924890594E0,-6.065386963E-1,9.133561952E0
5.060445958E0,-2.104024658E0,-9.010811920E0,-6.779402161E-1,9.277998392E0
5.070501958E0,-2.252515869E0,-9.098230133E0,-8.092172241E-1,9.407786765E0
5.080558958E0,-2.376757507E0,-9.210496674E0,-9.469308472E-1,9.559231311E0
5.090614958E0,-2.458038483E0,-9.366023254E0,-1.057251434E0,9.740745627E0
5.100670958E0,-2.574945374E0,-9.659712524E0,-1.020428009E0,1.004896328E1
5.110727958E0,-2.349514160E0,-9.542206879E0,-8.854087830E-1,9.867009558E0
5.120783958E0,-1.917961578E0,-9.286089478E0,-8.355624390E-1,9.518833909E0
5.130840958E0,-1.832339630E0,-9.139394531E0,-8.367599487E-1,9.358748214E0
5.140896958E0,-1.745819550E0,-8.849597168E0,-8.728349304E-1,9.062289818E0
5.150953958E0,-1.687141571E0,-8.998088379E0,-6.833290100E-1,9.180358364E0
5.161009958E0,-2.084864502E0,-8.912765808E0,-2.953358459E-1,9.158126315E0
5.171066958E0,-2.487676849E0,-8.575966187E0,-1.823208618E-1,8.931347773E0
5.181122958E0,-2.366428986E0,-8.693022766E0,-6.382727051E-1,9.031944586E0
5.191179958E0,-1.924847260E0,-9.479936371E0,-1.266965332E0,9.755994656E0
5.201235958E0,-1.196012878E0,-1.042462189E1,-1.831740875E0,1.065168827E1
5.211292958E0,-8.681945801E-1,-1.153321655E1,-1.757794647E0,1.169866180E1
5.221348958E0,-8.595126343E-1,-1.192210785E1,-1.341360626E0,1.202807823E1
5.231405958E0,-1.234333191E0,-1.129012207E1,-3.565585327E-1,1.136299119E1
5.241461958E0,-1.462758179E0,-1.043001068E1,-3.863465881E-1,1.053916733E1
5.251518958E0,-1.537752228E0,-9.609716492E0,-1.190025330E-1,9.732702326E0
5.261574958E0,-1.312470703E0,-9.184301147E0,-7.200027466E-2,9.277885047E0
5.271631958E0,-1.451681213E0,-9.307345276E0,3.787124634E-1,9.427485219E0
5.281688583E0,-1.582209778E0,-1.005788452E1,5.851332092E-1,1.019837289E1
5.291745583E0,-2.047142944E0,-1.077788727E1,2.582130432E-1,1.097361937E1
5.301801583E0,-1.778002625E0,-1.095796280E1,-9.092092896E-1,1.113844260E1
5.311858583E0,-1.340312805E0,-1.043420197E1,-1.697021027E0,1.065593212E1
5.321914583E0,-8.255332947E-1,-9.673483887E0,-1.867217102E0,9.886571470E0
5.331971583E0,-8.637039185E-2,-9.007967834E0,-1.871857452E0,9.200804023E0
5.342027583E0,8.508306885E-1,-8.542585602E0,-1.493444366E0,8.713785498E0
5.352084583E0,1.467997284E0,-8.471932526E0,-6.307882690E-1,8.621284741E0
5.362140583E0,1.632804565E0,-8.507259064E0,1.213975525E-1,8.663385302E0
5.372197583E0,1.267264709E0,-8.904532928E0,4.781057739E-1,9.006955737E0
5.382253583E0,3.561094666E-1,-9.671537933E0,3.697311401E-1,9.685151577E0
5.392310583E0,-6.732998657E-1,-1.047865952E1,-3.137475586E-1,1.050495481E1
5.402366583E0,-1.472637634E0,-1.092039093E1,-8.403524780E-1,1.105123486E1
5.412423583E0,-1.890867920E0,-1.084824097E1,-9.632469177E-1,1.105384812E1
5.422479583E0,-1.840572510E0,-1.034349060E1,-9.767189026E-1,1.055127882E1
5.432536583E0,-1.170266418E0,-9.669591980E0,-8.978329468E-1,9.781443480E0
5.442592583E0,-3.433859253E-1,-9.106612701E0,-4.752616882E-1,9.125468890E0
5.452648583E0,2.390528870E-1,-8.871302032E0,1.483415222E-1,8.875762009E0
5.462705583E0,4.962181091E-1,-9.029223633E0,5.638774109E-1,9.060412218E0
5.472761583E0,9.864486694E-2,-9.462273102E0,5.507048035E-1,9.478798386E0
5.482818583E0,-6.358776855E-1,-9.954898682E0,1.869612122E-1,9.976938543E0
5.492874583E0,-1.393751678E0,-1.037717056E1,-3.037184143E-1,1.047475334E1
5.502931583E0,-1.837429047E0,-1.051982391E1,-7.538323975E-1,1.070565757E1
5.512987583E0,-1.786385193E0,-1.051353699E1,-1.001716919E0,1.071116561E1
5.523044583E0,-1.341809692E0,-1.039483383E1,-1.082997894E0,1.053688322E1
5.533100583E0,-6.614744568E-1,-1.006896149E1,-1.067130890E0,1.014693561E1
5.543157583E0,-9.580078125E-2,-9.696236572E0,-1.038989410E0,9.752214131E0
5.553213583E0,3.523672485E-1,-9.418563995E0,-1.105750580E0,9.489794242E0
5.563270583E0,6.469546509E-1,-9.341474304E0,-1.244512024E0,9.446189850E0
5.573326583E0,7.497908020E-1,-9.447154541E0,-1.259929962E0,9.560247836E0
5.583383583E0,5.641767883E-1,-9.618248749E0,-1.159339142E0,9.704281101E0
5.593439583E0,7.484436035E-2,-9.845625916E0,-1.014590149E0,9.898047510E0
5.603496583E0,-3.897894287E-1,-1.010114456E1,-8.655001831E-1,1.014564674E1
5.613552583E0,-6.752458191E-1,-1.022493713E1,-7.204518127E-1,1.027250442E1
5.623609583E0,-8.081694031E-1,-1.019784348E1,-6.114784241E-1,1.024807568E1
5.633665583E0,-7.499404907E-1,-1.003183868E1,-5.516029358E-1,1.007494238E1
5.643722583E0,-6.619235229E-1,-9.848320312E0,-5.264552307E-1,9.884569330E0
5.653778583E0,-5.108876038E-1,-9.753567352E0,-5.706134033E-1,9.783592484E0
5.663835583E0,-3.746708679E-1,-9.704768829E0,-6.409671021E-1,9.733126688E0
5.673891583E0,-3.613485718E-1,-9.697434082E0,-7.256909180E-1,9.731260344E0
5.683948583E0,-3.890409851E-1,-9.725874939E0,-7.961943054E-1,9.766162071E0
5.694004583E0,-3.999682617E-1,-9.784852295E0,-8.403524780E-1,9.829013243E0
5.704061583E0,-4.965174866E-1,-9.891879730E0,-8.063731384E-1,9.937104802E0
5.714117583E0,-5.783972168E-1,-9.946665802E0,-7.042854309E-1,9.988329284E0
5.724174583E0,-6.782395935E-1,-9.967023468E0,-6.120771790E-1,1.000880633E1
5.734230583E0,-7.497908020E-1,-9.953252106E0,-5.572911072E-1,9.996998905E0
5.744286583E0,-7.436535645E-1,-9.888885956E0,-4.888833618E-1,9.928851545E0
5.754343583E0,-7.497908020E-1,-9.801767120E0,-3.980223083E-1,9.838457536E0
5.764399583E0,-7.126679993E-1,-9.719438324E0,-2.775228882E-1,9.749481831E0
5.774456583E0,-6.879693604E-1,-9.666598206E0,-2.065704346E-1,9.693249922E0
5.784512583E0,-6.960525513E-1,-9.664801941E0,-1.577719116E-1,9.691118495E0
5.794569583E0,-7.719447327E-1,-9.717791748E0,-1.190025330E-1,9.749130050E0
5.804625583E0,-8.590635681E-1,-9.779613190E0,-7.379653931E-2,9.817549098E0
5.814682583E0,-9.216334534E-1,-9.812544708E0,-8.008346558E-2,9.856056779E0
5.824738583E0,-1.020577698E0,-9.813742218E0,-7.694000244E-2,9.866966855E0
5.834795583E0,-1.099912720E0,-9.787546692E0,-7.484436035E-2,9.849440589E0
5.844851583E0,-1.171164551E0,-9.712253265E0,-1.022373962E-1,9.783145833E0
5.854908583E0,-1.117276611E0,-9.653425598E0,-1.603166199E-1,9.719188969E0
5.864964583E0,-1.017733612E0,-9.642198944E0,-2.128573608E-1,9.698097259E0
5.875021583E0,-8.870553589E-1,-9.673783264E0,-2.665956116E-1,9.718025678E0
5.885077583E0,-7.451504517E-1,-9.726773071E0,-2.968327332E-1,9.759788586E0
5.895134583E0,-6.631210327E-1,-9.790690155E0,-2.793191528E-1,9.817095416E0
5.905190583E0,-5.800437927E-1,-9.834548950E0,-2.192939758E-1,9.854080054E0
5.915247583E0,-5.801934814E-1,-9.853110352E0,-9.415420532E-2,9.870626783E0
5.925303583E0,-6.596781921E-1,-9.817334747E0,8.981323242E-3,9.839477502E0
5.935360583E0,-7.587721252E-1,-9.799821167E0,5.628295898E-2,9.829313191E0
5.945416583E0,-8.421487427E-1,-9.807155914E0,4.296066284E-2,9.843341265E0
5.955473583E0,-9.075627136E-1,-9.791288910E0,2.020797729E-2,9.833281088E0
5.965529583E0,-9.262738037E-1,-9.797126770E0,-5.239105225E-3,9.840818236E0
5.975586583E0,-9.172924805E-1,-9.784253540E0,-4.610412598E-2,9.827266579E0
5.985642583E0,-9.104067993E-1,-9.800270233E0,-1.077758789E-1,9.843056071E0
5.995698583E0,-9.035211182E-1,-9.820178833E0,-1.414558411E-1,9.862670656E0
6.005755583E0,-9.559121704E-1,-9.823921051E0,-1.296304321E-1,9.871169989E0
6.015811583E0,-1.004411316E0,-9.782457275E0,-1.383123779E-1,9.834858553E0
6.025868583E0,-1.030756531E0,-9.747130737E0,-1.395098877E-1,9.802473139E0
6.035924583E0,-1.033450928E0,-9.700876923E0,-9.894424438E-2,9.756271001E0
6.045981583E0,-1.052611084E0,-9.689350891E0,-9.490264893E-2,9.746820882E0
6.056037583E0,-1.034199371E0,-9.677375793E0,-8.592132568E-2,9.732859449E0
6.066094583E0,-1.024918671E0,-9.701924744E0,-8.771759033E-2,9.756305468E0
6.076150583E0,-1.009351044E0,-9.732461243E0,-8.652008057E-2,9.785043541E0
6.086207583E0,-1.003213806E0,-9.805209961E0,-6.556365967E-2,9.856615997E0
6.096263583E0,-1.011746063E0,-9.844278717E0,-4.011657715E-2,9.896214574E0
6.106320583E0,-1.033899994E0,-9.857301636E0,-4.071533203E-2,9.911458141E0
6.116376583E0,-1.040336609E0,-9.830207977E0,-2.544708252E-2,9.885137161E0
6.126433583E0,-1.033301239E0,-9.792486420E0,1.017883301E-2,9.846857638E0
6.136489583E0,-1.011746063E0,-9.761800232E0,2.888992310E-2,9.814133099E0
6.146546583E0,-9.660910034E-1,-9.722581787E0,9.729766846E-3,9.770466883E0
6.156602583E0,-9.544152832E-1,-9.728120270E0,9.430389404E-3,9.774831019E0
6.166659583E0,-9.119036865E-1,-9.726174316E0,2.589614868E-2,9.768864099E0
6.176715583E0,-8.798703003E-1,-9.715247040E0,3.382965088E-2,9.755067464E0
6.186772583E0,-8.708889771E-1,-9.751771088E0,5.673202515E-2,9.790745910E0
6.196828583E0,-8.625064087E-1,-9.771829376E0,9.505233765E-2,9.810280404E0
6.206885583E0,-8.440946960E-1,-9.781858521E0,1.112187195E-1,9.818840134E0
6.216941583E0,-8.283773804E-1,-9.807604980E0,9.535171509E-2,9.842988189E0
6.226997583E0,-7.969427490E-1,-9.781708832E0,8.382568359E-2,9.814477681E0
6.237054583E0,-7.694000244E-1,-9.775421906E0,8.083190918E-2,9.805987132E0
6.247110583E0,-7.382647705E-1,-9.771380310E0,9.056167603E-2,9.799648435E0
6.257167583E0,-7.162605286E-1,-9.760003967E0,1.175056458E-1,9.786956328E0
6.267223583E0,-7.191046143E-1,-9.743538208E0,1.474433899E-1,9.771150793E0
6.277280583E0,-7.458988953E-1,-9.716294861E0,1.372645569E-1,9.745850016E0
6.287336583E0,-7.629634094E-1,-9.687105560E0,1.347198486E-1,9.718038729E0
6.297393583E0,-7.408094788E-1,-9.693542175E0,1.347198486E-1,9.722741796E0
6.307449583E0,-6.999444580E-1,-9.723030853E0,1.197509766E-1,9.748927711E0
6.317506583E0,-7.195536804E-1,-9.776619415E0,1.017883301E-1,9.803591462E0
6.327562583E0,-7.500901794E-1,-9.793085175E0,8.981323242E-2,9.822179948E0
6.337619583E0,-7.614665222E-1,-9.795629883E0,5.284011841E-2,9.825323819E0
6.347675583E0,-7.795788574E-1,-9.796078949E0,-1.556762695E-2,9.827062039E0
6.357732583E0,-7.587721252E-1,-9.762997742E0,-5.733078003E-2,9.792606745E0
6.367788583E0,-7.345225525E-1,-9.749825134E0,-7.768844604E-2,9.777762987E0
6.377845583E0,-7.140151978E-1,-9.746232605E0,-6.780899048E-2,9.772587465E0
6.387901583E0,-7.325765991E-1,-9.752220154E0,-3.427871704E-2,9.779756716E0
6.397958583E0,-7.786807251E-1,-9.748178558E0,-2.694396973E-3,9.779229834E0
6.408014583E0,-7.890092468E-1,-9.752519531E0,-2.679428101E-2,9.784420817E0
6.418071583E0,-8.178991699E-1,-9.760752411E0,-6.691085815E-2,9.795188806E0
6.428127583E0,-8.339158630E-1,-9.759255524E0,-7.858657837E-2,9.795134501E0
6.438184583E0,-8.213420105E-1,-9.754914551E0,-9.145980835E-2,9.789858298E0
6.448240583E0,-8.146060181E-1,-9.761201477E0,-7.454498291E-2,9.795417000E0
6.458296583E0,-7.933502197E-1,-9.744586029E0,-4.355941772E-2,9.776924817E0
6.468353583E0,-7.981402588E-1,-9.747729492E0,-5.164260864E-2,9.780486955E0
6.478409583E0,-8.328680420E-1,-9.754166107E0,-5.433700562E-2,9.789809913E0
6.488466583E0,-8.783734131E-1,-9.759704590E0,-5.269042969E-2,9.799293332E0
6.498522583E0,-9.319619751E-1,-9.772278442E0,-6.885681152E-2,9.816858985E0
6.508579583E0,-9.602531433E-1,-9.764045563E0,-8.322692871E-2,9.811503380E0
6.518635583E0,-9.876461792E-1,-9.768087158E0,-1.013392639E-1,9.818413383E0
6.528692583E0,-9.946815491E-1,-9.755962372E0,-1.264869690E-1,9.807353982E0
6.538748583E0,-9.882449341E-1,-9.734107819E0,-1.347198486E-1,9.785071922E0
6.548805583E0,-9.635462952E-1,-9.720935211E0,-1.212478638E-1,9.769324638E0
6.558861583E0,-9.512718201E-1,-9.732161865E0,-9.759704590E-2,9.779029493E0
6.568918583E0,-9.279203796E-1,-9.734856262E0,-1.092727661E-1,9.779591158E0
6.578974583E0,-9.328601074E-1,-9.739945679E0,-1.010398865E-1,9.785038521E0
6.589031583E0,-9.313632202E-1,-9.740245056E0,-9.624984741E-2,9.785145642E0
6.599087583E0,-9.023236084E-1,-9.754914551E0,-1.389111328E-1,9.797542656E0
6.609144583E0,-8.731343079E-1,-9.764494629E0,-1.514849854E-1,9.804624755E0
6.619200583E0,-8.707392883E-1,-9.751022644E0,-1.311273193E-1,9.790700888E0
6.629257583E0,-8.584648132E-1,-9.737251282E0,-1.275347900E-1,9.775852366E0
6.639313583E0,-8.804690552E-1,-9.746382294E0,-1.254391479E-1,9.786875321E0
6.649370583E0,-8.740324402E-1,-9.734706573E0,-1.125659180E-1,9.774513587E0
6.659426583E0,-9.071136475E-1,-9.755064240E0,-9.954299927E-2,9.797654939E0
6.669482583E0,-9.285191345E-1,-9.762548676E0,-1.187031555E-1,9.807323532E0
6.679539583E0,-9.126521301E-1,-9.743987274E0,-1.248403931E-1,9.787431074E0
6.689595583E0,-8.979826355E-1,-9.743089142E0,-1.246907043E-1,9.785177904E0
6.699652583E0,-9.136999512E-1,-9.738299103E0,-1.586700439E-1,9.782356219E0
6.709708583E0,-8.946894836E-1,-9.723180542E0,-1.547781372E-1,9.765483367E0
6.719765583E0,-8.801696777E-1,-9.735305328E0,-1.499880981E-1,9.776163098E0
6.729821583E0,-9.005273438E-1,-9.748178558E0,-1.396595764E-1,9.790681258E0
6.739878583E0,-9.246272278E-1,-9.753567352E0,-1.134640503E-1,9.797953138E0
6.749934583E0,-9.514215088E-1,-9.753567352E0,-7.409591675E-2,9.800141284E0
6.759991583E0,-9.767189026E-1,-9.752818909E0,-5.418731689E-2,9.801754575E0
6.770047583E0,-1.006057892E0,-9.748328247E0,-4.445755005E-2,9.800205741E0
6.780104583E0,-1.016985168E0,-9.728719025E0,-2.050735474E-2,9.781751032E0
6.790160583E0,-9.662406921E-1,-9.717043304E0,-2.275268555E-2,9.764992030E0
6.800217583E0,-9.228309631E-1,-9.727521515E0,-1.990859985E-2,9.771217333E0
6.810273583E0,-9.068142700E-1,-9.745184784E0,-3.876937866E-2,9.787361323E0
6.820330583E0,-8.921447754E-1,-9.767638092E0,-6.526428223E-2,9.808513426E0
6.830386583E0,-8.687933350E-1,-9.782457275E0,-7.125183105E-2,9.821219325E0
6.840443583E0,-8.439450073E-1,-9.787696381E0,-8.038284302E-2,9.824342472E0
6.850499583E0,-8.476872253E-1,-9.785451050E0,-5.388793945E-2,9.822246677E0
6.860555583E0,-8.402027893E-1,-9.770332489E0,-2.978805542E-2,9.806437936E0
6.870612583E0,-8.668473816E-1,-9.748927002E0,2.544708252E-3,9.787390283E0
6.880668583E0,-9.313632202E-1,-9.733808441E0,9.280700684E-3,9.778269292E0
6.890725583E0,-9.668394470E-1,-9.724228363E0,-8.083190918E-3,9.772177910E0
6.900781583E0,-9.843530273E-1,-9.724228363E0,-3.098556519E-2,9.773971979E0
6.910838583E0,-9.568103027E-1,-9.720037079E0,-4.760101318E-2,9.767132262E0
6.920894583E0,-9.346563721E-1,-9.738748169E0,-6.541397095E-2,9.783714909E0
6.930951583E0,-9.214837646E-1,-9.762548676E0,-4.760101318E-2,9.806057048E0
6.941007583E0,-8.776249695E-1,-9.770631866E0,-4.071533203E-2,9.810052517E0
6.951064583E0,-8.497828674E-1,-9.767039337E0,-3.308120728E-2,9.803993202E0
6.961120583E0,-8.734336853E-1,-9.755064240E0,-1.362167358E-2,9.794097726E0
6.971177583E0,-9.120533752E-1,-9.746382294E0,-1.122665405E-2,9.788970079E0
6.981233583E0,-9.116043091E-1,-9.743388519E0,-4.550537109E-2,9.786046852E0
6.991290583E0,-9.201365662E-1,-9.738897858E0,-5.343887329E-2,9.782414758E0
7.001346583E0,-9.264234924E-1,-9.742789764E0,-2.080673218E-2,9.786758697E0
7.011403583E0,-9.171427917E-1,-9.741592255E0,-1.526824951E-2,9.784682094E0
7.021459583E0,-9.186396790E-1,-9.741741943E0,2.095642090E-3,9.784959854E0
7.031515583E0,-9.139993286E-1,-9.749226379E0,1.960922241E-2,9.791996441E0
7.041572583E0,-9.207353210E-1,-9.749226379E0,3.038681030E-2,9.792654997E0
7.051628583E0,-9.189390564E-1,-9.743089142E0,2.649490356E-2,9.786364851E0
7.061685583E0,-8.867559814E-1,-9.755662994E0,4.041595459E-3,9.795882450E0
7.071741583E0,-8.939410400E-1,-9.751920776E0,-7.783813477E-3,9.792811139E0
7.081798583E0,-9.165440369E-1,-9.748477936E0,-1.197509766E-3,9.791469577E0
7.091854583E0,-9.583071899E-1,-9.740694122E0,1.077758789E-2,9.787726539E0
7.101911583E0,-9.946815491E-1,-9.728419647E0,2.095642090E-3,9.779138234E0
7.111967583E0,-9.978250122E-1,-9.713600464E0,3.891906738E-3,9.764717296E0
7.122024583E0,-9.895921326E-1,-9.700128479E0,9.879455566E-3,9.750481152E0
7.132080583E0,-9.768685913E-1,-9.688901825E0,2.784210205E-2,9.738062744E0
7.142137583E0,-9.827064514E-1,-9.671837311E0,7.170089722E-2,9.721897446E0
7.152193583E0,-1.010847931E0,-9.658964081E0,1.127156067E-1,9.712368684E0
7.162250583E0,-1.058448944E0,-9.677375793E0,1.326242065E-1,9.735990222E0
7.172306583E0,-1.095871124E0,-9.713001709E0,1.013392639E-1,9.775152447E0
7.182363583E0,-1.116827545E0,-9.721234589E0,5.194198608E-2,9.785315716E0
7.192419583E0,-1.099763031E0,-9.712702332E0,2.170486450E-2,9.774790863E0
7.202476583E0,-1.028211823E0,-9.671238556E0,2.350112915E-2,9.725771284E0
7.212532583E0,-9.496252441E-1,-9.629625092E0,4.011657715E-2,9.676418596E0
7.222588583E0,-9.271719360E-1,-9.619446259E0,1.008901978E-1,9.664552393E0
7.232645583E0,-9.518705750E-1,-9.673783264E0,8.592132568E-2,9.720880758E0
7.242701583E0,-9.244775391E-1,-9.744735718E0,1.496887207E-4,9.788489820E0
7.252758583E0,-9.023236084E-1,-9.811047821E0,-9.654922485E-2,9.852926925E0
7.262814583E0,-8.972341919E-1,-9.913434906E0,-1.267863464E-1,9.954762459E0
7.272871583E0,-8.482859802E-1,-9.985884247E0,-1.519340515E-1,1.002300141E1
7.282926958E0,-8.117619324E-1,-9.986333313E0,-2.008822632E-1,1.002128555E1
7.292983958E0,-7.659571838E-1,-9.919572144E0,-2.435435486E-1,9.952080957E0
7.303039958E0,-7.502398682E-1,-9.808652802E0,-2.679428101E-1,9.840951325E0
7.313096958E0,-7.662565613E-1,-9.705068207E0,-2.633024597E-1,9.738830844E0
7.323152958E0,-8.024812317E-1,-9.674831085E0,-2.953358459E-1,9.712546315E0
7.333209958E0,-8.261320496E-1,-9.676178284E0,-3.842509460E-1,9.718979840E0
7.343265958E0,-8.096662903E-1,-9.718689880E0,-4.764591980E-1,9.763990263E0
7.353322958E0,-7.812254333E-1,-9.806407471E0,-5.242098999E-1,9.851433230E0
7.363378958E0,-7.273374939E-1,-9.887987823E0,-4.962181091E-1,9.927112140E0
7.373434958E0,-6.831793213E-1,-9.953401794E0,-3.936813354E-1,9.984584431E0
7.383491958E0,-6.589297485E-1,-9.952653351E0,-2.537223816E-1,9.977668675E0
7.393547958E0,-6.875202942E-1,-9.931098175E0,-1.402583313E-1,9.955855941E0
7.403604958E0,-7.421566772E-1,-9.927505646E0,-9.205856323E-2,9.955633564E0
7.413660958E0,-7.599696350E-1,-9.914033661E0,-1.233435059E-1,9.943884095E0
7.423717958E0,-7.768844604E-1,-9.899214478E0,-1.775308228E-1,9.931239295E0
7.433773958E0,-7.780819702E-1,-9.912387085E0,-2.137554932E-1,9.945175749E0
7.443830958E0,-7.753875732E-1,-9.927056580E0,-2.478845215E-1,9.960377752E0
7.453886958E0,-7.723937988E-1,-9.899663544E0,-2.571652222E-1,9.933079302E0
7.463943958E0,-7.382647705E-1,-9.848470001E0,-2.145039368E-1,9.878431463E0
7.473999958E0,-6.530918884E-1,-9.811646576E0,-1.383123779E-1,9.834331083E0
7.484056958E0,-6.018983459E-1,-9.784403229E0,-5.493576050E-2,9.803052897E0
7.494112958E0,-5.617817688E-1,-9.757459259E0,-1.392105103E-2,9.773627972E0
7.504169958E0,-5.367837524E-1,-9.729617157E0,-1.631607056E-2,9.744426768E0
7.514225958E0,-5.025050354E-1,-9.723928986E0,-3.951782227E-2,9.736984538E0
7.524282958E0,-4.716691589E-1,-9.746681671E0,-9.744735718E-2,9.758574249E0
7.534338958E0,-4.258644104E-1,-9.781708832E0,-1.645079041E-1,9.792356765E0
7.544394958E0,-3.610491943E-1,-9.821226654E0,-2.112107849E-1,9.830130188E0
7.554451958E0,-2.971321106E-1,-9.844129028E0,-2.080673218E-1,9.850809907E0
7.564507958E0,-2.604583740E-1,-9.858798523E0,-1.963916016E-1,9.864193659E0
7.574564958E0,-2.478845215E-1,-9.871222687E0,-1.956431580E-1,9.876272592E0
7.584620958E0,-2.826123047E-1,-9.880952454E0,-2.058219910E-1,9.887135773E0
7.594677958E0,-2.842588806E-1,-9.881251831E0,-2.501298523E-1,9.888503719E0
7.604733958E0,-2.871029663E-1,-9.852960663E0,-2.850073242E-1,9.861262146E0
7.614790958E0,-2.894979858E-1,-9.822873230E0,-2.866539001E-1,9.831318225E0
7.624846958E0,-2.749781799E-1,-9.781110077E0,-2.543211365E-1,9.788279041E0
7.634903958E0,-2.523751831E-1,-9.770482178E0,-2.327659607E-1,9.776512426E0
7.644959958E0,-2.251318359E-1,-9.780960388E0,-1.911524963E-1,9.785418220E0
7.655016958E0,-1.829196167E-1,-9.816436615E0,-1.474433899E-1,9.819247780E0
7.665072958E0,-1.104702759E-1,-9.863887939E0,-1.001417542E-1,9.865014817E0
7.675129958E0,-1.188528442E-1,-9.906100159E0,8.981323242E-4,9.906813169E0
7.685185958E0,-1.683998108E-1,-9.881850586E0,1.258882141E-1,9.884087077E0
7.695241958E0,-2.962339783E-1,-9.873468018E0,1.742376709E-1,9.879447557E0
7.705298958E0,-4.266128540E-1,-9.832453308E0,1.929487610E-1,9.843595167E0
7.715354958E0,-5.646258545E-1,-9.776170349E0,2.335144043E-1,9.795245685E0
7.725411958E0,-6.966513062E-1,-9.747579803E0,2.508782959E-1,9.775662381E0
7.735467958E0,-7.595205688E-1,-9.763895874E0,2.270777893E-1,9.796024625E0
7.745524958E0,-7.321275330E-1,-9.852212219E0,2.213896179E-1,9.881857604E0
7.755580958E0,-6.156697083E-1,-1.002046234E1,1.733395386E-1,1.004085461E1
7.765637958E0,-4.590953064E-1,-1.016087036E1,4.730163574E-2,1.017134664E1
7.775693958E0,-3.156935120E-1,-1.028151947E1,3.353027344E-2,1.028641965E1
7.785750958E0,-2.588117981E-1,-1.033780243E1,1.633103943E-1,1.034233112E1
7.795806958E0,-2.992277527E-1,-1.035037628E1,3.441343689E-1,1.036041770E1
7.805863958E0,-4.222718811E-1,-1.036938675E1,4.421804810E-1,1.038739711E1
7.815919958E0,-5.879772949E-1,-1.031969009E1,4.664300537E-1,1.034694534E1
7.825976958E0,-7.834707642E-1,-1.017958145E1,4.408332825E-1,1.021919953E1
7.836032958E0,-1.005159760E0,-9.980046387E0,3.700305176E-1,1.003735994E1
7.846088958E0,-1.254391479E0,-9.774074707E0,2.505789185E-1,9.857424824E0
7.856145958E0,-1.503024445E0,-9.576784973E0,6.496490479E-2,9.694230931E0
7.866201958E0,-1.682052155E0,-9.366023254E0,-1.535806274E-1,9.517104500E0
7.876258958E0,-1.790127411E0,-9.268875275E0,-3.787124634E-1,9.447752544E0
7.886314958E0,-1.858086090E0,-9.294621735E0,-5.533992004E-1,9.494668387E0
7.896371958E0,-1.900597687E0,-9.474846954E0,-5.767506409E-1,9.680787038E0
7.906427958E0,-2.071991272E0,-9.784253540E0,-5.629792786E-1,1.001707097E1
7.916484958E0,-2.411634979E0,-1.007973907E1,-7.595205688E-1,1.039201591E1
7.926540958E0,-2.855162659E0,-1.029888336E1,-1.365011444E0,1.077414537E1
7.936597958E0,-3.302282867E0,-1.035920792E1,-2.259551239E0,1.110512641E1
7.946653958E0,-3.667223969E0,-1.034274216E1,-3.297043762E0,1.145824352E1
7.956710958E0,-3.684887238E0,-1.032433044E1,-4.464316406E0,1.183639785E1
7.966766958E0,-3.112178192E0,-1.029813492E1,-5.523214417E0,1.209310272E1
7.976823958E0,-2.040406952E0,-1.029394363E1,-6.257886658E0,1.221841567E1
7.986879958E0,-8.400531006E-1,-1.020023849E1,-6.435267792E0,1.208979843E1
7.996935958E0,6.122268677E-1,-1.011117371E1,-6.329138489E0,1.194439825E1
8.006992958E0,1.883832550E0,-9.868528290E0,-5.983207855E0,1.169339352E1
8.017048958E0,2.678230591E0,-9.485175476E0,-5.576054535E0,1.132403890E1
8.027105958E0,2.466421051E0,-9.166039124E0,-5.157973938E0,1.080297187E1
8.037161958E0,1.672621765E0,-8.601712646E0,-4.892725525E0,1.003622873E1
8.047218958E0,6.563850403E-1,-8.112679596E0,-4.846771088E0,9.472993272E0
8.057274958E0,-4.788542175E-1,-7.905660095E0,-4.627028046E0,9.172685072E0
8.067331958E0,-1.501976624E0,-7.960146790E0,-4.163292389E0,9.107846848E0
8.077387958E0,-2.144590302E0,-8.042625275E0,-3.644022217E0,9.086362682E0
8.087444958E0,-2.455194397E0,-8.277786255E0,-3.441792755E0,9.294926690E0
8.097500958E0,-2.123035126E0,-8.424930267E0,-3.333418121E0,9.305826375E0
8.107557958E0,-1.421144714E0,-8.490493927E0,-3.337160339E0,9.232809895E0
8.117613958E0,-1.370998993E0,-8.397088165E0,-3.079396362E0,9.048392667E0
8.127670958E0,-1.330433350E0,-7.850874023E0,-2.770887909E0,8.431138454E0
8.137726958E0,-1.134041748E0,-7.142397308E0,-2.340832214E0,7.601275252E0
8.147782958E0,-7.897576904E-1,-6.620881805E0,-1.774559784E0,6.899917066E0
8.157839958E0,-4.376898193E-1,-6.252198486E0,-1.220412140E0,6.385214490E0
8.167895958E0,-7.798782349E-2,-5.911956024E0,-8.599617004E-1,5.974683277E0
8.177952958E0,5.433700562E-2,-5.647755432E0,-7.153623962E-1,5.693139493E0
8.188008958E0,-2.143542480E-1,-5.478457489E0,-8.123606873E-1,5.542506120E0
8.198065958E0,-5.457650757E-1,-5.265300751E0,-1.034199371E0,5.393590627E0
8.208121958E0,-8.663983154E-1,-5.062622223E0,-1.321152649E0,5.303417213E0
8.218178958E0,-1.185235291E0,-4.809199219E0,-1.778002625E0,5.262553862E0
8.228234958E0,-1.375938721E0,-4.567002869E0,-2.136806488E0,5.226534658E0
8.238291958E0,-1.417851562E0,-4.489015045E0,-2.328857117E0,5.252155234E0
8.248347958E0,-1.434167633E0,-4.696333923E0,-2.418670349E0,5.473788028E0
8.258404958E0,-1.388662262E0,-4.977449341E0,-2.757266235E0,5.857124031E0
8.268460958E0,-1.732646942E0,-5.587430878E0,-3.684737549E0,6.913663287E0
8.278517125E0,-2.016756134E0,-6.515500946E0,-4.211641846E0,8.016045466E0
8.288574125E0,-1.739532623E0,-7.363487549E0,-3.616180115E0,8.385921610E0
8.298630125E0,-1.347048798E0,-8.430468750E0,-3.053799591E0,9.067140440E0
8.308687125E0,-7.223977661E-1,-9.969119110E0,-2.713557129E0,1.035705492E1
8.318743125E0,-7.786807251E-1,-1.214709000E1,-3.198099518E0,1.258514917E1
8.328800125E0,-2.015858002E0,-1.491423569E1,-3.407963104E0,1.543088857E1
8.338856125E0,-3.224893799E0,-1.755594223E1,-4.636907501E0,1.844212457E1
8.348913125E0,-3.967200165E0,-2.007924500E1,-7.548353119E0,2.181495798E1
8.358969125E0,-4.727020111E0,-2.115445908E1,-9.713450775E0,2.375304157E1
8.369026125E0,-4.559069366E0,-1.800021835E1,-9.028026123E0,2.064699082E1
8.379082125E0,-3.304827576E0,-1.400891830E1,-6.017785950E0,1.560081489E1
8.389139125E0,-2.399210815E0,-1.351389771E1,-4.521198120E0,1.445070504E1
8.399195125E0,-1.639241180E0,-1.537512726E1,-5.395679626E0,1.637666048E1
8.409251125E0,-4.080514526E-1,-1.814391953E1,-6.554569702E0,1.929587276E1
8.419308125E0,5.771997070E-1,-2.061647781E1,-6.804549866E0,2.171806197E1
8.429364125E0,1.073268127E0,-2.201052887E1,-5.999673615E0,2.283881278E1
8.439421125E0,1.763033752E0,-2.206426712E1,-5.211113434E0,2.273974219E1
8.449477125E0,2.204465790E0,-2.072470276E1,-4.446503448E0,2.131066322E1
8.459534125E0,1.748364258E0,-1.809751602E1,-3.522924042E0,1.851993136E1
8.469590125E0,9.488768005E-1,-1.539219177E1,-2.251617737E0,1.558491954E1
8.479647125E0,8.906478882E-2,-1.355865463E1,-1.398541718E0,1.363088284E1
8.489703125E0,-8.568182373E-1,-1.228645020E1,-9.616003418E-1,1.235377153E1
8.499760125E0,-1.826052704E0,-1.137559433E1,-1.498533783E0,1.161827088E1
8.509816125E0,-1.914818115E0,-1.061487625E1,-1.462159424E0,1.088485353E1
8.519873125E0,-1.398092651E0,-9.504635010E0,-7.334747314E-1,9.634870778E0
8.529929125E0,-8.668473816E-1,-8.218359833E0,-3.613485718E-1,8.271845956E0
8.539985125E0,-1.122216339E0,-6.644832001E0,-9.276210022E-1,6.802473267E0
8.550042125E0,-1.396296387E0,-5.047054596E0,-1.806892548E0,5.539608684E0
8.560098125E0,-1.338666229E0,-3.527714081E0,-2.043251038E0,4.290882044E0
8.570155125E0,-1.379082184E0,-2.135010223E0,-1.985471191E0,3.225249165E0
8.580211125E0,-1.410816193E0,-1.044378204E0,-2.240540771E0,2.846252117E0
8.590268125E0,-1.349743195E0,-2.254312134E-1,-2.655477905E0,2.987338084E0
8.600324125E0,-1.029109955E0,6.192622375E-1,-2.105671234E0,2.424129610E0
8.610381125E0,-3.001258850E-1,1.212927704E0,-8.375083923E-1,1.504223876E0
8.620437125E0,2.706372070E-1,1.661095734E0,1.529818726E-1,1.689936977E0
8.630494125E0,5.254074097E-1,2.052382050E0,6.007008362E-1,2.202082314E0
8.640550125E0,7.560777283E-1,2.378553772E0,5.007087708E-1,2.545561009E0
8.650606125E0,1.060544586E0,2.661914520E0,2.929408264E-1,2.880339921E0
8.660663125E0,1.112636261E0,2.827320557E0,3.483256531E-1,3.058272673E0
8.670719125E0,8.875044250E-1,2.789898376E0,5.333409119E-1,2.975844348E0
8.680776125E0,8.000862122E-1,1.821861420E0,4.734654236E-1,2.045357301E0
8.690832125E0,7.786807251E-1,3.638932800E-1,1.423539734E-1,8.712213523E-1
8.700889125E0,6.659651184E-1,-5.626799011E-1,-6.137237549E-2,8.740050220E-1
8.710945125E0,4.487667847E-1,-1.075363770E0,-7.140151978E-2,1.167431814E0
8.721002125E0,2.362088013E-1,-1.222807159E0,1.200503540E-1,1.251185052E0
8.731058125E0,-2.544708252E-2,-1.127754822E0,6.580316162E-1,1.305941844E0
8.741115125E0,-3.760180664E-1,-1.383572845E0,7.524851990E-1,1.619227402E0
8.751171125E0,-7.200027466E-1,-2.485132141E0,-9.720785522E-1,2.763914330E0
8.761228125E0,-1.189875641E0,-4.463118896E0,-4.944817200E0,6.766568662E0
8.771284125E0,-2.462978210E0,-7.890990601E0,-8.745563507E0,1.203407144E1
8.781340125E0,-4.243525543E0,-1.230995132E1,-9.091643829E0,1.588081856E1
8.791397125E0,-4.167333984E0,-1.572225540E1,-4.143234100E0,1.678458746E1
8.801453125E0,-2.878813477E0,-1.882934418E1,-1.420545959E-1,1.904867315E1
8.811510125E0,-3.038381653E0,-2.417517746E1,-3.597469025E0,2.462950977E1
8.821566125E0,-3.761078796E0,-3.138283905E1,-6.237828369E0,3.221705765E1
8.831623125E0,-3.604504395E0,-3.735781403E1,-9.889035645E0,3.881226284E1
8.841679125E0,1.263971558E0,-3.208353195E1,-9.767787781E0,3.356129206E1
8.851736125E0,3.323089600E0,-2.411994232E1,-8.928632812E0,2.593328028E1
8.861792125E0,1.732946320E0,-2.124891266E1,-7.930508423E0,2.274669989E1
8.871849125E0,-9.026229858E-2,-1.906540329E1,-5.458399200E0,1.983158773E1
8.881905125E0,-1.006656647E0,-1.774469971E1,-4.148473206E0,1.825096039E1
8.891961125E0,-1.338067474E0,-1.751088593E1,-4.192631378E0,1.805546201E1
8.902018125E0,-1.110091553E0,-1.752839951E1,-4.358935547E0,1.809633697E1
8.912074125E0,-1.521735535E0,-1.757869492E1,-3.953279114E0,1.808188623E1
8.922131125E0,-1.993255005E0,-1.753513550E1,-2.996917877E0,1.790071393E1
8.932187125E0,-1.891915741E0,-1.707948303E1,-2.379751282E0,1.734794806E1
8.942244125E0,-1.588047638E0,-1.620709717E1,-2.389331360E0,1.645906432E1
8.952300125E0,-1.036444702E0,-1.494881378E1,-2.277663574E0,1.515681373E1
8.962357125E0,-7.676037598E-1,-1.299088531E1,-1.660646667E0,1.311907253E1
8.972413125E0,-1.157393188E0,-1.081141754E1,-1.021176453E0,1.092103977E1
8.982470125E0,-1.638043671E0,-8.765172729E0,-9.746232605E-1,8.970023999E0
8.992526125E0,-1.798959045E0,-6.905440063E0,-1.188678131E0,7.234245767E0
9.002583125E0,-2.206860809E0,-5.340594177E0,-1.448388062E0,5.957349140E0
9.012639125E0,-2.068398743E0,-4.005670166E0,-1.686692505E0,4.813377031E0
9.022695125E0,-1.512754211E0,-2.599045258E0,-2.122586060E0,3.680873964E0
9.032752125E0,-1.379531250E0,-1.004111938E0,-2.626438293E0,3.132016182E0
9.042808125E0,-1.403331757E0,4.195774841E-1,-2.611020355E0,2.993795681E0
9.052865125E0,-1.158590698E0,1.507664795E0,-1.975741425E0,2.742068511E0
9.062921125E0,-6.836283875E-1,2.217488708E0,-9.961784363E-1,2.525267396E0
9.072978125E0,1.978884888E-1,2.640059967E0,1.451980591E-1,2.651444693E0
9.083034125E0,1.090931396E0,2.773881683E0,9.057664490E-1,3.115279083E0
9.093091125E0,1.239422607E0,2.745889893E0,1.151255951E0,3.225131000E0
9.103147125E0,1.080453186E0,2.705024872E0,1.126108246E0,3.122924659E0
9.113204125E0,7.011419678E-1,2.677631836E0,9.746232605E-1,2.934485101E0
9.123260125E0,1.041833496E-1,2.634371796E0,8.009843445E-1,2.755420993E0
9.133316125E0,-3.617976379E-1,2.401156769E0,7.601193237E-1,2.544451364E0
9.143373125E0,-8.821156311E-1,1.557660828E0,8.165519714E-1,1.967534590E0
9.153429125E0,-1.631607056E0,4.216731262E-1,1.093476105E0,2.008890191E0
9.163486125E0,-2.264341278E0,-4.580474854E-1,1.494791565E0,2.751626927E0
9.173542125E0,-2.538421326E0,-1.341660004E0,6.459068298E-1,2.942928818E0
9.183599125E0,-3.393443298E0,-2.355501709E0,-2.596051483E0,4.878865547E0
9.193655125E0,-4.639302521E0,-3.643872528E0,-6.973847809E0,9.134302827E0
9.203712125E0,-4.114643555E0,-5.331014099E0,-6.899302826E0,9.641077865E0
9.213768125E0,-2.345173187E0,-7.523205414E0,-4.788392487E0,9.221017275E0
9.223825125E0,-2.405497742E-1,-1.013347733E1,-2.693648529E0,1.048813469E1
9.233881125E0,2.500849457E0,-1.319071976E1,-1.963616638E0,1.356853441E1
9.243937125E0,5.260959778E0,-1.669508240E1,-2.391427002E0,1.766698608E1
9.253994125E0,4.540957031E0,-2.250510040E1,-2.374212799E0,2.308109012E1
9.264050125E0,1.110839996E0,-3.591870667E1,-5.280269623E0,3.632173869E1
9.274107125E0,-1.415456543E0,-4.557213226E1,-8.509055328E0,4.638131929E1
9.284163625E0,-1.680106201E0,-4.030802902E1,-8.732839966E0,4.127738430E1
9.294220625E0,-3.974235535E0,-2.714440292E1,-7.240593109E0,2.837321530E1
9.304276625E0,-7.574099579E0,-2.366878052E1,-5.291346588E0,2.540819758E1
9.314333625E0,-7.478747864E0,-2.289533890E1,-5.028044128E0,2.460506941E1
9.324389625E0,-6.134842529E0,-2.072799591E1,-4.418062592E0,2.206366661E1
9.334446625E0,-5.605692902E0,-1.885838379E1,-3.597618713E0,2.000013231E1
9.344502625E0,-5.088668060E0,-1.757974274E1,-2.339634705E0,1.845036010E1
9.354558625E0,-4.173920288E0,-1.639286087E1,-1.278191986E0,1.696411721E1
9.364615625E0,-2.871029663E0,-1.473790237E1,-1.071920929E0,1.505315888E1
9.374671625E0,-2.067051544E0,-1.291918442E1,-9.608518982E-1,1.311873715E1
9.384728625E0,-1.453028412E0,-1.104538101E1,-9.933343506E-1,1.118474168E1
9.394784625E0,-8.631051636E-1,-9.521998901E0,-1.467847595E0,9.673054852E0
9.404841625E0,-2.607577515E-1,-7.825576630E0,-1.539249115E0,7.979782706E0
9.414897625E0,5.956114197E-1,-5.954467621E0,-1.283281403E0,6.120232738E0
9.424954625E0,1.165925446E0,-4.140090637E0,-9.339079285E-1,4.401353956E0
9.435010625E0,1.689237213E0,-2.779869232E0,-7.716453552E-1,3.343147000E0
9.445067625E0,1.767374725E0,-1.563049622E0,-1.222807159E0,2.657441418E0
9.455123625E0,1.550026703E0,-2.107617188E-1,-1.889969788E0,2.453362810E0
9.465179625E0,1.177152100E0,9.006770325E-1,-2.176773376E0,2.633486001E0
9.475236625E0,8.869056702E-1,1.752705231E0,-2.252366180E0,2.988600125E0
9.485292625E0,8.406518555E-1,2.309098206E0,-1.685794373E0,2.980022270E0
9.495349625E0,8.458909607E-1,2.664309540E0,-7.324269104E-1,2.889727672E0
9.505405625E0,8.304730225E-1,2.898422699E0,6.331832886E-2,3.015716962E0
9.515462625E0,9.470805359E-1,3.173400879E0,6.002517700E-2,3.312255682E0
9.525518625E0,1.013242950E0,3.478167114E0,-2.401007080E-1,3.630696366E0
9.535575625E0,9.723779297E-1,3.833977203E0,-3.619473267E-1,3.971889462E0
9.545631625E0,3.879931641E-1,3.728446655E0,-3.390449524E-1,3.763881592E0
9.555687625E0,-5.743556213E-1,2.424957275E0,-1.522334290E-1,2.496693250E0
9.565744625E0,-1.498384094E0,5.986051941E-1,2.619552612E-2,1.613743870E0
9.575800625E0,-1.901346130E0,-8.446934509E-1,-3.131488037E-1,2.103969179E0
9.585857625E0,-1.705852661E0,-2.130968628E0,-1.143023071E0,2.959300988E0
9.595913625E0,-1.905238037E0,-3.394491119E0,-2.878963165E0,4.841583506E0
9.605970625E0,-2.347867584E0,-4.809797974E0,-4.401896210E0,6.929886650E0
9.616026625E0,-2.659669189E0,-6.326743469E0,-4.950355682E0,8.462124113E0
9.626083625E0,-2.387086029E0,-8.064779205E0,-5.653892670E0,1.013436459E1
9.636139625E0,-2.097138977E0,-1.061337936E1,-6.346053314E0,1.254249601E1
9.646196625E0,-1.774859161E0,-1.367346588E1,-5.298082581E0,1.477103494E1
9.656252625E0,-1.284029846E0,-1.692680054E1,-3.240760803E0,1.728200913E1
9.666309625E0,-9.400451660E-1,-1.984543121E1,-1.711391144E0,1.994125584E1
9.676365625E0,-1.100661163E0,-2.361504227E1,-4.132007446E0,2.399906585E1
9.686421625E0,-4.222718811E-1,-2.878618881E1,-8.989855499E0,3.016024671E1
9.696478625E0,1.653162231E0,-3.033007828E1,-9.623038788E0,3.186297960E1
9.706534625E0,4.194577332E0,-2.395842819E1,-5.628295898E0,2.496554576E1
9.716591625E0,2.511327667E0,-1.985246658E1,-6.224655762E0,2.095646763E1
9.726647625E0,-4.077520752E-1,-2.064087708E1,-8.387807465E0,2.228379192E1
9.736704625E0,-4.211791534E0,-2.272289749E1,-6.399342499E0,2.397959221E1
9.746760625E0,-6.200406189E0,-2.378359177E1,-4.401147766E0,2.496946887E1
9.756817625E0,-6.474635925E0,-2.227742386E1,-4.028871918E0,2.354647178E1
9.766873625E0,-6.229445801E0,-1.983689896E1,-3.984713745E0,2.117041565E1
9.776929625E0,-5.112618256E0,-1.780981430E1,-3.188519440E0,1.880146290E1
9.786986625E0,-4.113895111E0,-1.681363586E1,-2.297871552E0,1.746146322E1
9.797042625E0,-3.122357025E0,-1.611653549E1,-1.931882629E0,1.652948880E1
9.807099625E0,-1.688339081E0,-1.503383698E1,-1.683848419E0,1.522176365E1
9.817155625E0,-7.394622803E-1,-1.399365005E1,-1.626517639E0,1.410725366E1
9.827212625E0,-3.867956543E-1,-1.231010101E1,-1.681902466E0,1.243048646E1
9.837268625E0,-2.959346008E-1,-1.001028351E1,-1.202599182E0,1.008660488E1
9.847325625E0,-4.869374084E-1,-7.492668915E0,-5.821394348E-1,7.531008022E0
9.857381625E0,-8.888516235E-1,-5.423072662E0,-3.472778320E-1,5.506394120E0
9.867438625E0,-1.359173584E0,-3.864214325E0,-6.595285034E-1,4.149033987E0
9.877494625E0,-1.313967590E0,-2.199975128E0,-1.111438751E0,2.793151892E0
9.887550625E0,-1.007405090E0,-4.942721558E-1,-1.457070007E0,1.839082104E0
9.897607625E0,-7.646099854E-1,9.327104187E-1,-1.902543640E0,2.252609477E0
9.907663625E0,-5.171745300E-1,1.971849518E0,-2.117197266E0,2.939078814E0
9.917720625E0,-1.993853760E-1,2.544109497E0,-2.023941193E0,3.257082377E0
9.927776625E0,1.100212097E-1,2.967129822E0,-1.521436157E0,3.336275172E0
9.937833625E0,1.814227295E-1,3.393143921E0,-3.688330078E-1,3.417949336E0
9.947889625E0,1.880090332E-1,3.447331238E0,5.046006775E-1,3.489134836E0
9.957946625E0,3.086581421E-1,3.323538666E0,3.132984924E-1,3.352511753E0
9.968002625E0,5.276527405E-1,3.376678162E0,9.101074219E-2,3.418867616E0
9.978058625E0,6.490502930E-1,3.408711548E0,-8.711883545E-2,3.471047449E0
9.988115625E0,3.195854187E-1,2.502046967E0,-2.409988403E-1,2.533861540E0
9.998171625E0,-5.170248413E-1,5.966592407E-1,-3.068618774E-1,8.470425892E-1
1.000822862E1,-1.329235840E0,-9.663903809E-1,-7.722441101E-1,1.815802647E0
1.001828463E1,-2.008972321E0,-2.014361115E0,-1.274449768E0,3.117345457E0
1.002834163E1,-2.450404358E0,-2.773133240E0,-1.064586182E0,3.850726324E0
1.003839763E1,-2.429747314E0,-3.322939911E0,-1.821711731E-1,4.120532490E0
1.004845463E1,-2.090253296E0,-3.870950317E0,7.394622803E-1,4.460966225E0
1.005851063E1,-1.549877014E0,-4.588258667E0,2.621049500E-1,4.850044882E0
1.006856663E1,-5.905220032E-1,-5.343587952E0,-1.739083557E0,5.650403530E0
1.007862363E1,-2.838098145E-1,-6.828050995E0,-3.688479767E0,7.765803976E0
1.008867963E1,-1.225501556E0,-9.878258057E0,-5.848338318E0,1.154490785E1
1.009873663E1,-2.157313843E0,-1.512200363E1,-6.964118042E0,1.678773174E1
1.010879263E1,-3.444786530E0,-2.077410004E1,-4.944517822E0,2.163048874E1
1.011884962E1,-5.105582886E0,-2.644176407E1,-4.767585754E0,2.734892571E1
1.012890563E1,-4.721331940E0,-3.067181763E1,-6.089636536E0,3.162491178E1
1.013896263E1,-1.125060425E0,-3.098077515E1,-6.923402710E0,3.176488147E1
1.014901863E1,2.890339508E0,-2.573643082E1,-7.153474274E0,2.686801310E1
1.015907563E1,2.367925873E0,-2.052905960E1,-5.919141083E0,2.149617622E1
1.016913163E1,-2.354603577E-1,-1.802327042E1,-5.840853882E0,1.894754053E1
1.017918763E1,-2.652933197E0,-1.724743378E1,-6.358178101E0,1.857251882E1
1.018924463E1,-3.989354095E0,-1.780562302E1,-5.864804077E0,1.916640509E1
1.019930063E1,-3.640130310E0,-1.780203049E1,-4.905598755E0,1.882093880E1
1.020935763E1,-2.988535309E0,-1.762674500E1,-3.984114990E0,1.831684074E1
1.021941363E1,-2.666105804E0,-1.783705765E1,-3.435954895E0,1.835958964E1
1.022947062E1,-2.506537628E0,-1.820933350E1,-3.584146729E0,1.872721723E1
1.023952663E1,-2.214944000E0,-1.867381760E1,-3.435505829E0,1.911596560E1
1.024958363E1,-1.741927643E0,-1.833103043E1,-2.854563904E0,1.863355907E1
1.025963963E1,-1.156495056E0,-1.715597397E1,-2.115401001E0,1.732454458E1
1.026969563E1,-7.427554321E-1,-1.561986832E1,-1.089284821E0,1.567541110E1
1.027975196E1,-7.131170654E-1,-1.400547546E1,-4.558021545E-1,1.403102400E1
1.028980796E1,-1.174457703E0,-1.219708603E1,-2.844085693E-3,1.225350018E1
1.029986496E1,-1.844614105E0,-9.941576385E0,1.038839722E-1,1.011179183E1
1.030992096E1,-2.340233459E0,-7.681276703E0,-7.708969116E-2,8.030233325E0
1.031997796E1,-2.463576965E0,-5.466183014E0,-6.390211487E-1,6.029653077E0
1.033003396E1,-2.407743073E0,-3.479065247E0,-1.436412964E0,4.468154417E0
1.034009096E1,-1.887724457E0,-2.154320068E0,-2.320175171E0,3.686164864E0
1.035014696E1,-1.229393463E0,-1.106049957E0,-2.870430908E0,3.312722203E0
1.036020296E1,-6.381230164E-1,-4.355941772E-2,-3.016377411E0,3.083444680E0
1.037025996E1,-2.402503967E-1,8.479866028E-1,-2.766696625E0,2.903689333E0
1.038031596E1,8.352630615E-2,1.465302887E0,-2.035317535E0,2.509304020E0
1.039037296E1,4.177812195E-1,1.776505737E0,-1.117126923E0,2.139739784E0
1.040042896E1,5.795947266E-1,2.078278198E0,-4.182302856E-1,2.197745865E0
1.041048596E1,7.557783508E-1,2.609373779E0,-2.406994629E-1,2.727263953E0
1.042054196E1,1.055754547E0,3.121309204E0,-9.713301086E-1,3.435210473E0
1.043059896E1,1.539997559E0,3.805087280E0,-2.568059692E0,4.842025638E0
1.044065496E1,7.613168335E-1,4.013453979E0,-3.184477844E0,5.179605710E0
1.045071096E1,-1.091979218E0,2.376607819E0,-2.015259247E0,3.301810589E0
1.046076796E1,-1.797761536E0,7.491920471E-1,-6.497987366E-1,2.053161869E0
1.047082396E1,-1.783092041E0,-1.435514832E-1,9.250762939E-1,2.013899304E0
1.048088096E1,-1.468745728E0,-8.990304565E-1,2.063309326E0,2.687510958E0
1.049093696E1,-1.048719177E0,-1.760489044E0,2.978356476E0,3.615209660E0
1.050099396E1,-8.514294434E-1,-2.598296814E0,3.520229645E0,4.457364152E0
1.051104996E1,-9.604028320E-1,-3.395688629E0,2.885998535E0,4.558734738E0
1.052110696E1,-1.087338867E0,-4.742138672E0,6.152206421E-1,4.903945497E0
1.053116296E1,-1.369053040E0,-7.189698944E0,-4.297114105E0,8.487123586E0
1.054121896E1,-2.121987305E0,-1.160566589E1,-1.002465363E1,1.548186007E1
1.055127596E1,-2.299518127E0,-1.667532349E1,-1.074735077E1,1.997147329E1
1.056133196E1,-1.845212860E0,-2.141476776E1,-6.210734711E0,2.237342876E1
1.057138896E1,-2.160157928E0,-2.495296005E1,-1.956880646E0,2.512261689E1
1.058144496E1,-1.908830566E0,-2.817545883E1,-2.682721252E0,2.836718364E1
1.059150196E1,-1.542542267E0,-3.135454788E1,-4.561015320E0,3.172207386E1
1.060155796E1,1.210233307E0,-2.958837067E1,-5.060227203E0,3.004234083E1
1.061161496E1,1.403032379E0,-2.226619720E1,-5.516628113E0,2.298228064E1
1.062167096E1,-1.831740875E0,-1.833342545E1,-4.551584930E0,1.897858500E1
1.063172696E1,-3.958368530E0,-1.715148331E1,-4.458179169E0,1.815812277E1
1.064178396E1,-4.190835114E0,-1.835288498E1,-5.041366425E0,1.948863416E1
1.065183996E1,-3.604055328E0,-1.992701157E1,-3.989503784E0,2.063955293E1
1.066189696E1,-2.431244202E0,-2.035886353E1,-2.421364746E0,2.064599912E1
1.067195296E1,-1.741777954E0,-2.036544983E1,-1.962119751E0,2.053375882E1
1.068200996E1,-1.118474121E0,-1.975067825E1,-2.308649139E0,1.991657944E1
1.069206596E1,-5.863307190E-1,-1.853041580E1,-2.498005371E0,1.870722118E1
1.070212296E1,9.280700684E-2,-1.702843918E1,-2.426304474E0,1.720067753E1
1.071217896E1,5.343887329E-2,-1.530267792E1,-2.357447662E0,1.548329315E1
1.072223496E1,-3.436853027E-1,-1.340552307E1,-2.282752991E0,1.360283535E1
1.073229196E1,-3.703298950E-1,-1.159608582E1,-1.686991882E0,1.172400495E1
1.074234796E1,-1.052910461E0,-9.641300812E0,-1.093027039E0,9.760020998E0
1.075240496E1,-1.792522430E0,-7.764803009E0,-9.925859070E-1,8.030599555E0
1.076246096E1,-2.132166138E0,-6.053112488E0,-1.103205872E0,6.511786731E0
1.077251796E1,-2.197580109E0,-4.560416565E0,-1.095422058E0,5.179450460E0
1.078257396E1,-1.961221619E0,-3.248694305E0,-1.224154358E0,3.987349849E0
1.079263096E1,-1.635948029E0,-1.919608154E0,-1.619482269E0,2.997322845E0
1.080268696E1,-1.304537201E0,-4.599934387E-1,-1.754651184E0,2.234325860E0
1.081274296E1,-9.523196411E-1,9.551637268E-1,-1.497036896E0,2.015035958E0
1.082279996E1,-5.316943359E-1,1.964664459E0,-1.183888092E0,2.354611713E0
1.083285596E1,6.137237549E-3,2.637066193E0,-6.855743408E-1,2.724732638E0
1.084291296E1,5.031037903E-1,3.117866364E0,-1.790277100E-1,3.163266509E0
1.085296896E1,9.077124023E-1,3.602408752E0,1.615141296E-1,3.718518178E0
1.086302596E1,1.316661987E0,4.172872467E0,3.206332397E-1,4.387398898E0
1.087308196E1,1.525926819E0,4.605323181E0,4.083508301E-1,4.868696403E0
1.088313896E1,1.231339417E0,4.838538208E0,2.911445618E-1,5.001241236E0
1.089319496E1,4.251159668E-1,4.025728455E0,2.378553772E-1,4.055094124E0
1.090325096E1,-3.607498169E-1,1.883832550E0,3.305126953E-1,1.946330945E0
1.091330796E1,-7.472460938E-1,2.177970886E-1,3.899391174E-1,8.705543129E-1
1.092336396E1,-8.056246948E-1,-6.506968689E-1,3.671864319E-1,1.098755405E0
1.093342096E1,-6.990463257E-1,-1.153800659E0,7.559280396E-2,1.351160982E0
1.094347696E1,-1.159937897E0,-1.810185699E0,-1.781146088E0,2.791900710E0
1.095353396E1,-2.468067627E0,-3.327729950E0,-5.648204498E0,7.004809668E0
1.096358996E1,-3.792812805E0,-5.627397766E0,-7.618407440E0,1.020260587E1
1.097364596E1,-4.114344177E0,-7.970774689E0,-5.436694336E0,1.048898100E1
1.098370296E1,-3.179837494E0,-1.062999481E1,-2.299667816E0,1.133122360E1
1.099375896E1,-1.418899384E0,-1.327738953E1,-5.095404053E-1,1.336270854E1
1.100381596E1,-1.782792664E-1,-1.717423599E1,-3.405268707E0,1.750948373E1
1.101387196E1,-6.316864014E-2,-2.318199280E1,-7.358248444E0,2.432185438E1
1.102392896E1,-1.973196716E0,-3.026915497E1,-8.494984589E0,3.150047636E1
1.103398496E1,-4.664300537E0,-3.640070435E1,-6.624025269E0,3.729134869E1
1.104404196E1,-3.128344574E0,-3.325933685E1,-8.008196869E0,3.435260172E1
1.105409796E1,-4.480183411E-1,-2.093576385E1,-7.730673981E0,2.232196785E1
1.106415396E1,-1.782642975E0,-1.580009354E1,-5.834117889E0,1.693687407E1
1.107421096E1,-2.500250702E0,-1.466350708E1,-5.318290558E0,1.579727533E1
1.108426696E1,-3.426075439E0,-1.677636337E1,-5.639223175E0,1.802734587E1
1.109432396E1,-3.817960510E0,-1.850661530E1,-4.782404938E0,1.949212736E1
1.110437996E1,-3.109783173E0,-1.865810028E1,-3.784280548E0,1.929031458E1
1.111443696E1,-2.380649414E0,-1.831246902E1,-3.436703339E0,1.878363498E1
1.112449296E1,-1.938019867E0,-1.778331940E1,-2.999013519E0,1.813825934E1
1.113454996E1,-1.814826050E0,-1.717258942E1,-2.702929230E0,1.747847955E1
1.114460596E1,-1.358425140E0,-1.657278671E1,-2.610720978E0,1.683206590E1
1.115466196E1,-6.795867920E-1,-1.592014389E1,-2.698887634E0,1.616158452E1
1.116471896E1,-2.950364685E-1,-1.502320908E1,-2.667003937E0,1.526095565E1
1.117477496E1,-4.939727783E-1,-1.375878845E1,-2.255210266E0,1.395113766E1
1.118483196E1,-8.342152405E-1,-1.238060440E1,-2.148033142E0,1.259322543E1
1.119488796E1,-1.029858398E0,-1.081156723E1,-2.146236877E0,1.107054321E1
1.120494496E1,-1.075363770E0,-8.789721680E0,-1.829495544E0,9.042271196E0
1.121500096E1,-1.422940979E0,-6.818470917E0,-1.613794098E0,7.149869793E0
1.122505696E1,-1.787433014E0,-5.221441956E0,-1.881736908E0,5.830892442E0
1.123511396E1,-1.624871063E0,-3.579805756E0,-2.154320068E0,4.482890828E0
1.124516996E1,-1.112486572E0,-2.143243103E0,-2.249372406E0,3.300120239E0
1.125522696E1,-5.011578369E-1,-1.017733612E0,-1.989063721E0,2.289828676E0
1.126528296E1,2.567161560E-1,1.239422607E-1,-1.837129669E0,1.859115459E0
1.127533996E1,8.324189758E-1,1.187330933E0,-1.907333679E0,2.395954478E0
1.128539662E1,1.308279419E0,2.132166138E0,-2.209106140E0,3.337345864E0
1.129545363E1,1.814376984E0,3.047362976E0,-2.236349487E0,4.192808602E0
1.130550963E1,2.158062286E0,3.662284241E0,-2.076631622E0,4.730957365E0
1.131556563E1,2.207908630E0,3.973337402E0,-1.338666229E0,4.738596618E0
1.132562263E1,1.964215393E0,3.931873627E0,-3.911366272E-1,4.412568434E0
1.133567863E1,1.158740387E0,3.138074341E0,2.642005920E-1,3.355591126E0
1.134573563E1,1.848655701E-1,1.682052155E0,4.583468628E-1,1.753156176E0
1.135579163E1,-6.695576477E-1,6.652166748E-1,4.923262024E-1,1.064521375E0
1.136584863E1,-1.066532135E0,4.116439819E-2,5.149291992E-1,1.185047418E0
1.137590463E1,-1.203347626E0,-3.662882996E-1,5.942642212E-1,1.391173099E0
1.138596063E1,-1.399888916E0,-5.680686951E-1,7.011419678E-1,1.665530269E0
1.139601762E1,-1.626817017E0,-7.467970276E-1,2.815644836E-1,1.812048003E0
1.140607363E1,-2.104174347E0,-1.123563538E0,-7.527845764E-1,2.501325513E0
1.141613063E1,-2.822530518E0,-1.943558350E0,-1.874551849E0,3.906154403E0
1.142618663E1,-3.581751709E0,-3.717220001E0,-2.832409973E0,5.888057073E0
1.143624363E1,-3.696562958E0,-6.644532623E0,-4.142635345E0,8.658857840E0
1.144629963E1,-3.314257965E0,-1.085617447E1,-7.368277588E0,1.353263997E1
1.145635663E1,-2.920726318E0,-1.597133743E1,-9.507329407E0,1.881498270E1
1.146641263E1,-1.912722473E0,-1.962823288E1,-4.488715668E0,2.022559274E1
1.147646863E1,-3.811074829E-1,-2.313184708E1,-1.448238373E0,2.318027149E1
1.148652563E1,-2.559677124E-2,-3.185076599E1,-7.311844940E0,3.267927517E1
1.149658163E1,2.631527710E-1,-4.002915894E1,-1.134221375E1,4.160587251E1
1.150663862E1,1.636097717E0,-3.789863937E1,-7.366780701E0,3.864263371E1
1.151669463E1,3.303330688E0,-2.734498581E1,-5.490133209E0,2.808561563E1
1.152675163E1,4.822970581E-1,-2.192251190E1,-5.133574677E0,2.252071774E1
1.153680763E1,-2.112856293E0,-1.942136307E1,-4.950056305E0,2.015332634E1
1.154686363E1,-3.207679596E0,-1.881512375E1,-4.575684814E0,1.962740384E1
1.155692063E1,-3.493585052E0,-1.903052582E1,-4.196672974E0,1.979843715E1
1.156697663E1,-3.300187225E0,-1.906929520E1,-3.718567200E0,1.970677541E1
1.157703363E1,-3.178190918E0,-1.853281082E1,-2.998863831E0,1.904098629E1
1.158708963E1,-2.660267944E0,-1.765937714E1,-2.356549530E0,1.801343810E1
1.159714663E1,-2.018402710E0,-1.621832382E1,-2.058070221E0,1.647251135E1
1.160720263E1,-1.789079590E0,-1.447879120E1,-2.192640381E0,1.475275812E1
1.161725863E1,-1.695823517E0,-1.284493881E1,-2.297572174E0,1.315853747E1
1.162731563E1,-1.534908142E0,-1.125389740E1,-2.262395325E0,1.158121679E1
1.163737162E1,-1.689536591E0,-9.567803650E0,-2.070344696E0,9.933968378E0
1.164742863E1,-1.786834259E0,-7.736960907E0,-1.704954529E0,8.121589173E0
1.165748463E1,-1.576970673E0,-5.754782867E0,-1.532213745E0,6.160522812E0
1.166754163E1,-1.247206421E0,-4.004622345E0,-1.660047913E0,4.510907121E0
1.167759763E1,-7.997868347E-1,-2.670596466E0,-1.732497253E0,3.282269215E0
1.168765463E1,-3.595523071E-1,-1.378333740E0,-1.578617249E0,2.126291179E0
1.169771063E1,-9.460327148E-2,-7.723937988E-2,-1.165476379E0,1.171857880E0
1.170776663E1,1.190025330E-1,1.163380737E0,-5.890251160E-1,1.309414728E0
1.171782363E1,3.391946411E-1,1.933379517E0,-4.349954224E-1,2.010529875E0
1.172787963E1,4.317022705E-1,2.453098755E0,-4.005670166E-1,2.522798899E0
1.173793663E1,3.867956543E-1,2.855911102E0,-1.022373962E-1,2.883798118E0
1.174799262E1,5.325924683E-1,3.295995941E0,7.903564453E-2,3.339684209E0
1.175804963E1,8.062234497E-1,3.765270081E0,-1.661544800E-1,3.854200610E0
1.176810563E1,1.058448944E0,4.179608459E0,-5.158273315E-1,4.342294195E0
1.177816163E1,1.155596924E0,4.546196136E0,-7.520361328E-1,4.750669627E0
1.178821863E1,7.397616577E-1,4.120930481E0,-6.393205261E-1,4.235333054E0
1.179827463E1,-1.749861145E-1,2.320773926E0,-2.445913696E-1,2.340178774E0
1.180833163E1,-8.267308044E-1,6.063890076E-1,1.498384094E-1,1.036167458E0
1.181838763E1,-1.112785950E0,-3.990701294E-1,3.614982605E-1,1.236216215E0
1.182844463E1,-1.050515442E0,-1.062041473E0,2.936892700E-1,1.522421812E0
1.183850063E1,-1.201401672E0,-1.653311920E0,-5.125341797E-1,2.107011526E0
1.184855763E1,-1.827998657E0,-2.495760040E0,-3.086880798E0,4.370266620E0
1.185861362E1,-2.689457245E0,-4.121229858E0,-6.493496704E0,8.147589537E0
1.186866963E1,-2.911445618E0,-6.402336273E0,-6.830595703E0,9.804257392E0
1.187872663E1,-2.461930389E0,-9.060209198E0,-5.176385651E0,1.072116880E1
1.188878263E1,-1.479373627E0,-1.224004669E1,-3.373235321E0,1.278225355E1
1.189883963E1,-2.534230042E-1,-1.571686661E1,-2.019151154E0,1.584806268E1
1.190889563E1,5.578898621E-1,-1.936792419E1,-2.159259796E0,1.949590038E1
1.191895263E1,-4.941224670E-1,-2.615391266E1,-6.010301514E0,2.684017565E1
1.192900863E1,-3.886068878E0,-3.682402405E1,-9.736353149E0,3.828716301E1
1.193906463E1,-6.691534882E0,-4.093896698E1,-8.178991699E0,4.228086520E1
1.194912163E1,-2.112107849E0,-2.819881027E1,-6.851701813E0,2.909604300E1
1.195917763E1,-7.840695190E-1,-1.695838486E1,-5.537285156E0,1.785673847E1
1.196923462E1,-1.127006378E0,-1.438119415E1,-5.382806396E0,1.539686635E1
1.197929063E1,-1.241518250E0,-1.512664398E1,-5.860612793E0,1.626971137E1
1.198934762E1,-1.075962524E0,-1.723246490E1,-5.228327637E0,1.804025920E1
1.199940363E1,-1.082249451E0,-1.883353546E1,-4.921465759E0,1.949600336E1
1.200945962E1,-1.992955627E0,-1.991713211E1,-4.754562836E0,2.057352404E1
1.201951663E1,-2.187101898E0,-2.086286545E1,-4.232298889E0,2.139988139E1
1.202957263E1,-1.832938385E0,-2.126148651E1,-4.119134216E0,2.173425266E1
1.203962963E1,-1.803449707E0,-2.051543793E1,-4.266727295E0,2.103189449E1
1.204968563E1,-1.763333130E0,-1.900462967E1,-3.997886353E0,1.950047148E1
1.205974263E1,-1.405726776E0,-1.704370743E1,-3.540587311E0,1.746424316E1
1.206979863E1,-1.099313965E0,-1.472323288E1,-2.429298248E0,1.496273931E1
1.207985463E1,-1.304387512E0,-1.202958435E1,-1.313069458E0,1.217113297E1
1.208991163E1,-1.748214569E0,-9.542655945E0,-1.222507782E0,9.778193184E0
1.209996763E1,-2.022444305E0,-7.104226685E0,-1.466350708E0,7.530637566E0
1.211002463E1,-2.154170380E0,-4.652026062E0,-1.589095459E0,5.367217238E0
1.212008062E1,-2.009122009E0,-2.566113739E0,-2.068099365E0,3.859863463E0
1.213013763E1,-1.289119263E0,-9.348060608E-1,-2.483036499E0,2.949773059E0
1.214019363E1,-7.072792053E-1,5.554948425E-1,-2.399360504E0,2.562371796E0
1.215024963E1,-1.489402771E-1,1.667382660E0,-2.093247070E0,2.680304355E0
1.216030663E1,3.628454590E-1,2.251917114E0,-1.850901031E0,2.937451641E0
1.217036263E1,7.557783508E-1,2.879861298E0,-1.408121796E0,3.293570859E0
1.218041963E1,9.693841553E-1,3.577710114E0,-9.539662170E-1,3.827501383E0
1.219047563E1,1.235081635E0,4.221970367E0,-9.223818970E-1,4.494579935E0
1.220053263E1,1.572779388E0,4.876259766E0,-1.015488281E0,5.223290223E0
1.221058863E1,1.812880096E0,5.231471100E0,-9.277706909E-1,5.613874114E0
1.222064463E1,1.539548492E0,5.141508179E0,-5.559439087E-1,5.395775157E0
1.223070162E1,2.179467773E-1,3.702400818E0,-2.305206299E-1,3.715967219E0
1.224075763E1,-6.933581543E-1,1.403780823E0,2.140548706E-1,1.580242265E0
1.225081463E1,-1.157692566E0,-2.995271301E-1,8.159532166E-1,1.447669931E0
1.226087063E1,-1.381776581E0,-1.114282837E0,1.530567169E0,2.343836304E0
1.227092763E1,-1.600920868E0,-1.496737518E0,1.977088623E0,2.951618242E0
1.228098346E1,-1.947300568E0,-1.814975739E0,2.442171478E0,3.612522382E0
1.229103946E1,-1.838925934E0,-2.158361664E0,3.019969940E0,4.142510362E0
1.230109646E1,-1.956730957E0,-2.216440887E0,2.519111481E0,3.884241097E0
1.231115246E1,-2.298470306E0,-1.941163330E0,1.137484589E0,3.216356947E0
1.232120946E1,-2.026934967E0,-2.153721313E0,-9.798623657E-1,3.115623712E0
1.233126546E1,-1.639091492E0,-3.617527313E0,-6.530619507E0,7.643436133E0
1.234132246E1,-1.696721649E0,-7.443720703E0,-1.305450302E1,1.512309133E1
1.235137846E1,-3.265160065E0,-1.181178726E1,-8.145760803E0,1.471506057E1
1.236143446E1,-3.656147003E0,-1.494731689E1,-1.321002960E0,1.544456999E1
1.237149146E1,-1.165476379E0,-1.866453690E1,-2.397414551E0,1.885393511E1
1.238154746E1,1.121617584E0,-2.476330444E1,-7.966583405E0,2.603739089E1
1.239160446E1,-1.576671295E0,-3.523777267E1,-1.033166519E1,3.675499723E1
1.240166046E1,-5.227878571E0,-4.403931976E1,-8.369096375E0,4.513129927E1
1.241171746E1,-1.102158051E0,-3.793965408E1,-8.814719696E0,3.896577200E1
1.242177346E1,-1.933978271E-1,-2.343811020E1,-7.539820862E0,2.462176499E1
1.243182946E1,-3.331172791E0,-1.802895859E1,-6.173911285E0,1.934572926E1
1.244188646E1,-4.708009644E0,-1.727497650E1,-6.604266357E0,1.908419509E1
1.245194246E1,-3.745960236E0,-1.780307831E1,-6.207591248E0,1.922279908E1
1.246199946E1,-2.445464630E0,-1.822340424E1,-5.588478699E0,1.921728007E1
1.247205546E1,-1.570683746E0,-1.859927261E1,-4.779411163E0,1.926766100E1
1.248211246E1,-1.010249176E0,-1.882650009E1,-3.335214386E0,1.914631463E1
1.249216846E1,-5.273533630E-1,-1.863519791E1,-2.184557190E0,1.877021557E1
1.250222446E1,-3.263214111E-1,-1.771895325E1,-1.575324097E0,1.779183621E1
1.251228146E1,-7.167095947E-1,-1.589379868E1,-1.057550812E0,1.594505951E1
1.252233746E1,-1.432970123E0,-1.415052383E1,-1.144969025E0,1.426890613E1
1.253239446E1,-1.525777130E0,-1.313982559E1,-1.737586670E0,1.334174726E1
1.254245046E1,-1.694027252E0,-1.146316223E1,-1.497036896E0,1.168396064E1
1.255250746E1,-1.806742859E0,-9.565857697E0,-9.116043091E-1,9.777575141E0
1.256256346E1,-1.825154572E0,-7.758665771E0,-2.668949890E-1,7.974917974E0
1.257262046E1,-1.841021576E0,-5.751938782E0,4.520599365E-2,6.039553276E0
1.258267646E1,-1.749711456E0,-3.837120667E0,-1.878593445E-1,4.221406913E0
1.259273246E1,-1.364263000E0,-2.379751282E0,-8.508306885E-1,2.871992785E0
1.260278946E1,-9.891430664E-1,-8.454418945E-1,-1.682052155E0,2.126611261E0
1.261284546E1,-7.304809570E-1,5.938151550E-1,-2.039059753E0,2.245881463E0
1.262290246E1,-4.397854614E-1,1.822160797E0,-1.874252472E0,2.650755279E0
1.263295846E1,-1.742376709E-1,2.658771057E0,-1.472038879E0,3.044063200E0
1.264301446E1,1.463955688E-1,3.159180450E0,-1.023571472E0,3.324086542E0
1.265307146E1,5.731581116E-1,3.604055328E0,-5.264552307E-1,3.687123559E0
1.266312746E1,1.041833496E0,3.828139343E0,-6.676116943E-2,3.967937111E0
1.267318446E1,1.454375610E0,4.022884369E0,3.083587646E-2,4.277821632E0
1.268324046E1,1.739382935E0,3.976929932E0,-1.561253357E-1,4.343477846E0
1.269329746E1,1.904788971E0,3.857178955E0,-3.043171692E-1,4.312616312E0
1.270335346E1,1.252894592E0,2.767445068E0,-8.906478882E-2,3.039149487E0
1.271340946E1,1.555265808E-1,9.440867615E-1,3.279679871E-1,1.011460000E0
1.272346646E1,-5.568420410E-1,-3.887416077E-1,5.613327026E-1,8.810717901E-1
1.273352246E1,-9.153465271E-1,-1.063089294E0,4.969665527E-1,1.488285546E0
1.274357946E1,-1.226399689E0,-1.482666779E0,-2.155517578E-2,1.924271706E0
1.275363546E1,-1.658101959E0,-2.178419952E0,-1.688339081E0,3.216411735E0
1.276369246E1,-2.306403809E0,-3.466042328E0,-4.463118896E0,6.103472637E0
1.277374846E1,-3.473377075E0,-5.456453247E0,-7.149582367E0,9.641252946E0
1.278380446E1,-4.933889923E0,-7.584428101E0,-7.465425568E0,1.173027699E1
1.279386146E1,-5.698050842E0,-1.018586838E1,-5.710175629E0,1.299329842E1
1.280391746E1,-4.910987549E0,-1.326616287E1,-3.180885315E0,1.449920368E1
1.281397446E1,-2.896626434E0,-1.666679123E1,1.538800049E-1,1.691732998E1
1.282403046E1,-2.040406952E0,-2.219344849E1,-2.673290863E0,2.244680156E1
1.283408746E1,-3.410208435E0,-3.087314896E1,-8.732241211E0,3.226504122E1
1.284414346E1,-4.038901062E0,-3.833647888E1,-1.025846741E1,3.989028063E1
1.285419946E1,4.460723877E-1,-3.215164032E1,-9.559121704E0,3.354554760E1
1.286425646E1,2.342628479E0,-2.219090378E1,-7.711813202E0,2.360923933E1
1.287431246E1,2.436932373E-1,-1.911734528E1,-6.393504639E0,2.015959271E1
1.288436946E1,-1.256487122E0,-1.914503769E1,-5.524860992E0,1.996585378E1
1.289442546E1,-2.931653595E0,-2.004062531E1,-4.986879730E0,2.085881648E1
1.290448246E1,-3.620970154E0,-2.010708710E1,-3.963907013E0,2.081150968E1
1.291453846E1,-3.751498718E0,-1.952300171E1,-3.101999359E0,2.012072907E1
1.292459446E1,-4.406985626E0,-1.837369171E1,-2.869083710E0,1.911140264E1
1.293465146E1,-4.388873291E0,-1.723890152E1,-3.146007843E0,1.806486368E1
1.294470746E1,-3.582051086E0,-1.623344238E1,-3.365750885E0,1.696125056E1
1.295476446E1,-2.680026855E0,-1.511392044E1,-3.149001617E0,1.566937606E1
1.296482046E1,-1.858834534E0,-1.391641068E1,-2.511627045E0,1.426288969E1
1.297487646E1,-1.434467010E0,-1.228195953E1,-1.818568268E0,1.249845655E1
1.298493346E1,-1.560355225E0,-1.033316208E1,-1.197809143E0,1.051873061E1
1.299498946E1,-2.078876953E0,-8.178991699E0,-7.990383911E-1,8.476797565E0
1.300504646E1,-2.524500275E0,-6.126010895E0,-7.354206848E-1,6.666479933E0
1.301510246E1,-2.570454712E0,-4.494254150E0,-9.253756714E-1,5.259456049E0
1.302515946E1,-2.200573883E0,-2.958298187E0,-1.404229889E0,3.945366290E0
1.303521546E1,-1.409618683E0,-1.469793549E0,-1.930535431E0,2.806115635E0
1.304527146E1,-1.009800110E0,-1.296304321E-1,-2.524799652E0,2.722336055E0
1.305532846E1,-7.339237976E-1,1.053060150E0,-2.811603241E0,3.090743051E0
1.306538446E1,-2.954855347E-1,2.052082672E0,-2.746788025E0,3.441394986E0
1.307544146E1,1.112187195E-1,2.618654480E0,-2.463726654E0,3.597175269E0
1.308549746E1,7.318281555E-1,3.079246674E0,-1.748963013E0,3.616103448E0
1.309555446E1,1.109642487E0,3.341201935E0,-2.320175171E-1,3.528281302E0
1.310561046E1,1.431622925E0,3.143163757E0,6.936575317E-1,3.522809018E0
1.311566646E1,1.507664795E0,2.777025146E0,7.893086243E-1,3.256981717E0
1.312572346E1,1.375789032E0,2.691702576E0,5.010081482E-1,3.064158511E0
1.313577946E1,1.039139099E0,2.743943939E0,3.131488037E-1,2.950779657E0
1.314583646E1,4.034111023E-1,2.005679169E0,2.836601257E-1,2.065418241E0
1.315589246E1,-3.204835510E-1,4.800517273E-1,2.002835083E-1,6.109605970E-1
1.316594846E1,-7.767347717E-1,-5.599855042E-1,8.921447754E-2,9.616963624E-1
1.317600546E1,-1.164129181E0,-1.185085602E0,1.874102783E-1,1.671749756E0
1.318606146E1,-1.709894257E0,-1.815275116E0,3.420387268E-1,2.517131821E0
1.319611846E1,-2.425855408E0,-2.578238525E0,4.043092346E-1,3.563082136E0
1.320617446E1,-3.313958588E0,-3.463647308E0,-1.303339691E0,4.967682412E0
1.321623146E1,-5.015320587E0,-5.391188965E0,-5.378764801E0,9.118633112E0
1.322628746E1,-6.845414886E0,-9.261390839E0,-1.025277924E1,1.541922655E1
1.323634346E1,-7.145540771E0,-1.483984039E1,-1.288550446E1,2.091209796E1
1.324640046E1,-4.932991791E0,-2.011472122E1,-6.877298584E0,2.182277832E1
1.325645646E1,-2.371967468E0,-2.551908279E1,2.445913696E-1,2.563024856E1
1.326651346E1,-1.484313354E0,-3.170975922E1,-2.545456696E0,3.184637131E1
1.327656946E1,-2.566712494E0,-3.734194702E1,-6.649472351E0,3.801610847E1
1.328662675E1,-2.299667816E0,-3.174508575E1,-9.716594238E0,3.327838856E1
1.329668275E1,-1.117126923E0,-2.255614426E1,-8.695567474E0,2.420001054E1
1.330673875E1,-1.525777130E0,-2.005768982E1,-6.922354889E0,2.127340861E1
1.331679575E1,-1.329684906E0,-1.993434631E1,-5.996979218E0,2.085929013E1
1.332685175E1,-2.092798004E0,-1.934591995E1,-5.502557373E0,2.022183374E1
1.333690875E1,-1.956581268E0,-1.895104111E1,-5.125042419E0,1.972907066E1
1.334696475E1,-1.657353516E0,-1.881961441E1,-4.401447144E0,1.939838767E1
1.335702075E1,-2.629132690E0,-1.813658478E1,-3.516337738E0,1.866045758E1
1.336707775E1,-3.159180450E0,-1.739532623E1,-3.007246399E0,1.793380402E1
1.337713375E1,-3.096909943E0,-1.651021683E1,-2.360890503E0,1.696325189E1
1.338719075E1,-3.128045197E0,-1.547152679E1,-1.772464142E0,1.588377906E1
1.339724675E1,-2.577939148E0,-1.427985489E1,-1.606609039E0,1.459935678E1
1.340730375E1,-2.386936340E0,-1.260483810E1,-1.877395935E0,1.296549360E1
1.341735975E1,-2.766696625E0,-1.062310913E1,-1.818867645E0,1.112714417E1
1.342741575E1,-3.207978973E0,-8.736731873E0,-1.550026703E0,9.435263414E0
1.343747275E1,-3.536545715E0,-6.754553833E0,-1.363664246E0,7.745368503E0
1.344752875E1,-3.620820465E0,-4.813240814E0,-1.595083008E0,6.230723696E0
1.345758575E1,-3.583697662E0,-3.259920959E0,-2.101479950E0,5.280737787E0
1.346764175E1,-3.250191193E0,-1.888173523E0,-2.072440338E0,4.292313012E0
1.347769875E1,-2.512674866E0,-6.884184265E-1,-1.085991669E0,2.822557850E0
1.348775475E1,-1.914668427E0,4.114942932E-1,-7.933502197E-3,1.958403860E0
1.349781075E1,-1.564696198E0,1.353635101E0,7.791297913E-1,2.210801983E0
1.350786775E1,-9.955796814E-1,2.211351471E0,9.527687073E-1,2.605575261E0
1.351792375E1,-3.953279114E-1,2.937790833E0,8.961863708E-1,3.096780448E0
1.352798075E1,6.945556641E-2,3.803141327E0,8.424481201E-1,3.895950059E0
1.353803675E1,4.336482239E-1,4.601880341E0,7.470964050E-1,4.682254424E0
1.354809275E1,6.387217712E-1,5.003345490E0,6.655160522E-1,5.087665791E0
1.355814975E1,7.920030212E-1,5.294490051E0,4.303550720E-1,5.370670273E0
1.356820575E1,1.092877350E0,4.891078949E0,4.999603271E-2,5.011939125E0
1.357826275E1,8.460406494E-1,3.272494812E0,1.137634277E-1,3.382003725E0
1.358831875E1,3.433859253E-1,1.185384979E0,7.155120850E-1,1.426537412E0
1.359837575E1,4.363426208E-1,-2.200424194E-1,1.018032990E0,1.129249626E0
1.360843175E1,7.682025146E-1,-9.732760620E-1,6.390211487E-1,1.394901224E0
1.361848775E1,1.400337982E0,-1.531914368E0,-6.990463257E-1,2.190062524E0
1.362854475E1,2.215991821E0,-2.391427002E0,-2.953208771E0,4.398975438E0
1.363860075E1,2.791844330E0,-4.397854614E0,-7.507188721E0,9.137472433E0
1.364865775E1,2.108665009E0,-8.102351074E0,-1.171179520E1,1.439655194E1
1.365871375E1,-5.442681885E-1,-1.213810867E1,-1.129745682E1,1.659103495E1
1.366876975E1,-3.795357513E0,-1.549308197E1,-6.099965057E0,1.707776043E1
1.367882675E1,-4.657265167E0,-1.686108719E1,1.229543152E0,1.753562535E1
1.368888275E1,-3.735482025E0,-1.800755310E1,1.998194733E0,1.849915071E1
1.369893975E1,-5.510939941E0,-2.337613907E1,-3.194207611E0,2.422843988E1
1.370899575E1,-8.882378998E0,-3.315021378E1,-1.002270767E1,3.575315369E1
1.371905275E1,-7.623496857E0,-3.774954941E1,-1.325448715E1,4.072870750E1
1.372910875E1,-1.802401886E0,-2.836616226E1,-9.208401031E0,2.987779215E1
1.373916475E1,-9.523196411E-1,-2.184153030E1,-5.865702209E0,2.263549914E1
1.374922175E1,-1.108444977E0,-2.107826752E1,-5.650300140E0,2.185058131E1
1.375927775E1,-2.706521759E0,-2.184736816E1,-6.622827759E0,2.298901049E1
1.376933475E1,-3.575015717E0,-2.107452530E1,-6.299350433E0,2.228448271E1
1.377939075E1,-3.506907349E0,-1.920820633E1,-5.257367249E0,2.022111520E1
1.378944675E1,-3.297792206E0,-1.771221725E1,-4.052822113E0,1.846681999E1
1.379950375E1,-2.820883942E0,-1.648896103E1,-3.052302704E0,1.700469858E1
1.380955975E1,-1.972597961E0,-1.526839920E1,-2.780018921E0,1.564428528E1
1.381961675E1,-7.810757446E-1,-1.413794998E1,-2.451452179E0,1.437015403E1
1.382967275E1,-1.472937012E-1,-1.247116608E1,-2.131866760E0,1.265292593E1
1.383972975E1,-1.576222229E-1,-1.076576248E1,-1.801354065E0,1.091656370E1
1.384978575E1,-7.069798279E-1,-9.041797485E0,-1.650018768E0,9.218269045E0
1.385984175E1,-1.457369385E0,-7.253017273E0,-1.935175781E0,7.646900705E0
1.386989875E1,-1.886826324E0,-5.436394958E0,-1.942959595E0,6.073680574E0
1.387995475E1,-2.042053528E0,-3.590433655E0,-1.638043671E0,4.443465259E0
1.389001175E1,-1.466500397E0,-2.174078979E0,-1.529818726E0,3.036048115E0
1.390006775E1,-9.222322083E-1,-1.163081360E0,-1.563498688E0,2.155875377E0
1.391012375E1,-5.563929749E-1,-1.362167358E-1,-1.549877014E0,1.652345878E0
1.392018075E1,-2.664459229E-1,6.658154297E-1,-1.409618683E0,1.581558866E0
1.393023675E1,-3.622467041E-2,1.394649811E0,-9.406439209E-1,1.682608483E0
1.394029375E1,1.140628052E-1,1.982477417E0,-1.866618347E-1,1.994509883E0
1.395034975E1,2.933898926E-1,2.189945984E0,6.168672180E-1,2.294006584E0
1.396040575E1,4.995112610E-1,2.210453339E0,9.253756714E-1,2.447843050E0
1.397046275E1,5.414241028E-1,2.128274231E0,6.852749634E-1,2.300498432E0
1.398051875E1,5.153782654E-1,2.125130768E0,3.186872864E-1,2.209831922E0
1.399057575E1,4.575984192E-1,2.251468048E0,1.330732727E-1,2.301350295E0
1.400063175E1,3.165916443E-1,2.407443695E0,1.291813660E-1,2.431605075E0
1.401068875E1,-1.329235840E-1,2.079475708E0,3.131488037E-1,2.107118903E0
1.402074475E1,-9.328601074E-1,9.713301086E-1,5.403762817E-1,1.451108778E0
1.403080075E1,-1.797162781E0,-3.900888062E-1,8.032296753E-1,2.006773841E0
1.404085775E1,-2.305056610E0,-1.320853271E0,1.086440735E0,2.870242640E0
1.405091375E1,-2.640658722E0,-2.194286957E0,1.453776855E0,3.728463608E0
1.406097075E1,-2.830763397E0,-3.086282043E0,1.624421997E0,4.491893263E0
1.407102675E1,-2.993325348E0,-4.177812195E0,8.044271851E-1,5.202039453E0
1.408108275E1,-3.246448975E0,-6.216572571E0,-5.616171112E0,8.984797351E0
1.409113975E1,-5.324427795E0,-1.130598907E1,-1.801803131E1,2.192770787E1
1.410119575E1,-8.258177032E0,-1.605291779E1,-1.537273224E1,2.371106395E1
1.411125275E1,-8.629854126E0,-1.815005676E1,-2.523602142E0,2.025506136E1
1.412130875E1,-5.571713562E0,-2.169738007E1,5.788462830E-1,2.240882319E1
1.413136575E1,-1.148711243E0,-2.722298950E1,-8.521479492E0,2.854866560E1
1.414142175E1,-8.352630615E-2,-2.753628799E1,-6.136339417E0,2.821185557E1
1.415147775E1,3.163222046E0,-2.713841537E1,-6.540199585E0,2.809401668E1
1.416153475E1,5.601202240E0,-2.708512619E1,-9.886940002E0,2.937225068E1
1.417159075E1,3.675756226E0,-2.467603592E1,-8.906179504E0,2.649033722E1
1.418164775E1,8.195457458E-1,-2.164573746E1,-7.815996552E0,2.302823066E1
1.419170375E1,-1.325044556E0,-1.971924362E1,-6.525081024E0,2.081300061E1
1.420175975E1,-2.380350037E0,-1.862217499E1,-4.232448578E0,1.924487175E1
1.421181675E1,-2.704426117E0,-1.773107803E1,-2.576891327E0,1.812030402E1
1.422187275E1,-3.285966797E0,-1.693997314E1,-2.275717621E0,1.740514747E1
1.423192975E1,-4.347858582E0,-1.657862457E1,-2.168091431E0,1.727585851E1
1.424198575E1,-4.905898132E0,-1.662832123E1,-2.611170044E0,1.753245882E1
1.425204275E1,-4.392316132E0,-1.646456177E1,-3.101699982E0,1.732035733E1
1.426209875E1,-3.766617279E0,-1.584949081E1,-2.885848846E0,1.654454256E1
1.427215475E1,-2.982547760E0,-1.447998871E1,-2.071242828E0,1.492835259E1
1.428221146E1,-2.847229156E0,-1.261082565E1,-1.208736420E0,1.298463250E1
1.429226746E1,-3.168012085E0,-1.029573990E1,-9.785151672E-1,1.081647135E1
1.430232446E1,-3.544928284E0,-7.967182159E0,-1.131497040E0,8.793338027E0
1.431238046E1,-3.875440979E0,-6.093079376E0,-1.458267517E0,7.366899159E0
1.432243646E1,-3.465742950E0,-4.288282471E0,-1.542991333E0,5.725518579E0
1.433249346E1,-2.687660980E0,-2.624043274E0,-1.898502045E0,4.208733142E0
1.434254946E1,-1.433868256E0,-9.999206543E-1,-2.211351471E0,2.818846363E0
1.435260646E1,-5.601351929E-1,3.008743286E-1,-2.347717896E0,2.432294413E0
1.436266246E1,1.038839722E-1,1.083297272E0,-2.147135010E0,2.407179596E0
1.437271846E1,5.743556213E-1,1.601669312E0,-1.170416107E0,2.065212538E0
1.438277546E1,8.885522461E-1,1.922302551E0,9.969268799E-2,2.120073306E0
1.439283146E1,8.102650452E-1,1.930535431E0,1.078806610E0,2.355274972E0
1.440288846E1,7.527845764E-1,1.943258972E0,1.250649261E0,2.430445150E0
1.441294446E1,7.897576904E-1,1.986519012E0,6.590794373E-1,2.237042847E0
1.442300146E1,8.152047729E-1,2.185455322E0,1.380130005E-1,2.336626067E0
1.443305746E1,8.336164856E-1,2.529889069E0,-9.160949707E-2,2.665266862E0
1.444311346E1,8.408015442E-1,2.867586823E0,-1.212478638E-1,2.990769544E0
1.445317046E1,4.093986511E-1,2.680924988E0,4.819976807E-2,2.712432352E0
1.446322646E1,-4.912783813E-1,1.642384644E0,4.153862000E-1,1.763895536E0
1.447328346E1,-1.426982574E0,5.083428955E-1,6.673123169E-1,1.655293779E0
1.448333946E1,-2.177671509E0,-3.411405945E-1,7.699987793E-1,2.334850793E0
1.449339546E1,-2.601589966E0,-1.087488556E0,7.478448486E-1,2.917220188E0
1.450345246E1,-2.791544952E0,-1.882485352E0,6.432124329E-1,3.427855970E0
1.451350846E1,-3.039579163E0,-3.043770447E0,2.580633545E-1,4.309312789E0
1.452356546E1,-3.769461365E0,-4.746779022E0,-1.808239746E0,6.325383865E0
1.453362146E1,-4.510270844E0,-7.898774414E0,-6.190227356E0,1.100236770E1
1.454367746E1,-5.303171997E0,-1.258582764E1,-9.709409180E0,1.675706768E1
1.455373446E1,-5.517376556E0,-1.785546936E1,-1.004950195E1,2.121913570E1
1.456379046E1,-4.571792908E0,-2.280866913E1,-7.293283539E0,2.437885688E1
1.457384746E1,-2.136058044E0,-2.642305298E1,-5.142855377E0,2.700350781E1
1.458390346E1,-8.143066406E-2,-2.896416870E1,-6.863826599E0,2.976645453E1
1.459395946E1,1.833686829E-1,-3.186483673E1,-8.835975494E0,3.306774723E1
1.460401646E1,7.108717346E-1,-3.148567520E1,-8.637188873E0,3.265660903E1
1.461407246E1,-2.371069336E-1,-2.478141678E1,-6.502478027E0,2.562141795E1
1.462412946E1,-2.565964050E0,-2.078951797E1,-5.661227417E0,2.169879547E1
1.463418546E1,-4.191134491E0,-1.960937210E1,-5.959107971E0,2.091898779E1
1.464424246E1,-5.238955536E0,-1.918350769E1,-5.798641663E0,2.071419483E1
1.465429846E1,-5.351671143E0,-1.857562180E1,-5.125192108E0,1.999904256E1
1.466435446E1,-5.135670319E0,-1.792133240E1,-4.061204681E0,1.907990168E1
1.467441146E1,-4.866679688E0,-1.767225037E1,-3.057841187E0,1.858341726E1
1.468446746E1,-4.065994720E0,-1.732886444E1,-2.439926147E0,1.796594266E1
1.469452446E1,-3.096610565E0,-1.646037048E1,-2.220332794E0,1.689564060E1
1.470458046E1,-2.519410858E0,-1.537931854E1,-2.016606445E0,1.571424740E1
1.471463646E1,-2.409988403E0,-1.397658554E1,-1.806892548E0,1.429747699E1
1.472469346E1,-2.484832764E0,-1.192794571E1,-1.502126312E0,1.227626434E1
1.473474946E1,-2.509980469E0,-1.000579285E1,-1.218615875E0,1.038753662E1
1.474480646E1,-2.476899261E0,-8.108488312E0,-1.139430542E0,8.554584421E0
1.475486246E1,-2.374811554E0,-6.258485413E0,-1.023272095E0,6.771665626E0
1.476491846E1,-2.222428436E0,-4.618346100E0,-9.981243896E-1,5.221547773E0
1.477497546E1,-1.775457916E0,-3.106040955E0,-9.105564880E-1,3.691727826E0
1.478503146E1,-1.048419800E0,-1.696721649E0,-2.767744446E-1,2.013616777E0
1.479508846E1,-5.637277222E-1,-4.346960449E-1,6.171665955E-1,9.421487158E-1
1.480514446E1,-2.595602417E-1,7.092251587E-1,1.119971008E0,1.350817125E0
1.481520046E1,5.957611084E-2,1.526824951E0,9.624984741E-1,1.805864629E0
1.482525746E1,2.215393066E-1,2.081122284E0,3.962260437E-1,2.130057441E0
1.483531346E1,3.906875610E-1,2.628084869E0,-6.780899048E-2,2.657830866E0
1.484537046E1,5.221142578E-1,3.091820526E0,-3.670367432E-1,3.157003870E0
1.485542646E1,8.587641907E-1,4.110751648E0,-6.500981140E-1,4.249515573E0
1.486548246E1,1.114282837E0,4.824916534E0,-1.120869141E0,5.077183613E0
1.487553946E1,1.078656921E0,4.357588348E0,-1.761087799E0,4.822189047E0
1.488559546E1,5.087919617E-1,3.635190582E0,-1.883982239E0,4.125877956E0
1.489565246E1,-5.842350769E-1,2.164947968E0,-1.366807709E0,2.626117598E0
1.490570846E1,-1.591041412E0,4.855902100E-1,-7.694000244E-1,1.832808508E0
1.491576446E1,-2.173929291E0,-7.656578064E-1,-9.175918579E-2,2.306646957E0
1.492582146E1,-2.132764893E0,-1.661844177E0,4.782554626E-1,2.745749523E0
1.493587746E1,-1.771266632E0,-2.283202057E0,9.991722107E-1,3.057571295E0
1.494593446E1,-1.184037781E0,-2.789149933E0,1.118923187E0,3.230060667E0
1.495599046E1,-4.442761230E-1,-3.246748352E0,4.969665527E-1,3.314473094E0
1.496604746E1,-1.127156067E-1,-4.306245117E0,-2.966381378E0,5.230283960E0
1.497610346E1,-1.317410431E0,-6.560856628E0,-7.642507324E0,1.015816559E1
1.498615946E1,-3.501817932E0,-8.980874176E0,-6.416407013E0,1.157968517E1
1.499621646E1,-4.524940338E0,-1.136586456E1,-1.235381012E0,1.229569553E1
1.500627246E1,-5.090164948E0,-1.661784302E1,4.779560852E-1,1.738651569E1
1.501632946E1,-7.645650787E0,-2.786784851E1,-7.243137817E0,2.979154246E1
1.502638546E1,-1.133428024E1,-4.218018585E1,-1.419019135E1,4.592380121E1
1.503644146E1,-1.194860275E1,-4.823000519E1,-1.354203918E1,5.150038188E1
1.504649846E1,-3.645519104E0,-3.630161041E1,-8.099806366E0,3.737249779E1
1.505655446E1,8.626560974E-1,-2.605182495E1,-5.031936035E0,2.654735654E1
1.506661146E1,-1.374142456E-1,-2.213087860E1,-5.956862640E0,2.291896339E1
1.507666746E1,-2.068548431E0,-2.113694550E1,-7.262297974E0,2.244527410E1
1.508672346E1,-2.570903778E0,-2.117182297E1,-5.814358978E0,2.210570977E1
1.509678046E1,-2.130369873E0,-2.024330383E1,-3.776347046E0,2.070243036E1
1.510683646E1,-1.641935577E0,-1.851844070E1,-2.433788910E0,1.874971805E1
1.511689346E1,-1.418300629E0,-1.669388489E1,-1.259331207E0,1.680128818E1
1.512694946E1,-1.127006378E0,-1.481574051E1,-1.344803467E0,1.491927634E1
1.513700546E1,-8.678952026E-1,-1.264001495E1,-2.052232361E0,1.283490856E1
1.514706246E1,-7.544311523E-1,-1.011536499E1,-2.374063110E0,1.041757894E1
1.515711846E1,-2.037263489E0,-7.506440277E0,-2.816542969E0,8.272242891E0
1.516717546E1,-2.466121674E0,-5.345384216E0,-2.894979858E0,6.560167445E0
1.517723146E1,-1.890269165E0,-3.242856445E0,-2.728526001E0,4.640483766E0
1.518728746E1,-1.209035797E0,-1.656305695E0,-2.586022339E0,3.300398105E0
1.519734446E1,-8.921447754E-1,-5.848338318E-1,-2.419418793E0,2.644152077E0
1.520740046E1,-7.499404907E-1,2.899470520E-1,-2.342179413E0,2.476344975E0
1.521745746E1,-6.813830566E-1,1.005608826E0,-1.813927917E0,2.183086455E0
1.522751346E1,-7.857160950E-1,1.832938385E0,-1.159189453E0,2.306671432E0
1.523756946E1,-8.300239563E-1,2.559228058E0,-4.073030090E-1,2.721118109E0
1.524762646E1,-5.632786560E-1,2.994223480E0,-1.139131165E-1,3.048874102E0
1.525768246E1,-9.550140381E-2,3.919748840E0,1.564247131E-1,3.924031114E0
1.526773946E1,2.448907471E-1,4.908592529E0,2.426454163E-1,4.920683783E0
1.527779546E1,3.442840576E-3,4.844226379E0,7.484436035E-2,4.844805749E0
1.528785100E1,-2.727328491E-1,4.902754669E0,8.217910767E-2,4.911022293E0
1.529790800E1,-8.731343079E-1,4.497846680E0,6.053411865E-1,4.621625929E0
1.530796400E1,-1.780697021E0,2.464026031E0,1.003662872E0,3.201506728E0
1.531802100E1,-2.124382324E0,4.486170959E-1,1.106948090E0,2.437127742E0
1.532807700E1,-2.210153961E0,-7.515870667E-1,1.429078217E0,2.737138688E0
1.533813300E1,-2.013462982E0,-1.336420898E0,1.509610748E0,2.849382145E0
1.534819000E1,-1.118174744E0,-1.499132538E0,9.871971130E-1,2.114774518E0
1.535824600E1,-3.679348755E-1,-1.518741760E0,6.735992432E-2,1.564125943E0
1.536830300E1,-4.324507141E-1,-1.514999542E0,-6.897656250E-1,1.719887744E0
1.537835900E1,-6.912625122E-1,-1.866019592E0,-1.750459900E0,2.650279767E0
1.538841500E1,-1.193767548E0,-3.088976440E0,-3.140319672E0,4.563821211E0
1.539847200E1,-1.758094025E0,-5.156626740E0,-4.472100220E0,7.048501565E0
1.540852800E1,-2.324516144E0,-8.695118408E0,-5.371130676E0,1.048129306E1
1.541858500E1,-2.784359894E0,-1.456755661E1,-7.044949951E0,1.641943012E1
1.542864100E1,-3.499422913E0,-2.238939102E1,-7.700137482E0,2.393371906E1
1.543869800E1,-5.833219757E0,-3.206961090E1,-7.948620758E0,3.355096076E1
1.544875400E1,-7.928113403E0,-4.474076111E1,-1.401954620E1,4.755142861E1
1.545881000E1,-6.316864014E0,-5.150998444E1,-1.262789017E1,5.341015706E1
1.546886700E1,-8.475375366E-1,-4.302742401E1,-8.647816772E0,4.389603936E1
1.547892300E1,-1.829944611E0,-2.898377792E1,-6.877747650E0,2.984479004E1
1.548898000E1,-3.603157196E0,-2.272649002E1,-5.831872559E0,2.373787750E1
1.549903600E1,-4.290378113E0,-2.036964111E1,-4.914430389E0,2.138881132E1
1.550909200E1,-4.346361694E0,-1.889311157E1,-4.813390503E0,1.997521597E1
1.551914900E1,-3.169658661E0,-1.764066605E1,-4.587959290E0,1.850105956E1
1.552920500E1,-2.725831604E0,-1.687515793E1,-3.985312500E0,1.755231691E1
1.553926100E1,-2.390977936E0,-1.579500412E1,-3.069965973E0,1.626725612E1
1.554931800E1,-1.582209778E0,-1.433344345E1,-2.078128510E0,1.456947518E1
1.555937400E1,-1.450633392E0,-1.260199402E1,-1.245559845E0,1.274621551E1
1.556943100E1,-1.584305420E0,-1.035681290E1,-9.922865295E-1,1.052417358E1
1.557948700E1,-1.420995026E0,-7.743098145E0,-9.945318604E-1,7.934978851E0
1.558954300E1,-1.300196228E0,-5.170398102E0,-1.249152374E0,5.475756424E0
1.559960000E1,-1.617536316E0,-3.029100952E0,-1.944905548E0,3.946458400E0
1.560965600E1,-1.788181458E0,-1.441053314E0,-2.640958099E0,3.499841034E0
1.561971300E1,-1.299298096E0,-1.528321838E-1,-2.670746155E0,2.973956664E0
1.562976900E1,-5.352868652E-1,1.006956024E0,-2.444267120E0,2.697208597E0
1.563982600E1,-1.272354126E-1,1.766925659E0,-2.073188782E0,2.726962937E0
1.564988200E1,1.827699280E-1,2.370021515E0,-1.540446625E0,2.832557613E0
1.565993800E1,7.354206848E-1,2.765199738E0,-9.041198730E-1,3.000767555E0
1.566999500E1,8.385562134E-1,2.777174835E0,1.559756470E-1,2.905203089E0
1.568005100E1,8.146060181E-1,2.774630127E0,1.147064667E0,3.110934370E0
1.569010800E1,1.021475830E0,2.869532776E0,9.136999512E-1,3.180012394E0
1.570016400E1,1.124162292E0,2.840493164E0,4.360432434E-1,3.085818528E0
1.571022000E1,7.520361328E-1,2.549049225E0,2.209405518E-1,2.666838020E0
1.572027700E1,1.904040527E-1,2.448458405E0,2.082170105E-1,2.464661556E0
1.573033300E1,-1.163081360E-1,2.539020081E0,2.903961182E-1,2.558218219E0
1.574039000E1,-5.530998230E-1,2.026934967E0,5.894741821E-1,2.182169697E0
1.575044600E1,-1.371747437E0,3.713777161E-1,9.559121704E-1,1.712711451E0
1.576050200E1,-1.739981689E0,-9.136999512E-1,1.114731903E0,2.259427161E0
1.577055900E1,-1.865869904E0,-1.598376160E0,1.267713776E0,2.764665452E0
1.578061500E1,-1.933379517E0,-1.982627106E0,1.106648712E0,2.982186776E0
1.579067200E1,-2.157164154E0,-2.425556030E0,1.347198486E-3,3.246025425E0
1.580072800E1,-3.033591614E0,-3.061433716E0,-2.500250702E0,4.982600531E0
1.581078400E1,-4.174519043E0,-4.852459259E0,-6.954687653E0,9.452018327E0
1.582084100E1,-4.765190735E0,-8.171058197E0,-1.031789383E1,1.399757721E1
1.583089700E1,-4.623585205E0,-1.172915909E1,-8.928483124E0,1.544890041E1
1.584095400E1,-4.032314758E0,-1.519370453E1,-3.910767517E0,1.619883706E1
1.585101000E1,-2.595003662E0,-1.913411041E1,-9.207353210E-1,1.933121773E1
1.586106600E1,-2.625540161E-1,-2.301404205E1,-1.413510590E0,2.305890454E1
1.587112300E1,-1.396296387E0,-2.943089813E1,-7.550598450E0,3.041609681E1
1.588117900E1,-5.370531921E0,-3.813859039E1,-1.332244583E1,4.075392316E1
1.589123500E1,-5.652395782E0,-3.685920090E1,-9.984087982E0,3.860352680E1
1.590129200E1,-2.748434601E0,-2.561967361E1,-6.471043396E0,2.656682088E1
1.591134800E1,-3.880680084E0,-2.126103745E1,-5.800587616E0,2.237718052E1
1.592140500E1,-5.027744751E0,-2.140743301E1,-6.390959930E0,2.289979857E1
1.593146100E1,-4.649930420E0,-2.122136993E1,-5.888454895E0,2.250871600E1
1.594151700E1,-3.168012085E0,-2.014226395E1,-5.201832733E0,2.104295990E1
1.595157400E1,-1.682052155E0,-1.884760620E1,-4.999004517E0,1.957170420E1
1.596163000E1,-1.374890900E0,-1.787328232E1,-4.336182861E0,1.844307533E1
1.597168700E1,-1.599573669E0,-1.695254700E1,-3.336112518E0,1.735157435E1
1.598174300E1,-1.647773438E0,-1.576746140E1,-2.598296814E0,1.606484181E1
1.599179900E1,-1.442999268E0,-1.415591263E1,-2.042203217E0,1.437507229E1
1.600185600E1,-1.196461945E0,-1.197300201E1,-1.627565460E0,1.214221017E1
1.601191200E1,-1.142274628E0,-9.592502289E0,-1.241817627E0,9.739763986E0
1.602196900E1,-1.490300903E0,-7.388485565E0,-1.163530426E0,7.626566644E0
1.603202500E1,-1.721120911E0,-5.496270447E0,-1.033450928E0,5.851432887E0
1.604208100E1,-1.887425079E0,-3.864513702E0,-9.904902649E-1,4.413378587E0
1.605213800E1,-1.871707764E0,-2.499951324E0,-1.365460510E0,3.408449645E0
1.606219400E1,-1.343905334E0,-9.740245056E-1,-1.413211212E0,2.179901653E0
1.607225100E1,-1.120719452E0,4.507127380E-1,-1.742227020E0,2.120025720E0
1.608230700E1,-1.063688049E0,1.490899658E0,-2.283501434E0,2.927215888E0
1.609236300E1,-8.002359009E-1,2.115251312E0,-2.344873810E0,3.257775130E0
1.610242000E1,-2.234852600E-1,2.446512451E0,-1.597328339E0,2.930328763E0
1.611247600E1,1.541793823E-1,2.643203430E0,-4.041595459E-1,2.678365284E0
1.612253300E1,3.597019958E-1,2.807561646E0,7.156617737E-1,2.919582109E0
1.613258900E1,4.794529724E-1,2.534978485E0,1.475481720E0,2.972042627E0
1.614264500E1,5.538482666E-1,2.131717072E0,1.373693390E0,2.595765611E0
1.615270200E1,3.838018799E-1,1.901795197E0,7.081773376E-1,2.065343554E0
1.616275800E1,-1.248403931E-1,1.781894531E0,2.853067017E-1,1.808903855E0
1.617281500E1,-5.218148804E-1,1.680704956E0,2.844085693E-2,1.760076362E0
1.618287100E1,-9.325607300E-1,1.075812836E0,-1.332229614E-2,1.423804852E0
1.619292700E1,-1.477277985E0,-2.664459229E-2,-1.392105103E-2,1.477583830E0
1.620298400E1,-1.879491577E0,-8.134085083E-1,1.790277100E-1,2.055765772E0
1.621304000E1,-1.940115509E0,-1.183439026E0,2.893482971E-1,2.290916531E0
1.622309700E1,-1.693129120E0,-1.498084717E0,1.990859985E-1,2.269488768E0
1.623315300E1,-1.547182617E0,-1.968256989E0,-2.471360779E-1,2.515727701E0
1.624320900E1,-1.888323212E0,-2.825075226E0,-1.664837952E0,3.783979385E0
1.625326600E1,-2.622097321E0,-4.489464111E0,-3.896696777E0,6.497301605E0
1.626332200E1,-3.304528198E0,-7.367828522E0,-7.031477966E0,1.070730994E1
1.627337900E1,-4.932692413E0,-1.208721451E1,-9.394763489E0,1.608396064E1
1.628343500E1,-5.816604309E0,-1.745475266E1,-5.403762817E0,1.917555549E1
1.629349100E1,-7.025340729E0,-2.425870377E1,-1.851200409E0,2.532325144E1
1.630354800E1,-9.793085175E0,-3.291041245E1,-7.600145416E0,3.516762680E1
1.631360400E1,-9.369017029E0,-3.899660614E1,-1.273776169E1,4.208045085E1
1.632366100E1,-1.542392578E0,-3.537788132E1,-1.299822006E1,3.772170709E1
1.633371700E1,3.729793854E0,-2.603056915E1,-9.348809052E0,2.790881802E1
1.634377300E1,3.250640259E0,-2.146341660E1,-6.413113861E0,2.263565646E1
1.635383000E1,7.123686218E-1,-1.939876007E1,-6.291716309E0,2.040600538E1
1.636388600E1,-1.472637634E0,-1.907603119E1,-5.624703369E0,1.994244006E1
1.637394200E1,-3.478167114E0,-1.886287445E1,-4.162244568E0,1.962727589E1
1.638399900E1,-4.329446869E0,-1.777867905E1,-3.272345123E0,1.858853898E1
1.639405500E1,-4.242028656E0,-1.629975449E1,-2.794538727E0,1.707296840E1
1.640411200E1,-4.280947723E0,-1.505539215E1,-2.324516144E0,1.582386557E1
1.641416800E1,-4.294719086E0,-1.414753006E1,-2.072140961E0,1.492953405E1
1.642422400E1,-4.239633636E0,-1.348665436E1,-2.096091156E0,1.429188362E1
1.643428100E1,-3.711681519E0,-1.267698807E1,-2.452500000E0,1.343493068E1
1.644433700E1,-2.389181671E0,-1.187510559E1,-2.165995789E0,1.230519645E1
1.645439400E1,-1.448238373E0,-1.097637451E1,-1.413211212E0,1.116133315E1
1.646445000E1,-1.301842804E0,-9.746082916E0,-1.062340851E0,9.889868299E0
1.647450600E1,-1.628762970E0,-8.076604614E0,-1.334325256E0,8.346546280E0
1.648456300E1,-2.083217926E0,-6.266119537E0,-1.910028076E0,6.874027803E0
1.649461900E1,-1.864672394E0,-4.313130798E0,-1.948198700E0,5.086804360E0
1.650467600E1,-1.570683746E0,-2.398911438E0,-1.440454559E0,3.208852265E0
1.651473200E1,-1.390009460E0,-9.380992126E-1,-1.147364044E0,2.031895835E0
