"Time (s)","Acceleration x (m/s^2)","Acceleration y (m/s^2)","Acceleration z (m/s^2)","Absolute acceleration (m/s^2)"
7.291083333E-3,-2.563269653E0,2.129771118E0,6.578669586E0,7.374630150E0
1.722408333E-2,-2.253414001E0,1.936073914E0,6.623426514E0,7.259203513E0
2.715808334E-2,-2.436932373E0,1.927990723E0,6.949298859E0,7.612393989E0
3.709208334E-2,-2.534080353E0,2.160606995E0,7.042255554E0,7.789938967E0
4.702508334E-2,-2.133962402E0,1.951940918E0,6.939868469E0,7.518353759E0
5.695908333E-2,-1.570384369E0,1.188678131E0,6.675967255E0,6.960431133E0
6.689208333E-2,-9.476792908E-1,3.118016052E-1,6.446793823E0,6.523531780E0
7.682608334E-2,-1.374890900E0,-4.352947998E-1,6.219566345E0,6.384576107E0
8.676008334E-2,-1.162931671E0,-5.381309509E-1,6.522236938E0,6.646921819E0
9.669308334E-2,-7.711962891E-1,-8.087681580E-1,6.762786713E0,6.854497339E0
1.066270833E-1,-8.557704163E-1,-8.057743835E-1,6.915169830E0,7.014355932E0
1.165600833E-1,-9.621990967E-1,-3.634442139E-1,6.850803680E0,6.927584707E0
1.264940833E-1,-3.240760803E-1,-3.174897766E-1,6.339766388E0,6.355978518E0
1.364280833E-1,8.907975769E-1,-1.469943237E0,5.081483002E0,5.364300788E0
1.463610833E-1,1.339414673E0,-3.304378510E0,5.181624756E0,6.289847702E0
1.562950833E-1,9.306147766E-1,-4.907395020E0,6.053411865E0,7.848080335E0
1.662280833E-1,-5.014572144E-2,-6.163283386E0,7.216942291E0,9.490670826E0
1.761620833E-1,-4.809498596E-1,-5.582940216E0,8.252788239E0,9.975422193E0
1.860960833E-1,-3.872447205E-1,-4.437222748E0,7.985893250E0,9.144036044E0
1.960290833E-1,-1.137933655E0,-3.643872528E0,6.412964172E0,7.463163503E0
2.059630833E-1,-2.107018433E0,-2.174228668E0,7.946674805E0,8.503907186E0
2.158960833E-1,2.020797729E-2,5.849835205E-1,1.696048050E1,1.697057786E1
2.258300833E-1,4.268373871E0,1.623374176E0,1.774649597E1,1.832464129E1
2.357640833E-1,4.490362244E0,2.412832489E0,1.228390549E1,1.329960329E1
2.456970833E-1,2.389930115E0,1.864373016E0,6.451434174E0,7.128019051E0
2.556310833E-1,2.746788025E0,-7.616162109E-1,-2.027982788E0,3.498230681E0
2.655640833E-1,1.599573669E0,-2.243534546E0,-1.691632233E0,3.233218643E0
2.754980833E-1,4.528083801E-1,-5.166805573E0,3.670217743E0,6.353850292E0
2.854320833E-1,1.137634277E-1,-7.880362701E0,5.998625793E0,9.904371249E0
2.953650833E-1,-1.499431915E0,-8.483009491E0,9.675729218E0,1.295490185E1
3.052990833E-1,-3.106190643E0,-6.580316162E0,1.178783707E1,1.385287276E1
3.152320833E-1,-3.595672760E0,-5.528303833E0,1.365445541E1,1.516361298E1
3.251660833E-1,-2.913541260E0,-5.111271057E0,1.223301132E1,1.357425433E1
3.351000833E-1,-1.728156281E0,-5.954916687E0,8.216413879E0,1.029354234E1
3.450330833E-1,-8.768765259E-1,-7.937693481E0,4.693938904E0,9.263312187E0
3.549670833E-1,-1.638941803E0,-7.713609467E0,2.841540985E0,8.382139131E0
3.649000833E-1,-3.116968231E0,-6.881639557E0,2.531835022E0,7.967599546E0
3.748340833E-1,-4.966222687E0,-7.569608917E0,2.576741638E0,9.412860586E0
3.847680833E-1,-6.704258423E0,-9.389524384E0,1.945504303E0,1.170022376E1
3.947010833E-1,-7.590864716E0,-1.139430542E1,3.210224304E0,1.406260869E1
4.046350833E-1,-8.146060181E0,-1.194965057E1,6.610253906E0,1.590119184E1
4.145680833E-1,-1.013946487E1,-1.161389877E1,7.299869843E0,1.705812101E1
4.245020833E-1,-1.192330536E1,-1.317081116E1,5.955515442E0,1.873775978E1
4.344360833E-1,-8.815168762E0,-1.386207367E1,1.353784790E0,1.648323451E1
4.443690833E-1,-7.802823944E0,-1.212523544E1,-1.788181458E0,1.452938364E1
4.543030833E-1,-1.089464447E1,-1.234423004E1,-2.359243927E0,1.663247803E1
4.642360833E-1,-1.442550201E1,-1.382614838E1,-2.928360443E0,2.019487019E1
4.741700833E-1,-1.722063950E1,-1.564965637E1,-1.994751892E0,2.335468271E1
4.841040833E-1,-1.759815445E1,-1.679836761E1,-2.025587769E0,2.441276716E1
4.940370833E-1,-1.772643768E1,-1.594618973E1,-9.461824036E-1,2.386216296E1
5.039710833E-1,-1.730970428E1,-1.431263672E1,1.512454834E0,2.251144047E1
5.139040833E-1,-1.556223816E1,-1.332558929E1,3.839815063E0,2.084463399E1
5.238380833E-1,-1.441023376E1,-1.298145493E1,4.125271454E0,1.982904117E1
5.337720833E-1,-1.252984406E1,-1.226908630E1,2.006876678E0,1.765092136E1
5.437050833E-1,-9.014404449E0,-1.180280594E1,-1.741927643E0,1.495326143E1
5.536390833E-1,-6.189179535E0,-1.144400208E1,-2.590513000E0,1.326581639E1
5.635720833E-1,-6.652466125E0,-1.140089172E1,1.038540344E0,1.324062701E1
5.735060833E-1,-8.705746307E0,-9.492809601E0,3.531007233E0,1.335557805E1
5.834390833E-1,-1.132874176E1,-7.670948181E0,-9.074130249E-1,1.371157300E1
5.933730833E-1,-1.437879913E1,-7.484286346E0,1.989363098E-1,1.621123013E1
6.033070833E-1,-1.588526642E1,-8.224946136E0,1.402583313E0,1.794320674E1
6.132400833E-1,-1.256427246E1,-8.969348145E0,1.559008026E0,1.551581950E1
6.231740833E-1,-8.405171356E0,-9.134604492E0,-1.192570038E0,1.247037000E1
6.331070833E-1,-5.751489716E0,-8.735833740E0,-2.642005920E0,1.078770691E1
6.430410833E-1,-5.199138336E0,-7.672594757E0,-1.154100037E0,9.339791038E0
6.529750833E-1,-5.429509277E0,-6.145320740E0,-1.341809692E0,8.309331576E0
6.629080833E-1,-6.584208069E0,-5.412893829E0,-3.042273560E0,9.050228943E0
6.728420833E-1,-6.963668976E0,-5.281616821E0,-1.166374512E0,8.817516167E0
6.827750833E-1,-7.228168945E0,-5.290298767E0,-8.204438782E-1,8.994821594E0
6.927090833E-1,-7.532785492E0,-5.044210510E0,-1.557660828E0,9.198544678E0
7.026430833E-1,-7.197033691E0,-5.116061096E0,-1.178199921E0,8.908396609E0
7.125760833E-1,-6.096372528E0,-5.023403778E0,-1.338067474E0,8.011914134E0
7.225100833E-1,-5.691464539E0,-4.947212219E0,-2.558030548E0,7.963114819E0
7.324430833E-1,-5.907465363E0,-5.100792847E0,-4.045337677E0,8.790960789E0
7.423770833E-1,-5.910159760E0,-4.826862488E0,-5.814059601E0,9.593324705E0
7.523110833E-1,-5.783822479E0,-4.818030853E0,-5.398523712E0,9.263373146E0
7.622440833E-1,-6.529122620E0,-5.261259155E0,-3.035387878E0,8.917615693E0
7.721780833E-1,-6.692732391E0,-4.568649445E0,-7.207511902E-1,8.135398385E0
7.821110833E-1,-6.514902191E0,-5.249134369E0,2.272274780E-1,8.369527735E0
7.920450833E-1,-5.634582825E0,-7.835456085E0,3.052602081E0,1.012231570E1
8.019790833E-1,-3.355272675E0,-8.420439606E0,3.135978699E0,9.591455587E0
8.119120833E-1,-2.245330811E-3,-6.043532410E0,1.152154083E0,6.152377432E0
8.218460833E-1,2.080822906E0,-4.996459808E0,-9.407936096E-1,5.493589646E0
8.317790833E-1,2.878663788E0,-5.509443054E0,-1.227447510E-1,6.217373581E0
8.417130833E-1,2.597698059E0,-5.522765350E0,3.594026184E-1,6.113766643E0
8.516465833E-1,-1.657054138E-1,-5.324278107E0,-8.307723999E-1,5.391250172E0
8.615795833E-1,-2.551144867E0,-6.280339966E0,-2.127525787E0,7.104743218E0
8.715135833E-1,-3.971990204E0,-6.646029510E0,-3.564238129E0,8.523509129E0
8.814465833E-1,-5.449268188E0,-5.912554779E0,-4.905000000E0,9.418696980E0
8.913805833E-1,-6.398594055E0,-6.117328949E0,-5.642666016E0,1.049778068E1
9.013145833E-1,-6.524033203E0,-7.782915344E0,-6.339616699E0,1.197194723E1
9.112475833E-1,-6.680008850E0,-8.546178131E0,-9.300160217E0,1.428819999E1
9.211815833E-1,-7.443421326E0,-8.753946075E0,-1.196072754E1,1.658599096E1
9.311145833E-1,-9.817634125E0,-9.874964905E0,-1.209529770E1,1.844443271E1
9.410485833E-1,-1.130988098E1,-1.072085587E1,-1.171853119E1,1.949805456E1
9.509825833E-1,-1.197524734E1,-9.916578369E0,-1.070483917E1,1.887693453E1
9.609155833E-1,-1.255274643E1,-8.964558105E0,-8.752149811E0,1.773513099E1
9.708495833E-1,-1.336331085E1,-8.884025574E0,-7.256160736E0,1.761124232E1
9.807825833E-1,-1.396625702E1,-9.209598541E0,-6.338119812E0,1.788979606E1
9.907165833E-1,-1.349234253E1,-9.944270782E0,-6.249953156E0,1.788836892E1
1.000650583E0,-1.204320602E1,-1.037223083E1,-6.845115509E0,1.730542083E1
1.010583583E0,-9.808802490E0,-1.043060944E1,-7.486681366E0,1.615737037E1
1.020517583E0,-7.009324036E0,-1.055919205E1,-7.706873474E0,1.483317427E1
1.030450583E0,-3.926484833E0,-9.987081757E0,-5.450166321E0,1.203592116E1
1.040384583E0,-1.319955139E0,-7.873926086E0,-1.549128571E0,8.132698993E0
1.050318583E0,4.794529724E-1,-5.425767059E0,2.481389923E0,5.985492401E0
1.060251583E0,-6.385720825E-1,-3.389850769E0,2.133962402E0,4.056187628E0
1.070185583E0,-2.290237427E0,-2.691403198E0,1.285676422E0,3.760558803E0
1.080118583E0,-4.117787018E0,-2.802621918E0,3.057541809E0,5.844606185E0
1.090052583E0,-6.131699066E0,-3.543581085E0,3.959116974E0,8.113526210E0
1.099986583E0,-7.992180176E0,-5.018913116E0,1.264869690E0,9.521781775E0
1.109919583E0,-7.564220123E0,-6.429579620E0,-1.865720215E0,1.010137773E1
1.119853583E0,-5.027445374E0,-6.479425964E0,-4.275409241E0,9.248637304E0
1.129786583E0,-2.248174896E0,-5.066364441E0,-5.932014313E0,8.118567165E0
1.139720583E0,6.750961304E-2,-4.592300262E0,-5.595214691E0,7.238798705E0
1.149654583E0,-1.033450928E0,-5.071902924E0,-4.993615723E0,7.192247081E0
1.159587583E0,-4.105362854E0,-6.444398804E0,-4.409380646E0,8.821956573E0
1.169521583E0,-6.658453674E0,-8.305328979E0,-3.737727356E0,1.128202555E1
1.179454583E0,-7.220385132E0,-9.485025787E0,-3.585344238E0,1.244806688E1
1.189388583E0,-6.660249939E0,-1.067085983E1,-4.402944031E0,1.332711878E1
1.199322583E0,-6.870861969E0,-1.196521820E1,-5.488786011E0,1.484930849E1
1.209255583E0,-6.730304260E0,-1.180011154E1,-5.110372925E0,1.451397738E1
1.219189583E0,-6.306385803E0,-1.100631226E1,-4.118236084E0,1.333676422E1
1.229122583E0,-6.370901642E0,-1.074211166E1,-2.759960632E0,1.279057205E1
1.239056583E0,-6.458768921E0,-1.004995102E1,-2.727777557E0,1.225389660E1
1.248990583E0,-5.025798798E0,-8.708440704E0,-2.498903503E0,1.036050731E1
1.258923583E0,-4.785847778E0,-7.434739380E0,-2.789449310E0,9.271500205E0
1.268857583E0,-5.704786835E0,-6.788682861E0,-5.077591095E0,1.021825519E1
1.278790583E0,-4.559069366E0,-5.820645905E0,-4.377646637E0,8.592370006E0
1.288724583E0,-5.042863312E0,-3.892954559E0,-4.300257568E0,7.686207175E0
1.298658583E0,-6.336024170E0,-2.613864441E0,-3.037483521E0,7.496919083E0
1.308591583E0,-6.586004333E0,-2.139500885E0,-2.879561920E0,7.499652923E0
1.318525583E0,-6.871610413E0,-1.564696198E0,-4.884941711E0,8.574961188E0
1.328458583E0,-6.904392242E0,-1.866169281E0,-6.791526947E0,9.862963971E0
1.338392583E0,-6.549330597E0,-2.920426941E0,-7.884553986E0,1.065780542E1
1.348326583E0,-6.083499298E0,-3.682043152E0,-8.058492279E0,1.074735797E1
1.358259583E0,-5.785019989E0,-3.919000397E0,-7.145391083E0,9.994079953E0
1.368193583E0,-6.122118988E0,-4.696184235E0,-5.460494843E0,9.452591771E0
1.378126583E0,-6.091432800E0,-5.377417603E0,-3.688330078E0,8.923337515E0
1.388060583E0,-4.799768829E0,-5.120252380E0,-2.344873810E0,7.399540421E0
1.397994583E0,-2.621947632E0,-5.165608063E0,-1.729952545E0,6.045730051E0
1.407927583E0,-1.202898560E0,-5.652545471E0,-1.771566010E0,6.044557997E0
1.417861583E0,9.310638428E-2,-4.796475677E0,-1.527423706E0,5.034666911E0
1.427794583E0,5.444178772E-1,-3.300037537E0,-2.110610962E-2,3.344709858E0
1.437728583E0,5.951623535E-1,-2.485880585E0,1.016985168E0,2.751014239E0
1.447662583E0,-1.073567505E0,-4.152065735E0,2.773731995E-1,4.297572913E0
1.457595583E0,-3.285966797E0,-6.764582977E0,-8.155041504E-1,7.564536183E0
1.467529583E0,-5.551056519E0,-6.791676636E0,-2.292033691E0,9.066119260E0
1.477462583E0,-1.098266144E1,-9.751022644E0,-3.369642792E0,1.506837043E1
1.487396583E0,-1.251128265E1,-1.187271057E1,-6.433022461E0,1.840861831E1
1.497330583E0,-1.138188126E1,-1.324730209E1,-8.147856445E0,1.927241029E1
1.507263583E0,-7.098987579E0,-1.075468552E1,-7.828720093E0,1.507805503E1
1.517197583E0,-4.177213440E0,-9.205257568E0,-4.988526306E0,1.127258949E1
1.527130583E0,-2.293231201E0,-8.417894897E0,-4.210743713E0,9.687632655E0
1.537064583E0,-3.359913025E0,-8.373437347E0,-2.894081726E0,9.475187470E0
1.546998583E0,-3.998934174E0,-8.324788513E0,-4.123924255E-1,9.244654987E0
1.556931583E0,-3.444487152E0,-8.224347382E0,1.710493011E0,9.079106120E0
1.566865583E0,-1.917213135E0,-7.562723236E0,3.411705322E0,8.515293427E0
1.576798583E0,4.980143738E-1,-8.688532104E0,5.091961212E0,1.008298951E1
1.586732583E0,-1.500928802E0,-1.235919891E1,-7.024891663E-1,1.246980658E1
1.596666583E0,-5.036127319E0,-9.993218994E0,-3.519481201E0,1.173088881E1
1.606599583E0,-6.611900482E0,-1.141840530E1,-4.261338501E0,1.386564869E1
1.616533583E0,-5.194348297E0,-1.179202835E1,-6.969656525E0,1.464954944E1
1.626466583E0,-9.111702118E0,-1.356883347E1,-1.206461151E1,2.031480268E1
1.636400583E0,-1.024020538E1,-1.296573761E1,-1.109627518E1,1.990224814E1
1.646334583E0,-7.858957214E0,-1.111064529E1,-4.604724426E0,1.436708510E1
1.656267583E0,-5.911956024E0,-8.596323853E0,-4.812492371E-1,1.044411838E1
1.666201583E0,-3.029100952E0,-9.296567688E0,2.051932983E0,9.990598197E0
1.676134583E0,-4.342469788E-1,-1.018556900E1,1.472787323E0,1.030065478E1
1.686068583E0,3.205733643E0,-6.183191986E0,-2.797382812E0,7.505594042E0
1.696002583E0,5.763464813E0,-1.466650085E0,-5.857918396E0,8.347682137E0
1.705935583E0,5.062771912E0,-1.754800873E0,-5.832621002E0,7.920255885E0
1.715869583E0,3.147355042E0,-1.991907806E0,-5.572162628E0,6.702427681E0
1.725802583E0,-5.610333252E-1,-2.003284149E0,-4.634213104E0,5.079747717E0
1.735736583E0,-5.061424713E0,-3.455264740E0,-3.038082275E0,6.840089068E0
1.745670583E0,-8.480165405E0,-5.933660889E0,-9.810598755E-1,1.039634625E1
1.755603583E0,-8.797954559E0,-7.516170044E0,-1.392105103E-1,1.157221656E1
1.765537583E0,-8.051307220E0,-1.094299393E1,-2.427951050E-1,1.358792160E1
1.775470583E0,-8.220006409E0,-1.288655228E1,2.282752991E-1,1.528672118E1
1.785404583E0,-6.152505798E0,-1.239557327E1,1.269360352E0,1.389657656E1
1.795338583E0,-7.325167236E0,-2.561922455E0,6.635401611E0,1.021029266E1
1.805271583E0,-6.210585022E-1,-5.416935425E0,4.736899567E0,7.222680982E0
1.815205583E0,2.990481262E0,-2.021037231E1,-3.579506378E0,2.074162465E1
1.825138583E0,-1.260528717E0,-2.409449524E1,-5.602998505E0,2.476948174E1
1.835072583E0,4.444258118E-1,-1.783391418E1,-3.066074066E0,1.810101709E1
1.845006583E0,-6.973997498E-1,-2.046154999E1,-1.948797455E0,2.056597204E1
1.854939417E0,-5.693111115E0,-1.681573151E1,-1.436412964E0,1.781133410E1
1.864873417E0,-4.706961823E0,-9.426048431E0,-7.575746155E-1,1.056313391E1
1.874806417E0,-6.826703796E0,-1.346494949E1,-4.478686523E-1,1.510328891E1
1.884740417E0,-9.673783264E0,-1.616623215E1,-2.881507874E-1,1.884176678E1
1.894674417E0,-1.127245880E1,-1.764470764E1,-8.372090149E-1,2.095483128E1
1.904607417E0,-1.031894165E1,-1.653252045E1,-8.494834900E-1,1.950708618E1
1.914541417E0,-5.997128906E0,-1.174577454E1,-4.656816101E-1,1.319642504E1
1.924474417E0,-1.437011719E0,-6.067033539E0,-3.290158081E-1,6.243568695E0
1.934408417E0,5.035528564E-1,-2.393372955E0,-2.393522644E-1,2.457455816E0
1.944342417E0,3.344495087E0,-4.095483398E-1,-2.237846375E0,4.044914538E0
1.954275417E0,1.072624466E1,2.930905151E-1,-7.576045532E0,1.313524619E1
1.964209417E0,4.047133942E0,-3.593128052E0,9.601034546E-1,5.496513530E0
1.974142417E0,2.544708252E-2,-5.059778137E0,-2.601589966E-1,5.066525936E0
1.984076417E0,-8.506809998E-1,-7.138804779E0,-9.762698364E-1,7.255294248E0
1.994010417E0,-1.742376709E0,-9.566755829E0,-6.132746887E-1,9.743449057E0
2.003943417E0,-2.134710846E0,-1.045605652E1,-8.020321655E-1,1.070183928E1
2.013877417E0,-2.705923004E0,-1.002749771E1,-1.097817078E0,1.044403811E1
2.023810417E0,-4.169429626E0,-1.019514908E1,-1.292711792E0,1.109037023E1
2.033744417E0,-4.462370453E0,-1.178035263E1,-1.308129730E0,1.266493828E1
2.043678417E0,-2.470013580E0,-1.089269852E1,1.528321838E-1,1.117028226E1
2.053611417E0,-1.696422272E0,-8.066725159E0,5.896238708E-1,8.264233759E0
2.063545417E0,-1.563049622E0,-7.655530243E0,9.508227539E-1,7.871107376E0
2.073478417E0,-1.589245148E0,-7.884104919E0,6.563850403E-1,8.069426983E0
2.083412417E0,-1.646426239E0,-6.320755920E0,5.983058167E-1,6.559012473E0
2.093346417E0,-5.475613403E-1,-5.073848877E0,1.287322998E-1,5.104932698E0
2.103279417E0,1.417851562E0,-5.470374298E0,-1.881587219E0,5.956145438E0
2.113213417E0,1.394649811E0,-6.431675262E0,-2.699037323E0,7.113107426E0
2.123146417E0,-3.699856110E0,-9.683513031E0,-1.366208954E0,1.045590201E1
2.133080417E0,-8.312064972E0,-1.286754181E1,9.870474243E-1,1.535051527E1
2.143014417E0,-1.044782364E1,-1.412807053E1,2.754871216E0,1.778619439E1
2.152947417E0,-9.700577545E0,-1.405711807E1,1.957329712E0,1.719112890E1
2.162881417E0,-7.391179962E0,-1.262280075E1,1.923799438E0,1.475349600E1
2.172814417E0,-6.644233246E0,-9.962682495E0,2.253563690E0,1.218521347E1
2.182748417E0,-4.917573853E0,-7.289241943E0,1.564696198E0,8.931061241E0
2.192681417E0,-3.358865204E0,-7.231312408E0,9.210346985E-1,8.026341603E0
2.202615417E0,-3.067570953E0,-7.135062561E0,2.624043274E-1,7.770969395E0
2.212549417E0,-2.758912811E0,-7.420668640E0,7.634124756E-3,7.916942670E0
2.222482417E0,-2.952610016E0,-9.427245941E0,4.861889648E-1,9.890765979E0
2.232416417E0,-3.333418121E0,-1.079180832E1,5.986051941E-1,1.131075291E1
2.242349417E0,-3.338806915E0,-1.133038834E1,5.641767883E-1,1.182554975E1
2.252283417E0,-2.719844055E0,-1.022448807E1,8.379574585E-1,1.061319371E1
2.262217417E0,-2.710263977E0,-8.994795227E0,4.775070190E-1,9.406374698E0
2.272150417E0,-2.795287170E0,-8.674611053E0,3.841012573E-1,9.121953797E0
2.282084417E0,-2.453697510E0,-8.394842834E0,6.018983459E-1,8.766772456E0
2.292018417E0,-2.368973694E0,-7.769143982E0,7.057823181E-1,8.152899071E0
2.301951417E0,-2.387834473E0,-6.856042786E0,6.360273743E-1,7.287771056E0
2.311885417E0,-2.129771118E0,-6.379284210E0,5.285508728E-1,6.746151353E0
2.321818417E0,-1.846110992E0,-6.450386353E0,5.282514954E-1,6.730130722E0
2.331752417E0,-1.792821808E0,-6.145919495E0,6.533912659E-1,6.435328788E0
2.341685417E0,-2.039808197E0,-5.848188629E0,7.008425903E-1,6.233242179E0
2.351619417E0,-1.942510529E0,-5.132077789E0,7.623646545E-1,5.540105546E0
2.361553417E0,-1.920955353E0,-3.768413544E0,6.568341064E-1,4.280472071E0
2.371486417E0,-1.294358368E0,-2.113754425E0,4.607418823E-1,2.521032415E0
2.381420417E0,-1.710942078E-1,-7.923023987E-1,2.086660767E-1,8.369933395E-1
2.391354417E0,8.655001831E-1,-6.801855469E-1,-7.051835632E-1,1.307297519E0
2.401287417E0,1.138083344E0,-2.328258362E0,-1.447489929E0,2.968374604E0
2.411221417E0,7.460485840E-1,-5.009482727E0,-1.974843292E0,5.436130215E0
2.421154417E0,-6.855743408E-2,-7.821834412E0,-2.135608978E0,8.108428910E0
2.431088417E0,-2.108964386E0,-9.351353760E0,-2.800825653E0,9.987000163E0
2.441022417E0,-3.513643341E0,-1.066487228E1,-3.125949554E0,1.165576042E1
2.450955417E0,-3.615581360E0,-1.266261795E1,-2.972668304E0,1.350003995E1
2.460889417E0,-4.251608734E0,-1.415306854E1,-1.931283875E0,1.490353594E1
2.470822417E0,-3.987557831E0,-1.383108810E1,-1.338366852E0,1.445651554E1
2.480756417E0,-3.010389862E0,-1.238644226E1,-6.737489319E-1,1.276480852E1
2.490689417E0,-2.689307556E0,-1.271515869E1,5.655239868E-1,1.300874525E1
2.500623417E0,-2.491119690E0,-1.439706116E1,6.994953918E-1,1.462772508E1
2.510557417E0,-3.102149048E0,-2.020258850E1,7.888595581E-1,2.045458898E1
2.520490417E0,-3.042123871E0,-2.200603821E1,3.465892639E0,2.248405317E1
2.530424417E0,-2.890788574E0,-1.989033783E1,3.522474976E0,2.040563715E1
2.540357417E0,-2.734513550E0,-1.937361237E1,2.230361938E-1,1.956691508E1
2.550291417E0,-1.406774597E0,-1.567510345E1,-1.736688538E0,1.583363414E1
2.560225417E0,-4.858895874E-1,-9.276808777E0,-6.520440674E-1,9.312380536E0
2.570158417E0,-1.708547058E0,-9.672885132E0,-1.678908691E0,9.965067698E0
2.580092417E0,-1.735790405E0,-9.234147491E0,-2.992277527E0,9.860840381E0
2.590025417E0,-2.291884003E0,-9.887838135E0,-2.340083771E0,1.041624056E1
2.599959417E0,-1.941911774E0,-1.003288651E1,-1.147813110E0,1.028335101E1
2.609893417E0,-1.180445251E0,-1.038794815E1,-7.316784668E-1,1.048037553E1
2.619826417E0,-6.897656250E-1,-1.070828201E1,-5.242098999E-1,1.074327121E1
2.629760417E0,-6.905140686E-1,-1.085318069E1,-1.422042847E-2,1.087513416E1
2.639693417E0,-7.553292847E-1,-1.055021072E1,3.141966248E-1,1.058188018E1
2.649627417E0,-8.005352783E-1,-9.428593140E0,4.415817261E-2,9.462619895E0
2.659561417E0,-6.526428223E-1,-8.586594086E0,-6.936575317E-1,8.639253522E0
2.669494417E0,-4.098477173E-1,-8.165519714E0,-8.586145020E-1,8.220760684E0
2.679428417E0,-2.404000854E-1,-7.779921570E0,-7.740403748E-1,7.822027252E0
2.689361417E0,-7.020401001E-2,-7.676336975E0,-6.822811890E-1,7.706918034E0
2.699295417E0,1.300794983E-1,-7.692503357E0,-3.950285339E-1,7.703737802E0
2.709229417E0,2.820135498E-1,-7.627688141E0,-7.589218140E-2,7.633276992E0
2.719162417E0,2.942880249E-1,-7.548053741E0,5.044509888E-2,7.553956939E0
2.729096417E0,6.870712280E-2,-7.474107513E0,2.287243652E-1,7.477922079E0
2.739029417E0,-1.261875916E-1,-6.898853760E0,5.310955811E-1,6.920416824E0
2.748963417E0,-3.573069763E-1,-6.225853271E0,2.266287231E-1,6.240214565E0
2.758897417E0,-7.737409973E-1,-6.026916962E0,-8.933422852E-1,6.141698758E0
2.768830417E0,-1.260379028E0,-5.841901703E0,-1.417402496E0,6.142100670E0
2.778764417E0,-1.924996948E0,-6.221811676E0,-1.733994141E0,6.739680220E0
2.788697417E0,-2.922522583E0,-8.137976990E0,-2.625839539E0,9.036749472E0
2.798631417E0,-3.448079681E0,-9.045390015E0,-2.507136383E0,9.999703338E0
2.808565417E0,-3.154240723E0,-4.736600189E0,-7.996371460E-1,5.746654284E0
2.818498417E0,-3.592080231E0,-1.380130005E-1,7.705975342E-1,3.676398854E0
2.828432417E0,-3.620670776E0,-1.273851013E-1,1.354682922E-1,3.625442800E0
2.838365417E0,-2.819087677E0,-7.372319183E0,-1.942809906E0,8.128521133E0
2.848299292E0,-2.352957001E0,-1.464838852E1,-3.514840851E0,1.524682915E1
2.858233292E0,-2.607577515E0,-1.955413696E1,-5.672304382E0,2.052653819E1
2.868166292E0,-2.421065369E0,-2.459610214E1,-7.119794312E0,2.572005578E1
2.878100292E0,-2.445165253E0,-2.775827637E1,-6.367907867E0,2.858410381E1
2.888033292E0,-2.261796570E0,-2.839744720E1,-3.900139618E0,2.875311845E1
2.897967292E0,-5.375321960E-1,-2.644924850E1,-1.101559296E0,2.647763434E1
2.907901292E0,2.086660767E-1,-2.456122467E1,-3.641926575E-1,2.456481091E1
2.917834292E0,-8.152047729E-1,-2.385738831E1,-1.767374725E0,2.393664866E1
2.927768292E0,-2.418520660E0,-2.329470840E1,-3.165167999E0,2.363283670E1
2.937701292E0,-3.379971313E0,-2.210423401E1,-4.016747131E0,2.271905862E1
2.947635292E0,-3.953728180E0,-2.031111282E1,-2.733016663E0,2.087205430E1
2.957569292E0,-3.516786804E0,-1.833761673E1,-5.465135193E-1,1.867979266E1
2.967502292E0,-2.556084595E0,-1.620051086E1,8.295748901E-1,1.642188525E1
2.977436292E0,-1.465751953E0,-1.382420242E1,9.608518982E-1,1.393485693E1
2.987369292E0,-4.689747620E-1,-1.121422989E1,3.668870544E-1,1.123002651E1
2.997303292E0,5.179229736E-2,-8.659193115E0,-4.939727783E-1,8.673425906E0
3.007237292E0,2.987786865E-1,-6.425388336E0,-1.434167633E0,6.590274712E0
3.017170292E0,4.445755005E-1,-4.525688782E0,-1.913919983E0,4.933821645E0
3.027104292E0,4.390370178E-1,-2.886447601E0,-1.915566559E0,3.491951961E0
3.037037292E0,1.923500061E-1,-1.421893158E0,-1.695224762E0,2.220938016E0
3.046971292E0,7.963439941E-2,4.909790039E-2,-1.863325195E0,1.865672272E0
3.056905292E0,2.558180237E-1,1.627116394E0,-2.162852325E0,2.718617443E0
3.066838292E0,5.239105225E-2,3.184777222E0,-1.172661438E0,3.394213550E0
3.076772292E0,-1.419049072E-1,4.403542786E0,-5.334906006E-1,4.438010623E0
3.086705292E0,-5.544470215E-1,5.414091339E0,-3.303630066E-1,5.452424804E0
3.096639292E0,-1.169517975E0,6.399492188E0,-5.298980713E-1,6.527025702E0
3.106573292E0,-1.865121460E0,7.173532562E0,-9.792636108E-1,7.476443319E0
3.116506292E0,-2.345023499E0,7.326065369E0,-1.745819550E0,7.887854898E0
3.126440292E0,-2.473306732E0,6.207441559E0,-2.366129608E0,7.088592683E0
3.136373292E0,-2.642305298E0,3.798201599E0,-2.285297699E0,5.160493993E0
3.146307292E0,-2.055076447E0,2.001637573E0,-1.747765503E0,3.359252362E0
3.156241292E0,-1.137933655E0,4.478686523E-1,-1.358724518E0,1.828007562E0
3.166174292E0,-2.056723022E-1,-9.443861389E-1,-1.282233582E0,1.605705214E0
3.176108292E0,7.141648865E-1,-1.981279907E0,-1.084943848E0,2.369093647E0
3.186041292E0,1.481768646E0,-2.620151367E0,-7.708969116E-1,3.107267860E0
3.195975292E0,1.916614380E0,-2.943029938E0,-2.543211365E-1,3.521294526E0
3.205909292E0,2.026485901E0,-3.179837494E0,1.164578247E-1,3.772475847E0
3.215842292E0,1.730401611E0,-3.596870270E0,-6.551875305E-1,4.044877770E0
3.225776292E0,6.761439514E-1,-4.644990692E0,-2.370320892E0,5.258472241E0
3.235709292E0,-9.602531433E-1,-6.370302887E0,-3.691473541E0,7.424945917E0
3.245643292E0,-3.410208435E0,-9.408534851E0,-3.716770935E0,1.067541268E1
3.255577292E0,-5.515280914E0,-1.508068954E1,-3.764072571E0,1.649283975E1
3.265510292E0,-5.549110565E0,-2.216381012E1,-3.671115875E0,2.314096365E1
3.275444292E0,-2.852168884E0,-3.093137787E1,-3.895648956E0,3.130592731E1
3.285377292E0,2.706222382E0,-4.052208389E1,-4.998854828E0,4.091884006E1
3.295311292E0,5.725593567E0,-4.378619614E1,-5.134772186E0,4.445648748E1
3.305245292E0,-1.042282562E0,-3.402110275E1,-3.873195648E0,3.425672824E1
3.315178292E0,-7.085365906E0,-2.903122925E1,-2.949765930E0,3.002858306E1
3.325112292E0,-8.053552551E0,-2.870730286E1,-2.058070221E0,2.988652872E1
3.335045292E0,-6.509812775E0,-2.773821808E1,-1.982627106E0,2.856076355E1
3.344979292E0,-3.702550507E0,-2.664728668E1,-2.812651062E0,2.704991264E1
3.354913292E0,-2.462379456E-1,-2.460179031E1,-3.157384186E0,2.480479378E1
3.364846292E0,3.006198578E0,-2.162882263E1,-2.016606445E0,2.192965800E1
3.374780292E0,4.276906128E0,-1.840572510E1,-3.915856934E-1,1.890015825E1
3.384713292E0,3.256627808E0,-1.523681488E1,5.420228577E-1,1.559037976E1
3.394647292E0,1.674118652E0,-1.204754700E1,3.412902832E-1,1.216809521E1
3.404581292E0,1.053509216E0,-8.851992188E0,-5.956114197E-1,8.934338270E0
3.414514292E0,7.247927856E-1,-6.092031555E0,-1.860181732E0,6.410807213E0
3.424448292E0,2.642005920E-1,-3.328777771E0,-2.819387054E0,4.370298247E0
3.434381292E0,-2.415975952E-1,-6.303392029E-1,-2.923271027E0,3.000201727E0
3.444315292E0,-9.627978516E-1,1.305734711E0,-2.881507874E0,3.306812735E0
3.454248292E0,-1.558558960E0,3.111130371E0,-3.056344299E0,4.631358191E0
3.464182292E0,-1.717678070E0,4.955594788E0,-3.003204803E0,6.043804823E0
3.474116292E0,-1.649270325E0,6.515500946E0,-2.462529144E0,7.157925326E0
3.484049292E0,-1.840422821E0,7.633526001E0,-1.425485687E0,7.980594264E0
3.493983292E0,-2.363884277E0,8.237969055E0,-2.293231201E-1,8.573486579E0
3.503917292E0,-2.913092194E0,8.242908783E0,7.664062500E-1,8.776048648E0
3.513850292E0,-3.197949829E0,6.809639282E0,1.227746887E0,7.622691958E0
3.523784292E0,-2.338287506E0,3.630250854E0,8.779243469E-1,4.406479421E0
3.533717292E0,-1.087488556E0,1.116827545E0,4.141886902E-1,1.612912706E0
3.543651292E0,1.323248291E-1,-5.751040649E-1,3.159928894E-1,6.694072393E-1
3.553584292E0,1.386716309E0,-1.975591736E0,1.805245972E-1,2.420440860E0
3.563518292E0,2.489323425E0,-2.927462311E0,-1.719923401E-1,3.846602145E0
3.573452292E0,3.098556519E0,-3.559747467E0,-7.479945374E-1,4.778320872E0
3.583385292E0,2.942281494E0,-3.973187714E0,-1.282532959E0,5.107654235E0
3.593319292E0,2.365680542E0,-3.821253662E0,-1.493444366E0,4.735905410E0
3.603252292E0,1.757644958E0,-3.236868896E0,-1.372046814E0,3.930540486E0
3.613186292E0,1.211730194E0,-2.672392731E0,-1.131197662E0,3.144770440E0
3.623120292E0,5.930667114E-1,-2.237397308E0,-1.227597198E0,2.620051473E0
3.633053292E0,-9.370513916E-1,-2.453547821E0,-1.448088684E0,2.999153724E0
3.642987292E0,-3.701951752E0,-4.082610168E0,-1.829794922E0,5.806918461E0
3.652920292E0,-6.543343048E0,-7.484436035E0,-2.230960693E0,1.018868523E1
3.662854292E0,-7.283404083E0,-1.301154236E1,-2.429447937E0,1.510795906E1
3.672788292E0,-7.206314392E0,-2.154290131E1,-3.346740417E0,2.296145107E1
3.682721292E0,-3.376827850E0,-3.591496445E1,-5.673352203E0,3.651677098E1
3.692655292E0,9.281449127E0,-5.467365555E1,-4.894671478E0,5.567146233E1
3.702588292E0,1.406969193E1,-5.393299576E1,-1.569785614E0,5.576009764E1
3.712522292E0,1.261875916E-1,-3.116698792E1,4.712200928E-1,3.117080537E1
3.722456292E0,-6.964716797E0,-2.227757355E1,-3.374432831E0,2.358356123E1
3.732389292E0,-9.607770538E0,-2.127091690E1,-6.295458527E0,2.417424163E1
3.742323292E0,-1.074375824E1,-2.312660797E1,-7.416776733E0,2.655705018E1
3.752256292E0,-9.260343018E0,-2.422577225E1,-6.965764618E0,2.685449442E1
3.762190292E0,-3.739523621E0,-2.300730606E1,-3.498973846E0,2.357038369E1
3.772124292E0,2.940485229E0,-2.057905563E1,1.034498749E0,2.081379763E1
3.782057292E0,5.337600403E0,-1.795141983E1,2.918930054E0,1.895425031E1
3.791991292E0,4.496798859E0,-1.532737656E1,9.110055542E-1,1.599936259E1
3.801924292E0,2.443069611E0,-1.239317825E1,-1.173110504E0,1.268604133E1
3.811858292E0,1.350192261E0,-9.134005737E0,-1.349593506E0,9.331370884E0
3.821792292E0,1.131347351E0,-6.198759613E0,-9.150471497E-1,6.367250494E0
3.831725292E0,9.916877747E-1,-3.686234436E0,-5.795947266E-1,3.861048952E0
3.841659292E0,4.327500916E-1,-1.382225647E0,-1.516346741E-1,1.456301293E0
3.851592542E0,-3.938310242E-1,6.620732117E-1,4.586462402E-1,8.965490432E-1
3.861526542E0,-9.532177734E-1,2.682122498E0,7.188052368E-1,2.935828024E0
3.871460542E0,-1.222058716E0,4.404291229E0,7.093748474E-1,4.625410405E0
3.881393542E0,-1.554966431E0,5.869743805E0,5.084925842E-1,6.093470082E0
3.891327542E0,-2.430346069E0,7.323820038E0,-1.758842468E-1,7.718539838E0
3.901260542E0,-3.497776337E0,8.481063538E0,-8.545729065E-1,9.213749122E0
3.911194542E0,-4.098327484E0,8.995843048E0,-1.394051056E0,9.983228869E0
3.921128542E0,-3.408711548E0,7.997718658E0,-1.427880707E0,8.810315628E0
3.931061542E0,-1.976938934E0,4.631668396E0,-7.849676514E-1,5.096745422E0
3.940995542E0,-7.348219299E-1,1.996248779E0,-5.818400574E-1,2.205336779E0
3.950928542E0,-3.652404785E-2,3.589535522E-1,-8.202941895E-1,8.961385027E-1
3.960862542E0,4.668791199E-1,-1.045725403E0,-1.041234741E0,1.547800865E0
3.970796542E0,9.653425598E-1,-2.272274780E0,-1.034947815E0,2.676982614E0
3.980729542E0,1.196761322E0,-3.351231079E0,-7.822732544E-1,3.643478949E0
3.990663542E0,1.110540619E0,-4.061653748E0,-2.433938599E-1,4.217768628E0
4.000596542E0,7.798782349E-1,-3.920347595E0,7.514373779E-2,3.997872173E0
4.010530542E0,3.519181824E-1,-3.242557068E0,-1.139131165E-1,3.263586822E0
4.020464542E0,-4.385879517E-2,-2.405946808E0,-5.049000549E-1,2.458745148E0
4.030397542E0,-6.902146912E-1,-1.676214294E0,-1.010099487E0,2.075184728E0
4.040331542E0,-1.560355225E0,-1.486858063E0,-1.680854645E0,2.733263189E0
4.050264542E0,-2.752925262E0,-2.585573273E0,-2.526296539E0,4.543782659E0
4.060198542E0,-3.710633698E0,-5.278922424E0,-3.164718933E0,7.186881822E0
4.070132542E0,-4.565056915E0,-9.712702332E0,-2.680775299E0,1.106177596E1
4.080065542E0,-5.628295898E0,-1.508622803E1,-2.695744171E0,1.632602301E1
4.089999542E0,-5.865253143E0,-2.373419449E1,-4.958738251E0,2.494598700E1
4.099932542E0,-2.109712830E0,-3.946573059E1,-7.220684509E0,4.017627489E1
4.109866542E0,6.241420898E0,-5.575605469E1,-4.070186005E0,5.625175005E1
4.119800542E0,7.136110382E0,-4.751509186E1,5.504653015E0,4.836227073E1
4.129733542E0,1.606459351E0,-2.999253021E1,6.387816467E0,3.070727568E1
4.139667542E0,-4.239184570E-1,-2.439716583E1,-1.244512024E0,2.443256470E1
4.149600542E0,-2.210603027E0,-2.398941376E1,-6.464457092E0,2.494329456E1
4.159534542E0,-4.249363403E0,-2.559243027E1,-8.171357574E0,2.719927685E1
4.169468542E0,-5.052443390E0,-2.651975189E1,-8.078700256E0,2.817959940E1
4.179401542E0,-4.728816376E0,-2.568583603E1,-7.281458130E0,2.711353000E1
4.189335542E0,-2.701282654E0,-2.229059647E1,-4.703668671E0,2.294105747E1
4.199268542E0,-6.966513062E-1,-1.858265717E1,-1.374591522E0,1.864644664E1
4.209202542E0,7.640112305E-1,-1.552541473E1,8.478369141E-1,1.556730687E1
4.219136542E0,1.090931396E0,-1.270767426E1,1.832339630E0,1.288536320E1
4.229069542E0,5.002597046E-1,-1.032448013E1,2.203567657E0,1.056886277E1
4.239003542E0,4.688250732E-1,-8.354426880E0,2.429747314E0,8.713203627E0
4.248936542E0,4.767585754E-1,-6.567293243E0,2.589764557E0,7.075557910E0
4.258870542E0,-6.691085815E-1,-4.720583496E0,2.022294617E0,5.178927529E0
4.268804542E0,-1.937271423E0,-2.435136108E0,8.517288208E-2,3.112902641E0
4.278737542E0,-2.482886810E0,6.301895142E-2,-2.315534821E0,3.395644240E0
4.288671542E0,-2.793939972E0,2.519410858E0,-4.171824646E0,5.617619827E0
4.298604542E0,-3.358715515E0,4.882546692E0,-5.310955811E0,7.957793899E0
4.308538542E0,-3.635939026E0,7.121291199E0,-5.899831238E0,9.936843038E0
4.318472542E0,-3.056344299E0,8.857830048E0,-5.011428680E0,1.062623221E1
4.328405542E0,-2.722538452E0,9.580227814E0,-2.786904602E0,1.034213797E1
4.338339542E0,-2.269879761E0,9.042994995E0,-3.595523071E-1,9.330454998E0
4.348272542E0,-1.550176392E0,7.252867584E0,1.011147308E0,7.485289167E0
4.358206542E0,-1.070723419E0,4.591851196E0,1.281335449E0,4.886037923E0
4.368140542E0,-7.382647705E-1,2.395618286E0,1.164877625E0,2.764228957E0
4.378073542E0,-6.030958557E-1,6.505471802E-1,9.547146606E-1,1.303233029E0
4.388007542E0,-9.389973450E-1,-1.007554779E0,8.294252014E-1,1.607740281E0
4.397940542E0,-1.592687988E0,-2.469414825E0,5.360353088E-1,2.986971453E0
4.407874542E0,-1.424737244E0,-3.547323303E0,5.703140259E-2,3.823170335E0
4.417808542E0,-2.775228882E-1,-4.061504059E0,-3.019221497E-1,4.082155210E0
4.427741542E0,1.002615051E0,-3.946692810E0,-2.478845215E-1,4.079591623E0
4.437675542E0,1.746867371E0,-3.417243805E0,-3.382965088E-2,3.838000167E0
4.447608542E0,2.394570465E0,-2.822380829E0,-3.442840576E-3,3.701325858E0
4.457542542E0,3.238066406E0,-2.275867310E0,-2.868035889E-1,3.968236682E0
4.467475542E0,3.805686035E0,-2.016756134E0,-1.096320190E0,4.444375036E0
4.477409542E0,3.376977539E0,-2.459086304E0,-2.414029999E0,4.824792595E0
4.487343542E0,1.969304810E0,-3.703448639E0,-3.581003265E0,5.515186093E0
4.497276542E0,-1.137783966E0,-6.232289886E0,-3.535797272E0,7.255194824E0
4.507210542E0,-5.087021484E0,-1.037911652E1,-2.859653320E0,1.190720220E1
4.517143542E0,-7.146139526E0,-1.629735947E1,-2.465672607E0,1.796526585E1
4.527077542E0,-5.934708710E0,-2.438743607E1,-2.381846924E0,2.521192179E1
4.537011542E0,-1.630110168E0,-3.593726807E1,-2.430944824E0,3.605626143E1
4.546944542E0,4.709656219E0,-4.842699554E1,-2.650238800E0,4.872759511E1
4.556878542E0,6.648873596E0,-4.905239502E1,-2.880909119E0,4.958472158E1
4.566811542E0,-1.605261841E0,-3.419414291E1,-2.056872711E0,3.429354167E1
4.576745542E0,-4.565056915E0,-2.619956772E1,-3.766467590E0,2.685969790E1
4.586679542E0,-6.781198425E0,-2.421828781E1,-5.390440521E0,2.572094410E1
4.596612542E0,-9.529034271E0,-2.468396942E1,-6.026617584E0,2.713707722E1
4.606546542E0,-9.154812469E0,-2.472019409E1,-5.604196014E0,2.695005752E1
4.616479542E0,-5.993536377E0,-2.304128540E1,-2.838846588E0,2.397670455E1
4.626413542E0,-1.892514496E0,-2.062276474E1,5.661227417E-1,2.071715549E1
4.636347542E0,9.813592529E-1,-1.816188217E1,2.494113464E0,1.835858469E1
4.646280542E0,1.793570251E0,-1.550191360E1,2.352208557E0,1.578160653E1
4.656214542E0,1.196761322E0,-1.280467255E1,1.434916077E0,1.294028055E1
4.666147542E0,6.647676086E-1,-1.035845947E1,5.255570984E-1,1.039306542E1
4.676081542E0,3.884422302E-1,-8.007598114E0,-1.035845947E-1,8.017683250E0
4.686015542E0,-6.735992432E-2,-5.615123291E0,-6.607260132E-1,5.654264390E0
4.695948542E0,-6.444099426E-1,-3.307971039E0,-1.718875580E0,3.783182500E0
4.705882542E0,-1.269060974E0,-1.147513733E0,-2.933300171E0,3.395814102E0
4.715815542E0,-1.717678070E0,1.031355286E0,-4.009861450E0,4.482532825E0
4.725749542E0,-1.742077332E0,3.379372559E0,-4.352947998E0,5.779545708E0
4.735683542E0,-1.457968140E0,5.620212708E0,-3.507955170E0,6.783672416E0
4.745616542E0,-1.284329224E0,7.184459839E0,-2.629132690E0,7.757467592E0
4.755550542E0,-1.261726227E0,8.051157532E0,-1.829645233E0,8.352286654E0
4.765483542E0,-1.297651520E0,8.164920959E0,-9.295669556E-1,8.319490878E0
4.775417542E0,-1.112785950E0,7.231462097E0,-9.624984741E-2,7.317212630E0
4.785351542E0,-1.426234131E0,4.683161316E0,3.730242920E-1,4.909713925E0
4.795284542E0,-1.708846436E0,2.837349701E0,3.622467041E-1,3.331956203E0
4.805218542E0,-1.939965820E0,1.390458527E0,1.992356873E-1,2.395106920E0
4.815151542E0,-1.949994965E0,-1.713935852E-1,-1.719923401E-1,1.965054067E0
4.825085542E0,-1.710942078E0,-1.792522430E0,-4.105961609E-1,2.511781970E0
4.835019542E0,-1.189725952E0,-3.449576569E0,-4.224215698E-1,3.673345386E0
4.844952542E0,-3.866459656E-1,-4.766537933E0,-6.147715759E-1,4.821547787E0
4.854886417E0,4.498146057E-1,-5.162763977E0,-6.176156616E-1,5.218995513E0
4.864819417E0,8.467890930E-1,-4.417014771E0,-5.177732849E-1,4.527158096E0
4.874753417E0,5.975573730E-1,-3.257226562E0,-5.165757751E-1,3.351633963E0
4.884687417E0,5.188211060E-1,-2.375559998E0,-6.703060913E-1,2.522255122E0
4.894620417E0,2.845582581E-1,-1.689386902E0,-9.461824036E-1,1.957105681E0
4.904554417E0,-5.804928589E-1,-1.498084717E0,-1.250649261E0,2.036014085E0
4.914487417E0,-2.153571625E0,-2.135309601E0,-1.292113037E0,3.296509356E0
4.924421417E0,-3.899690552E0,-3.746858368E0,-1.079854431E0,5.514763787E0
4.934355417E0,-5.399870911E0,-6.795867920E0,-5.460644531E-1,8.697161205E0
4.944288417E0,-6.351891174E0,-1.077998291E1,-3.779640198E-1,1.251788360E1
4.954222417E0,-6.552324371E0,-1.523352173E1,-9.719288635E-1,1.661137516E1
4.964155417E0,-4.317022705E0,-2.119607254E1,-2.143093414E0,2.173713471E1
4.974089417E0,1.244362335E0,-3.245625687E1,-2.463876343E0,3.257342067E1
4.984023417E0,6.380781097E0,-4.645514603E1,-2.200124817E0,4.694289626E1
4.993956417E0,6.980134735E0,-5.029316483E1,-3.000959473E0,5.086384243E1
5.003890417E0,6.321354675E-1,-3.589550491E1,-2.389031982E0,3.598047168E1
5.013823417E0,-2.657723236E0,-2.635853714E1,-2.820285187E0,2.664188397E1
5.023757417E0,-4.924609222E0,-2.385125107E1,-3.254981232E0,2.457089450E1
5.033690417E0,-7.360194397E0,-2.358615234E1,-3.638483734E0,2.497433899E1
5.043624417E0,-6.563700714E0,-2.330833008E1,-3.830085297E0,2.451591262E1
5.053558417E0,-4.057462463E0,-2.212084946E1,-1.815275116E0,2.256302741E1
5.063491417E0,-1.116827545E0,-2.011591873E1,5.679190063E-1,2.015490070E1
5.073425417E0,1.005908203E0,-1.791354858E1,1.168769531E0,1.797979690E1
5.083358417E0,2.264640656E0,-1.561911987E1,7.412585449E-1,1.579984073E1
5.093292417E0,2.603685608E0,-1.335747299E1,6.265969849E-1,1.362328475E1
5.103226417E0,2.106569366E0,-1.122530685E1,1.043779449E0,1.146885452E1
5.113159417E0,1.267713776E0,-8.977581024E0,1.195414124E0,9.145112038E0
5.123093417E0,5.520520020E-1,-6.647227020E0,5.548960876E-1,6.693153079E0
5.133026417E0,2.252815247E-1,-4.181105347E0,-9.630972290E-1,4.296504388E0
5.142960417E0,5.478607178E-2,-1.825603638E0,-2.805166626E0,3.347355666E0
5.152894417E0,2.097138977E-1,5.002597046E-1,-4.572092285E0,4.604157638E0
5.162827417E0,3.896397400E-1,2.962639160E0,-5.430407410E0,6.198255767E0
5.172761417E0,5.242098999E-1,5.181325378E0,-4.599335632E0,6.948008129E0
5.182694417E0,5.336402893E-1,6.834188232E0,-3.284918976E0,7.601420488E0
5.192628417E0,1.924996948E-1,7.648943939E0,-2.621049500E0,8.087848910E0
5.202562417E0,-4.625381470E-1,7.835007019E0,-2.328108673E0,8.186657836E0
5.212495417E0,-1.628613281E0,7.690707092E0,-1.908082123E0,8.089507660E0
5.222429417E0,-3.148103485E0,6.934030609E0,-1.247805176E0,7.716757985E0
5.232362417E0,-3.780238953E0,5.041815491E0,-7.421566772E-1,6.345148266E0
5.242296417E0,-3.440894623E0,2.934497681E0,-7.505392456E-1,4.584140225E0
5.252230417E0,-2.883304138E0,8.291258240E-1,-9.072633362E-1,3.134329138E0
5.262163417E0,-2.018253021E0,-1.157093811E0,-9.093589783E-1,2.497828076E0
5.272097417E0,-9.009764099E-1,-2.518063660E0,-6.547384644E-1,2.753377116E0
5.282030417E0,9.610015869E-2,-3.419638824E0,-1.769320679E-1,3.425561251E0
5.291964417E0,8.123606873E-1,-4.039499817E0,4.327500916E-1,4.143037690E0
5.301898417E0,1.006207581E0,-4.303251343E0,1.009351044E0,4.533124237E0
5.311831417E0,7.197033691E-1,-4.252656555E0,1.292711792E0,4.502684143E0
5.321765417E0,2.255809021E-1,-4.134252777E0,1.082548828E0,4.279584645E0
5.331698417E0,-1.257385254E0,-4.204007721E0,8.909472656E-1,4.477553531E0
5.341632417E0,-2.886447601E0,-5.004542999E0,6.738986206E-1,5.816456803E0
5.351566417E0,-4.800367584E0,-7.196734314E0,3.444337463E-1,8.657664139E0
5.361499417E0,-6.797065430E0,-1.067475174E1,-3.650907898E-1,1.266032047E1
5.371433417E0,-7.663014679E0,-1.468970261E1,-1.423988800E0,1.662939869E1
5.381366417E0,-6.735992432E0,-1.918231018E1,-2.737357635E0,2.051408650E1
5.391300417E0,-4.988526306E0,-2.553584793E1,-2.964136047E0,2.618684835E1
5.401234417E0,-1.516945496E0,-3.413756058E1,-1.465602264E0,3.420266299E1
5.411167417E0,3.614982605E0,-4.269391754E1,-1.538650360E0,4.287430628E1
5.421101417E0,5.468128967E0,-4.416191483E1,-3.829486542E0,4.466363311E1
5.431034417E0,1.996099091E0,-3.338028534E1,-5.715714111E0,3.392487655E1
5.440968417E0,-1.844913483E0,-2.676239731E1,-5.900729370E0,2.746722087E1
5.450901417E0,-4.298461304E0,-2.418775131E1,-5.593717804E0,2.519551075E1
5.460835417E0,-5.482499084E0,-2.314831284E1,-5.265899506E0,2.436456199E1
5.470769417E0,-5.290747833E0,-2.246094223E1,-4.337530060E0,2.347978078E1
5.480702417E0,-4.658762054E0,-2.106374771E1,-2.860102386E0,2.176156514E1
5.490636417E0,-3.606150970E0,-1.888023834E1,-1.690135345E0,1.929570631E1
5.500569417E0,-2.080373840E0,-1.636217468E1,-1.218316498E0,1.653883342E1
5.510503417E0,-8.066725159E-1,-1.411205383E1,-5.758525085E-1,1.414681554E1
5.520437417E0,7.463479614E-1,-1.180609909E1,1.317260742E-1,1.183039994E1
5.530370417E0,1.979333954E0,-9.752669220E0,6.782395935E-1,9.974584140E0
5.540304417E0,2.300565948E0,-7.883955231E0,7.192543030E-1,8.244190713E0
5.550237417E0,2.405647430E0,-5.937702484E0,-1.466949463E-1,6.408195515E0
5.560171417E0,2.244881744E0,-3.878285065E0,-9.544152832E-1,4.581647916E0
5.570105417E0,1.712139587E0,-1.721120911E0,-1.297501831E0,2.752669642E0
5.580038417E0,1.325343933E0,5.484594727E-1,-1.392404480E0,1.999033409E0
5.589972417E0,1.319655762E0,2.973716125E0,-1.838027802E0,3.736686383E0
5.599905417E0,1.488804016E0,5.406307526E0,-2.389780426E0,6.095551570E0
5.609839417E0,9.984237671E-1,7.223977661E0,-2.353406067E0,7.662977449E0
5.619773417E0,-9.729766846E-3,8.055348816E0,-2.480192413E0,8.428528556E0
5.629706417E0,-1.210532684E0,8.041427765E0,-2.130818939E0,8.406565246E0
5.639640417E0,-2.229014740E0,7.177574158E0,-6.388714600E-1,7.542826675E0
5.649573417E0,-3.629203033E0,5.308261414E0,1.065484314E0,6.517975968E0
5.659507417E0,-3.887266388E0,3.678899689E0,1.557660828E0,5.574177082E0
5.669441417E0,-3.188519440E0,2.186203766E0,7.704478455E-1,3.942046804E0
5.679374417E0,-2.308499451E0,6.715036011E-1,-3.357518005E-1,2.427512322E0
5.689308417E0,-1.360820160E0,-6.307882690E-1,-1.054557037E0,1.833525537E0
5.699241417E0,-4.243675232E-1,-1.677112427E0,-1.312919769E0,2.171762466E0
5.709175417E0,2.743794250E-1,-2.564317474E0,-1.158441010E0,2.827188312E0
5.719109417E0,5.974076843E-1,-3.250041504E0,-7.316784668E-1,3.384526421E0
5.729042417E0,5.192701721E-1,-3.594624939E0,-3.745211792E-1,3.651196527E0
5.738976417E0,5.093907166E-1,-3.453767853E0,-2.305206299E-1,3.498732777E0
5.748909417E0,1.213975525E-1,-3.188519440E0,-4.992118835E-1,3.229644886E0
5.758843417E0,-9.131011963E-1,-2.984643402E0,-8.020321655E-1,3.222592997E0
5.768777417E0,-2.327060852E0,-3.306923218E0,-1.211580505E0,4.221241606E0
5.778710417E0,-3.902085571E0,-4.837340698E0,-1.662442932E0,6.433494644E0
5.788644417E0,-5.452112274E0,-7.760162659E0,-1.726210327E0,9.639784999E0
5.798577417E0,-6.809938660E0,-1.157063873E1,-1.639989624E0,1.352569818E1
5.808511417E0,-7.342680817E0,-1.599633545E1,-2.784958649E0,1.782003659E1
5.818445417E0,-6.049819336E0,-2.323004288E1,-4.539011078E0,2.443026458E1
5.828378417E0,-3.178340607E0,-3.522534851E1,-5.390290833E0,3.577683974E1
5.838312417E0,1.501228180E0,-4.605562683E1,-4.421056366E0,4.629168595E1
5.848245417E0,4.207749939E0,-4.196149063E1,2.496807861E-1,4.217267120E1
5.858179333E0,1.695224762E0,-3.026646057E1,1.991159363E0,3.037922214E1
5.868113333E0,1.062789917E0,-2.495670227E1,-1.938169556E0,2.505440105E1
5.878046333E0,-1.422491913E0,-2.386172928E1,-4.559967499E0,2.433513737E1
5.887980333E0,-3.570525055E0,-2.459849716E1,-5.306315460E0,2.541636669E1
5.897913333E0,-3.505111084E0,-2.492092667E1,-5.464237061E0,2.575259747E1
5.907847333E0,-2.633473663E0,-2.356220215E1,-4.095633087E0,2.406006575E1
5.917780333E0,-8.770262146E-1,-2.092289062E1,-1.662891998E0,2.100718298E1
5.927714333E0,2.493814087E-1,-1.839255249E1,-4.212240601E-1,1.839906541E1
5.937648333E0,1.174607391E0,-1.579485443E1,-1.660047913E-1,1.583933984E1
5.947581333E0,1.596729584E0,-1.318308563E1,-1.357676697E-1,1.328012519E1
5.957515333E0,1.305435333E0,-1.105900269E1,2.854563904E-1,1.113944286E1
5.967448333E0,1.166673889E0,-9.061706085E0,8.360115051E-1,9.174669497E0
5.977382333E0,9.752220154E-1,-7.136110382E0,8.951385498E-1,7.257851086E0
5.987316333E0,3.453318787E-1,-5.281018066E0,4.475692749E-1,5.311188584E0
5.997249333E0,-1.475930786E-1,-3.075205078E0,-4.465214539E-1,3.110956669E0
6.007183333E0,-2.204914856E-1,-6.804849243E-1,-1.773511963E0,1.912333891E0
6.017116333E0,-1.347198486E-1,1.648222504E0,-3.157533875E0,3.564380315E0
6.027050333E0,-1.118174744E-1,3.833827515E0,-3.847449188E0,5.432642250E0
6.036984333E0,-3.719764709E-1,5.710475006E0,-4.795577545E0,7.466287919E0
6.046917333E0,-1.155297546E0,7.061864777E0,-5.423521729E0,8.978821442E0
6.056851333E0,-2.008523254E0,7.892786865E0,-4.229454803E0,9.177065876E0
6.066784333E0,-2.580334167E0,8.000712433E0,-1.974693604E0,8.635330838E0
6.076718333E0,-3.084485779E0,7.350614319E0,6.457571411E-1,7.997661262E0
6.086652333E0,-3.568130035E0,5.699398041E0,2.531835022E0,7.185045480E0
6.096585333E0,-3.413950653E0,3.682492218E0,3.096161499E0,5.899324031E0
6.106519333E0,-2.812950439E0,1.839824066E0,2.629432068E0,4.267499944E0
6.116452333E0,-2.530637512E0,2.080673218E-1,1.687141571E0,3.048584083E0
6.126386333E0,-2.377955017E0,-1.169817352E0,6.253994751E-1,2.722915203E0
6.136320333E0,-2.251767426E0,-2.297721863E0,-3.601510620E-1,3.237235099E0
6.146253333E0,-1.666783905E0,-3.159928894E0,-9.774673462E-1,3.703884665E0
6.156187333E0,-7.924520874E-1,-3.907923431E0,-1.241069183E0,4.176134406E0
6.166120333E0,-1.257385254E-2,-4.503834229E0,-1.414408722E0,4.720723768E0
6.176054333E0,2.655477905E-1,-4.657115479E0,-1.514550476E0,4.904396329E0
6.185988333E0,-2.706372070E-1,-4.742887115E0,-1.212927704E0,4.903000745E0
6.195921333E0,-1.399439850E0,-5.505700836E0,-8.788224792E-1,5.748347810E0
6.205855333E0,-2.906356201E0,-6.970854034E0,-1.084943848E0,7.629994462E0
6.215788333E0,-4.315076752E0,-9.244026947E0,-1.473535767E0,1.030743563E1
6.225722333E0,-5.587879944E0,-1.294223648E1,-1.843117218E0,1.421699576E1
6.235656333E0,-6.370602264E0,-1.850811218E1,-2.291584625E0,1.970751506E1
6.245589333E0,-4.633314972E0,-2.795706299E1,-3.162174225E0,2.851428281E1
6.255523333E0,5.457650757E-1,-4.043017502E1,-3.717669067E0,4.060440832E1
6.265456333E0,7.705526276E0,-4.697860748E1,-1.231189728E0,4.762226921E1
6.275390333E0,7.793992310E0,-4.027105591E1,-1.087488556E0,4.103275389E1
6.285323333E0,5.797743530E0,-3.148657333E1,-4.882696381E0,3.238609044E1
6.295257333E0,3.675456848E0,-2.457469666E1,-6.326593781E0,2.564079733E1
6.305191333E0,-1.227746887E0,-2.070629105E1,-6.431226196E0,2.171677973E1
6.315124333E0,-6.337371368E0,-2.167597458E1,-8.347241821E0,2.407668158E1
6.325058333E0,-8.113428040E0,-2.264520905E1,-9.179062042E0,2.574661895E1
6.334991333E0,-6.563401337E0,-2.090492798E1,-5.392685852E0,2.256491329E1
6.344925333E0,-2.750230865E0,-1.799243454E1,-1.594633942E0,1.827113373E1
6.354859333E0,9.864486694E-1,-1.549173477E1,-1.094224548E-1,1.552349511E1
6.364792333E0,4.201013947E0,-1.358634705E1,8.083190918E-1,1.424397150E1
6.374726333E0,5.351072388E0,-1.183873123E1,2.038460999E0,1.315085002E1
6.384659333E0,3.356021118E0,-1.023182281E1,2.656376038E0,1.109096071E1
6.394593333E0,1.814227295E-1,-8.404273224E0,2.444865875E0,8.754546920E0
6.404527333E0,-1.162781982E0,-6.147117004E0,-4.101470947E-2,6.256260194E0
6.414460333E0,-1.484163666E0,-3.583098907E0,-2.732268219E0,4.744115217E0
6.424394333E0,-1.465901642E0,-1.001567230E0,-4.463867340E0,4.803968794E0
6.434327333E0,-1.759441223E0,1.514251099E0,-5.275629272E0,5.763753467E0
6.444261333E0,-2.273322601E0,3.858526154E0,-4.664001160E0,6.465997722E0
6.454195333E0,-3.242108002E0,5.245092773E0,-2.340532837E0,6.595480002E0
6.464128333E0,-3.574716339E0,5.937103729E0,2.019300842E-1,6.933150320E0
6.474062333E0,-2.985990601E0,6.278394012E0,1.714235229E0,7.160514902E0
6.483995333E0,-2.395019531E0,6.256389771E0,2.305954742E0,7.084910641E0
6.493929333E0,-1.947450256E0,6.002817078E0,2.070793762E0,6.641879416E0
6.503863333E0,-1.294208679E0,5.254373474E0,1.308429108E0,5.567351564E0
6.513796333E0,-8.945397949E-1,3.683989105E0,6.171665955E-1,3.840946729E0
6.523730333E0,-9.352551270E-1,2.226769409E0,4.363426208E-1,2.454302149E0
6.533663333E0,-5.572911072E-1,1.075812836E0,1.905537415E-1,1.226481701E0
6.543597333E0,9.400451660E-2,2.050735474E-2,-3.540138245E-1,3.668558145E-1
6.553531333E0,7.183561707E-1,-1.028062134E0,-1.071771240E0,1.649739655E0
6.563464333E0,1.081201630E0,-2.212249603E0,-1.637145538E0,2.956905610E0
6.573398333E0,1.154549103E0,-3.367696838E0,-1.885329437E0,4.028502540E0
6.583331333E0,1.006357269E0,-4.115841064E0,-2.038610687E0,4.702003419E0
6.593265333E0,1.009500732E0,-4.152365112E0,-2.011666718E0,4.723137806E0
6.603199333E0,8.909472656E-1,-3.802841949E0,-1.694925385E0,4.257718401E0
6.613132333E0,3.577560425E-1,-3.586990814E0,-1.496288452E0,3.902995211E0
6.623066333E0,-4.164340210E-1,-3.658991089E0,-2.025138702E0,4.202715770E0
6.632999333E0,-1.521286469E0,-4.322261810E0,-2.991678772E0,5.472330541E0
6.642933333E0,-3.796405334E0,-7.057673492E0,-3.270099792E0,8.655460776E0
6.652867333E0,-5.997278595E0,-1.219813385E1,-2.777923279E0,1.387366850E1
6.662800333E0,-6.034551086E0,-1.874312347E1,-4.130660248E0,2.011921565E1
6.672734333E0,-4.343816986E0,-2.955783417E1,-6.345753937E0,3.054182214E1
6.682667333E0,2.188449097E-1,-4.612912399E1,-8.103997650E0,4.683608386E1
6.692601333E0,4.757406921E0,-5.186504608E1,-6.681206360E0,5.250956526E1
6.702534333E0,-6.533912659E-1,-3.597409149E1,-1.391955414E0,3.600693987E1
6.712468333E0,-5.210364990E0,-2.599090164E1,9.891430664E-1,2.652646368E1
6.722402333E0,-2.712808685E0,-2.296793793E1,6.120771790E-1,2.313568979E1
6.732335333E0,-2.193538513E0,-2.438998077E1,-1.974543915E0,2.456789769E1
6.742269333E0,-4.249513092E0,-2.581860992E1,-6.521937561E0,2.696654686E1
6.752202333E0,-5.850583649E0,-2.532403839E1,-1.054601944E1,2.804914928E1
6.762136333E0,-5.583988037E0,-2.326641724E1,-9.551487579E0,2.576311333E1
6.772070333E0,-3.391946411E0,-2.012325348E1,-3.724554749E0,2.074422665E1
6.782003333E0,-5.927673340E-2,-1.693533279E1,1.025667114E0,1.696646703E1
6.791937333E0,2.233954468E0,-1.400367920E1,3.379671936E0,1.457792050E1
6.801870333E0,3.771107941E0,-1.125210114E1,3.983366547E0,1.251791692E1
6.811804333E0,3.402274933E0,-8.707243195E0,3.337759094E0,9.926338426E0
6.821738333E0,2.359692993E0,-6.273753662E0,2.143542480E0,7.037251623E0
6.831671333E0,2.073039093E0,-3.680845642E0,-4.209246826E-1,4.245384943E0
6.841605333E0,1.486858063E0,-1.073268127E0,-3.253484344E0,3.734676927E0
6.851538333E0,5.041516113E-1,1.631008301E0,-5.065615997E0,5.345542288E0
6.861472542E0,-6.616241455E-2,4.538711700E0,-5.427413635E0,7.075386925E0
6.871406542E0,-8.994795227E-1,7.415279846E0,-5.331463165E0,9.177142153E0
6.881339542E0,-1.676813049E0,9.956245880E0,-5.292843475E0,1.139968096E1
6.891273542E0,-2.694097595E0,1.123084534E1,-3.857478333E0,1.217662465E1
6.901206542E0,-3.531007233E0,1.075977493E1,-7.762857056E-1,1.135092015E1
6.911140542E0,-3.049458618E0,8.415499878E0,1.964065704E0,9.163917838E0
6.921074542E0,-2.434088287E0,4.898563385E0,2.533481598E0,6.028203550E0
6.931007542E0,-1.483115845E0,2.622097321E0,1.369352417E0,3.309101541E0
6.940941542E0,-7.015910339E-1,9.497749329E-1,3.592529297E-3,1.180811292E0
6.950874542E0,-5.354365540E-1,-4.682263184E-1,-7.307803345E-1,1.019788255E0
6.960808542E0,-6.258485413E-1,-1.622026978E0,-7.994874573E-1,1.913592984E0
6.970742542E0,-9.837542725E-1,-2.606529694E0,-4.297563171E-1,2.818946613E0
6.980675542E0,-1.161883850E0,-3.503165131E0,-2.104623413E-1,3.696814089E0
6.990609542E0,-7.556286621E-1,-4.060905304E0,-4.502636719E-1,4.155076887E0
7.000542542E0,-2.594105530E-1,-4.115092621E0,-7.747888184E-1,4.195423557E0
7.010476542E0,3.088078308E-1,-3.874093781E0,-7.324269104E-1,3.954796338E0
7.020409542E0,9.169931030E-1,-3.730093231E0,-5.355862427E-1,3.878314645E0
7.030343542E0,9.145980835E-1,-4.032314758E0,-8.020321655E-1,4.211805736E0
7.040277542E0,4.388873291E-1,-4.854105835E0,-2.122136993E0,5.315865966E0
7.050210542E0,-8.223898315E-1,-6.824907532E0,-3.816014557E0,7.862420426E0
7.060144542E0,-3.318748627E0,-1.031235535E1,-4.475543060E0,1.172131609E1
7.070077542E0,-6.113287354E0,-1.609692627E1,-6.086044006E0,1.826261890E1
7.080011542E0,-7.582781525E0,-2.729109787E1,-8.637937317E0,2.961277697E1
7.089945542E0,-5.887107697E0,-4.718712387E1,-9.204509125E0,4.843558283E1
7.099878542E0,-5.321434021E-1,-5.908737717E1,-3.116070099E0,5.917187854E1
7.109812542E0,-2.908451843E0,-3.934163864E1,7.387288055E0,4.013471873E1
7.119745542E0,-8.644822998E0,-2.498873566E1,5.604345703E0,2.702921688E1
7.129679542E0,-7.131619720E0,-2.179333054E1,-2.121538239E0,2.302846456E1
7.139613542E0,-5.485941925E0,-2.246363663E1,-7.333100739E0,2.425870763E1
7.149546542E0,-5.007686462E0,-2.490206589E1,-1.001821701E1,2.730484355E1
7.159480542E0,-3.925586700E0,-2.466465958E1,-9.876611481E0,2.685708691E1
7.169413542E0,-2.025138702E0,-2.157179123E1,-6.541097717E0,2.263248380E1
7.179347542E0,-9.584568787E-1,-1.799872147E1,-1.814676361E0,1.811534334E1
7.189281542E0,9.415420532E-2,-1.480152008E1,3.218457184E0,1.514768393E1
7.199214542E0,2.993774414E-3,-1.187570435E1,3.999383240E0,1.253105857E1
7.209148542E0,-3.174897766E-1,-9.083560638E0,1.717378693E0,9.249933146E0
7.219081542E0,7.933502197E-3,-6.241720276E0,-5.938151550E-1,6.269908403E0
7.229015542E0,7.435038757E-1,-3.314257965E0,-2.430495758E0,4.176650991E0
7.238948542E0,1.524579620E0,-5.453160095E-1,-3.200943604E0,3.587164970E0
7.248882542E0,1.979483643E0,1.786684570E0,-3.199596405E0,4.165094765E0
7.258816542E0,2.368973694E0,3.842210083E0,-3.247796173E0,5.560826797E0
7.268749542E0,2.284399567E0,5.707181854E0,-2.863844604E0,6.781741076E0
7.278683542E0,1.947599945E0,7.716902618E0,-2.092348938E0,8.229316840E0
7.288616542E0,1.281485138E0,9.554930420E0,-1.560504913E0,9.765965138E0
7.298550542E0,-4.378395081E-1,1.013991394E1,-1.311572571E0,1.023375692E1
7.308484542E0,-2.316283264E0,9.717941437E0,-6.069877625E-1,1.000859571E1
7.318417542E0,-3.031346283E0,7.362140350E0,-2.233355713E-1,7.964926215E0
7.328351542E0,-2.985990601E0,3.142115936E0,-1.676513672E-1,4.337872682E0
7.338284542E0,-2.436034241E0,2.192939758E-1,-3.046165466E-1,2.464780702E0
7.348218542E0,-1.758842468E0,-1.742825775E0,-2.972817993E-1,2.493861459E0
7.358152542E0,-1.240171051E0,-3.224444733E0,-5.209167480E-2,3.455109494E0
7.368085542E0,-8.464897156E-1,-4.198020172E0,1.231938171E-1,4.284284645E0
7.378019542E0,-2.642005920E-1,-4.667743378E0,5.957611084E-2,4.675594027E0
7.387952542E0,4.107458496E-1,-4.548441467E0,-2.948867798E-2,4.567045163E0
7.397886542E0,5.472619629E-1,-3.913461914E0,-1.080752563E-1,3.953019108E0
7.407820542E0,-4.640350342E-3,-3.366349640E0,-9.310638428E-2,3.367640157E0
7.417753542E0,-6.572831726E-1,-3.223546600E0,-1.276844788E-1,3.292351315E0
7.427687542E0,-1.283730469E0,-3.382216644E0,-5.704637146E-1,3.662346542E0
7.437620542E0,-1.732796631E0,-4.137545929E0,-1.355131989E0,4.685963421E0
7.447554542E0,-2.565664673E0,-6.326444092E0,-1.846110992E0,7.072104061E0
7.457488542E0,-3.391197968E0,-9.921967163E0,-1.734592896E0,1.062800398E1
7.467421542E0,-3.491339722E0,-1.544069092E1,-2.558030548E0,1.603583204E1
7.477355542E0,-2.935695190E0,-2.531086578E1,-4.951553192E0,2.595719769E1
7.487288542E0,1.124012604E0,-4.343906799E1,-7.950267334E0,4.417491124E1
7.497222542E0,8.417745209E0,-5.739454742E1,-6.140680389E0,5.833267064E1
7.507156542E0,3.003354492E0,-3.973531998E1,4.082011414E-1,3.985075181E1
7.517089542E0,-4.999453583E0,-2.601350464E1,-3.674858093E-1,2.649211214E1
7.527023542E0,-6.211483154E0,-2.273053162E1,-5.253175964E0,2.414239939E1
7.536956542E0,-6.860383759E0,-2.261706757E1,-7.679480438E0,2.485097645E1
7.546890542E0,-6.099965057E0,-2.342344070E1,-8.111931152E0,2.552783922E1
7.556823542E0,-4.836741943E0,-2.340278366E1,-6.100264435E0,2.466368954E1
7.566757542E0,-2.149230652E0,-2.195723969E1,-2.270478516E0,2.217869788E1
7.576691542E0,6.340814209E-1,-1.935430252E1,1.306932220E0,1.940873920E1
7.586624542E0,2.055675201E0,-1.650662430E1,2.244282990E0,1.678485187E1
7.596558542E0,2.116897888E0,-1.346165634E1,7.852670288E-1,1.364969203E1
7.606491542E0,1.507215729E0,-1.033555710E1,-2.245330811E-1,1.044728936E1
7.616425542E0,1.430724792E0,-7.279362488E0,-2.210902405E-1,7.421925125E0
7.626359542E0,1.193019104E0,-4.479884033E0,-1.639091492E-1,4.638913854E0
7.636292542E0,5.516029358E-1,-2.063608704E0,-5.569917297E-1,2.207484194E0
7.646226542E0,-8.113128662E-2,1.179547119E-1,-1.295855255E0,1.303739407E0
7.656159542E0,-6.126759338E-1,2.191891937E0,-1.920057220E0,2.977647023E0
7.666093542E0,-1.123114471E0,4.180207214E0,-2.010618896E0,4.772641493E0
7.676027542E0,-1.659000092E0,6.047574005E0,-1.658401337E0,6.486580582E0
7.685960542E0,-2.354753265E0,7.484136658E0,-8.713380432E-1,7.894073374E0
7.695894542E0,-3.268303528E0,8.277935944E0,-7.005432129E-1,8.927305989E0
7.705827542E0,-3.654051361E0,8.399483185E0,-7.843688965E-1,9.193402182E0
7.715761542E0,-3.723955994E0,7.057523804E0,-2.914439392E-1,7.985075457E0
7.725695542E0,-3.316054230E0,4.465364227E0,6.707551575E-1,5.602285767E0
7.735628542E0,-2.239942017E0,2.329455872E0,5.493576050E-1,3.278032744E0
7.745562542E0,-1.143322449E0,8.928932190E-1,7.110214233E-2,1.452411800E0
7.755495542E0,-8.262817383E-2,-1.118174744E-1,-3.745211792E-1,3.994955273E-1
7.765429542E0,8.587641907E-1,-8.752299500E-1,-9.071136475E-1,1.525240496E0
7.775362542E0,1.446142731E0,-1.522334290E0,-1.210832062E0,2.423828535E0
7.785296542E0,1.782044220E0,-2.162552948E0,-1.212328949E0,3.053204601E0
7.795230542E0,2.150428162E0,-2.710713043E0,-9.604028320E-1,3.590916329E0
7.805163542E0,2.381697235E0,-3.104244690E0,-5.255570984E-1,3.947787618E0
7.815097542E0,2.106868744E0,-3.385210419E0,-7.858657837E-1,4.064004246E0
7.825030542E0,1.089434509E0,-3.574866028E0,-2.193239136E0,4.333224270E0
7.834964542E0,-6.746470642E-1,-4.469854889E0,-3.848646698E0,5.936904311E0
7.844898542E0,-2.630779266E0,-6.464906158E0,-4.365372162E0,8.232404588E0
7.854831792E0,-5.329517212E0,-9.965676270E0,-3.713178406E0,1.189563580E1
7.864765792E0,-7.596103821E0,-1.589454712E1,-3.378324738E0,1.793740504E1
7.874698792E0,-7.827522583E0,-2.377565826E1,-3.471281433E0,2.527057242E1
7.884632792E0,-4.548740845E0,-3.637600571E1,-3.938908997E0,3.687031107E1
7.894566792E0,1.019230499E0,-5.090239792E1,-1.303190002E0,5.092927693E1
7.904499792E0,1.275198212E0,-4.364743469E1,1.474733276E0,4.369095472E1
7.914433792E0,-3.310066681E0,-2.739962219E1,-2.923420715E-1,2.760038590E1
7.924366792E0,-2.883753204E0,-2.265029846E1,-4.044140167E0,2.318851273E1
7.934300792E0,-3.033890991E0,-2.346355728E1,-6.588698730E0,2.455919310E1
7.944234792E0,-4.174069977E0,-2.519560547E1,-7.792495422E0,2.670139285E1
7.954167792E0,-4.245621185E0,-2.565784424E1,-7.414232025E0,2.704294930E1
7.964101792E0,-2.934347992E0,-2.434791824E1,-4.197870483E0,2.488078852E1
7.974034792E0,-5.108876038E-1,-2.171713898E1,5.448669434E-1,2.172997956E1
7.983968792E0,8.210426331E-1,-1.887380173E1,2.542313232E0,1.906194794E1
7.993901792E0,5.619314575E-1,-1.562750244E1,1.441352692E0,1.570388796E1
8.003835792E0,-3.674858093E-1,-1.225381805E1,4.954696655E-2,1.225942730E1
8.013769792E0,-8.403524780E-1,-9.306896210E0,-8.309220886E-1,9.381627837E0
8.023702792E0,-8.253836060E-1,-6.582860870E0,-1.501527557E0,6.802198199E0
8.033636792E0,-5.477110291E-1,-4.371659088E0,-1.990261230E0,4.834514486E0
8.043569792E0,-1.420545959E-1,-2.166744232E0,-2.454895020E0,3.277418135E0
8.053503792E0,-2.038760376E-1,4.236190796E-2,-2.806663513E0,2.814377382E0
8.063437792E0,-9.951306152E-1,2.085463257E0,-2.874921570E0,3.688443570E0
8.073370792E0,-1.228645020E0,4.179009705E0,-2.626438293E0,5.086439698E0
8.083304792E0,-1.034498749E0,6.140081635E0,-2.223027191E0,6.611553526E0
8.093237792E0,-1.219214630E0,7.870932312E0,-1.803749084E0,8.166490711E0
8.103171792E0,-1.809437256E0,9.102870483E0,-1.559008026E0,9.410994647E0
8.113105792E0,-2.699037323E0,9.514664154E0,-8.412506104E-1,9.925791607E0
8.123038792E0,-2.841241608E0,8.502469025E0,4.309538269E-1,8.974984935E0
8.132972792E0,-1.914668427E0,5.357359314E0,1.188378754E0,5.812013254E0
8.142905792E0,-7.890092468E-1,2.677931213E0,9.011260986E-1,2.933577921E0
8.152839792E0,3.996688843E-2,8.381071472E-1,4.116439819E-2,8.400687175E-1
8.162773792E0,4.252656555E-1,-6.087840271E-1,-7.879614258E-1,1.082752085E0
8.172706792E0,4.400848389E-1,-1.694027252E0,-1.143621826E0,2.090759163E0
8.182640792E0,2.865042114E-1,-2.645149384E0,-1.199904785E0,2.918676313E0
8.192573792E0,2.724334717E-2,-3.666176147E0,-1.182391205E0,3.852225163E0
8.202507792E0,-1.845661926E-1,-4.366270294E0,-1.299447784E0,4.559270282E0
8.212441792E0,-4.198768616E-1,-4.582869873E0,-1.473535767E0,4.832214866E0
8.222374792E0,-8.487350464E-1,-4.542154541E0,-1.565294952E0,4.878695250E0
8.232308792E0,-1.463506622E0,-4.433929596E0,-1.336271210E0,4.856665939E0
8.242241792E0,-2.146985321E0,-4.278103638E0,-1.129700775E0,4.918123681E0
8.252175792E0,-2.834804993E0,-4.888833618E0,-1.342857513E0,5.808621161E0
8.262109792E0,-3.425626373E0,-6.762187958E0,-1.471589813E0,7.721896050E0
8.272042792E0,-2.861599274E0,-9.981094208E0,-1.179098053E0,1.044994087E1
8.281976792E0,-2.131717072E0,-1.404035294E1,-1.739682312E0,1.430741845E1
8.291909792E0,-2.086810455E0,-1.943588287E1,-3.173550568E0,1.980352858E1
8.301843792E0,-6.731501770E-1,-2.809342941E1,-4.652325439E0,2.848399620E1
8.311776792E0,1.649420013E0,-4.044768860E1,-5.893095245E0,4.090800253E1
8.321710792E0,1.852248230E0,-4.229050644E1,-4.705614624E0,4.259178991E1
8.331644792E0,-3.152893524E0,-2.853800491E1,-1.796713715E0,2.876780565E1
8.341577792E0,-5.831423492E0,-2.262305511E1,-1.670376434E0,2.342217497E1
8.351511792E0,-7.463479614E0,-2.217653366E1,-1.579216003E0,2.345199557E1
8.361444792E0,-6.908733215E0,-2.373629013E1,-2.137854309E0,2.481355446E1
8.371378792E0,-4.766238556E0,-2.520518555E1,-4.263134766E0,2.600370601E1
8.381312792E0,-2.882256317E0,-2.586576187E1,-5.988297272E0,2.670589341E1
8.391245792E0,-9.942324829E-1,-2.503992920E1,-4.896467743E0,2.553354556E1
8.401179792E0,4.974156189E-1,-2.290776306E1,-1.769919434E0,2.298141957E1
8.411112792E0,-2.993774414E-3,-2.022863434E1,7.749385071E-1,2.024347267E1
8.421046792E0,-8.990304565E-1,-1.711211517E1,8.427474976E-1,1.715642634E1
8.430980792E0,-1.369801483E0,-1.414738037E1,-2.137554932E-1,1.421514752E1
8.440913792E0,-9.966275024E-1,-1.172751251E1,-8.584648132E-1,1.180104987E1
8.450847792E0,5.777984619E-2,-9.287286987E0,-1.151555328E0,9.358585244E0
8.460780792E0,8.114625549E-1,-6.780449982E0,-1.387764130E0,6.968418954E0
8.470714792E0,1.242266693E0,-4.436174927E0,-1.595083008E0,4.875157876E0
8.480647792E0,1.021176453E0,-2.525847473E0,-1.998943176E0,3.379124240E0
8.490581792E0,3.344046021E-1,-7.345225525E-1,-2.686014404E0,2.804643150E0
8.500515792E0,-3.857478333E-1,1.093925171E0,-3.121608582E0,3.330152220E0
8.510448792E0,-8.472381592E-1,3.095712433E0,-3.037034454E0,4.418690557E0
8.520382792E0,-8.373587036E-1,5.033582611E0,-2.389181671E0,5.634386618E0
8.530315792E0,-9.231303406E-1,6.536906433E0,-1.360371094E0,6.740469186E0
8.540249792E0,-1.347946930E0,7.514224091E0,-4.644841003E-1,7.648285435E0
8.550183792E0,-2.148332520E0,7.854017487E0,7.095245361E-2,8.142847017E0
8.560116792E0,-3.199895782E0,7.382797394E0,4.620890808E-1,8.059687134E0
8.570050792E0,-3.642225952E0,5.465584259E0,6.465055847E-1,6.599726559E0
8.579983792E0,-3.281625824E0,3.427871704E0,5.505551147E-1,4.777288290E0
8.589917792E0,-2.532433777E0,1.755249939E0,-2.724334717E-2,3.081373944E0
8.599851792E0,-1.616488495E0,3.180885315E-1,-5.896238708E-1,1.749820470E0
8.609784792E0,-7.860154724E-1,-8.428971863E-1,-9.217831421E-1,1.475798140E0
8.619718792E0,-1.571731567E-2,-1.842368774E0,-1.103505249E0,2.147625100E0
8.629651792E0,8.196954346E-1,-2.519111481E0,-1.093476105E0,2.865922757E0
8.639585792E0,1.395398254E0,-2.915936279E0,-1.080303497E0,3.408353902E0
8.649519792E0,1.592987366E0,-3.015179901E0,-1.127754822E0,3.591761340E0
8.659452792E0,1.298549652E0,-3.043171692E0,-1.131946106E0,3.496916804E0
8.669386792E0,6.491999817E-1,-3.215912476E0,-1.450783081E0,3.587244794E0
8.679319792E0,-2.899470520E-1,-3.658991089E0,-1.743574219E0,4.063537392E0
8.689253792E0,-1.226549377E0,-4.292623444E0,-1.853146362E0,4.833755356E0
8.699187792E0,-2.048041077E0,-5.400769043E0,-2.199526062E0,6.180670951E0
8.709120792E0,-3.122806091E0,-7.752977600E0,-2.450554047E0,8.710097283E0
8.719054792E0,-4.535717926E0,-1.166838547E1,-2.757864990E0,1.281911759E1
8.728987792E0,-5.965245209E0,-1.794483353E1,-4.205354919E0,1.937230525E1
8.738921792E0,-5.778733063E0,-3.153612030E1,-6.212530975E0,3.265755932E1
8.748854792E0,-6.104306030E-1,-5.418836472E1,-7.450456696E0,5.470156123E1
8.758788792E0,3.644022217E0,-5.742194046E1,-1.191372528E0,5.754978291E1
8.768722792E0,-7.572752380E-1,-3.429203934E1,6.725813599E0,3.495359776E1
8.778655792E0,-3.748804321E0,-2.318648346E1,3.300785980E0,2.371838395E1
8.788589792E0,-5.118605804E0,-2.059177917E1,-2.735561371E0,2.139403634E1
8.798522792E0,-7.223229218E0,-2.256093430E1,-6.481671295E0,2.455978134E1
8.808456792E0,-7.911348267E0,-2.443982712E1,-8.312214661E0,2.699976840E1
8.818390792E0,-6.266269226E0,-2.415586761E1,-8.045169983E0,2.622016076E1
8.828323792E0,-2.669997711E0,-2.198568054E1,-5.132526855E0,2.273415643E1
8.838257792E0,2.535726929E-1,-1.901780228E1,-1.385219421E0,1.906986983E1
8.848190792E0,1.669777679E0,-1.594065125E1,1.014889526E0,1.605996639E1
8.858125042E0,1.805844727E0,-1.298699341E1,1.444645844E0,1.319128783E1
8.868059042E0,8.192463684E-1,-1.012748978E1,1.204096069E0,1.023166952E1
8.877992042E0,2.647993469E-1,-7.421716461E0,6.912625122E-1,7.458541264E0
8.887926042E0,2.155517578E-1,-5.049599304E0,-8.786727905E-2,5.054961558E0
8.897859042E0,-7.918533325E-2,-2.934647369E0,-8.717871094E-1,3.062423593E0
8.907793042E0,-7.629634094E-1,-9.053173828E-1,-1.768422546E0,2.128152022E0
8.917726042E0,-1.500479736E0,1.183588715E0,-2.891387329E0,3.465897051E0
8.927660042E0,-2.000140686E0,3.103196869E0,-3.788172455E0,5.289673347E0
8.937594042E0,-1.977537689E0,5.025649109E0,-3.951333160E0,6.691848625E0
8.947527042E0,-1.761985931E0,7.073540497E0,-3.643722839E0,8.149618746E0
8.957461042E0,-2.120789795E0,8.478518829E0,-2.387535095E0,9.059986464E0
8.967394042E0,-2.453996887E0,9.069040833E0,-9.201365662E-1,9.440140552E0
8.977328042E0,-2.292183380E0,8.802894287E0,1.737886047E-1,9.098090731E0
8.987262042E0,-1.613045654E0,7.272327118E0,8.659492493E-1,7.499235034E0
8.997195042E0,-5.614823914E-1,5.039869537E0,9.732760620E-1,5.163604722E0
9.007129042E0,2.056723022E-1,3.314856720E0,8.693920898E-1,3.433135415E0
9.017062042E0,4.583468628E-1,1.680555267E0,6.749464417E-1,1.868127552E0
9.026996042E0,3.477268982E-1,9.116043091E-2,2.016307068E-1,4.121639987E-1
9.036930042E0,3.294648743E-1,-1.489851837E0,-6.613247681E-1,1.662996106E0
9.046863042E0,5.725593567E-1,-3.213517456E0,-1.442101135E0,3.568497491E0
9.056797042E0,8.708889771E-1,-4.722230072E0,-1.487905884E0,5.027103379E0
9.066730042E0,1.206491089E0,-5.489085388E0,-8.626560974E-1,5.685934812E0
9.076664042E0,1.400188293E0,-5.529052277E0,-2.122586060E-1,5.707538879E0
9.086598042E0,1.341210938E0,-5.176984406E0,6.227050781E-2,5.348260645E0
9.096531042E0,1.323397980E0,-4.877307587E0,-1.347198486E-3,5.053663357E0
9.106465042E0,8.807684326E-1,-5.094655609E0,-2.677931213E-1,5.177159642E0
9.116398042E0,2.508782959E-1,-5.811514893E0,-8.532257080E-1,5.879169956E0
9.126332042E0,-7.952961731E-1,-7.539970551E0,-1.736389160E0,7.778090975E0
9.136265042E0,-3.199446716E0,-1.097906891E1,-2.702629852E0,1.175077110E1
9.146199042E0,-5.870342560E0,-1.674447968E1,-4.023632812E0,1.819417880E1
9.156133042E0,-6.741231537E0,-2.778477127E1,-5.880521393E0,2.918935164E1
9.166066042E0,-5.344635773E0,-4.691454071E1,-7.971373444E0,4.788613637E1
9.176000042E0,-5.180427246E0,-5.488860855E1,-5.843697968E0,5.544136525E1
9.185933042E0,-7.206613770E0,-3.728820877E1,2.383194122E0,3.805292905E1
9.195867042E0,-7.213948517E0,-2.658112427E1,4.885690155E0,2.797261498E1
9.205801042E0,-6.838529205E0,-2.480237320E1,1.005010071E0,2.574749004E1
9.215734042E0,-6.146218872E0,-2.647903656E1,-5.232967987E0,2.768211223E1
9.225668042E0,-5.395979004E0,-2.610167130E1,-9.294771423E0,2.822776310E1
9.235601042E0,-3.824696503E0,-2.452829315E1,-9.078920288E0,2.643278763E1
9.245535042E0,-1.890418854E0,-2.285237823E1,-5.661377106E0,2.361897680E1
9.255468042E0,-5.135820007E-1,-2.051034851E1,-2.619253235E0,2.068329398E1
9.265402042E0,8.786727905E-2,-1.768826706E1,-1.664239197E0,1.776660362E1
9.275336042E0,4.799020386E-1,-1.463237183E1,-1.042132874E0,1.467728354E1
9.285269042E0,8.794212341E-1,-1.164593216E1,-1.071771240E-1,1.167958066E1
9.295203042E0,1.508113861E0,-9.003926239E0,7.119195557E-1,9.157069651E0
9.305136042E0,2.258653107E0,-6.645281067E0,9.150471497E-1,7.078035434E0
9.315070042E0,2.506537628E0,-4.413871307E0,8.050259399E-1,5.139363537E0
9.325004042E0,1.609153748E0,-2.389930115E0,6.677613831E-1,2.957540702E0
9.334937042E0,2.758763123E-1,-5.051994324E-1,5.544470215E-1,7.992156816E-1
9.344871042E0,-6.120771790E-1,1.366358643E0,2.426454163E-1,1.516723841E0
9.354804042E0,-9.556127930E-1,3.397933960E0,-8.180488586E-1,3.623307183E0
9.364738042E0,-1.129401398E0,5.572462006E0,-2.208956451E0,6.099784334E0
9.374672042E0,-1.561403046E0,7.562573547E0,-3.667822723E0,8.548884235E0
9.384605042E0,-2.476899261E0,8.956774292E0,-4.106859741E0,1.015997700E1
9.394539042E0,-3.645219727E0,9.691446533E0,-2.463427277E0,1.064331888E1
9.404472042E0,-4.098626862E0,8.895551605E0,-1.224453735E-1,9.795130085E0
9.414406042E0,-3.565585327E0,5.894292755E0,1.278191986E0,7.006415671E0
9.424340042E0,-2.362686768E0,3.566633148E0,9.457333374E-1,4.381503432E0
9.434273042E0,-1.124162292E0,1.966760101E0,2.189945984E-1,2.275927237E0
9.444207042E0,2.821632385E-1,4.613406372E-1,-3.261717224E-1,6.315372271E-1
9.454140042E0,1.541045380E0,-9.867480469E-1,-6.875202942E-1,1.954783038E0
9.464074042E0,2.366578674E0,-2.325264587E0,-7.967930603E-1,3.412100409E0
9.474008042E0,2.378404083E0,-3.570525055E0,-5.339396667E-1,4.323256495E0
9.483941042E0,1.785337372E0,-4.338428192E0,-5.538482666E-3,4.691419762E0
9.493875042E0,7.556286621E-1,-4.437522125E0,2.056723022E-1,4.506093473E0
9.503808042E0,-2.857557678E-1,-3.898642731E0,8.247848511E-2,3.909971125E0
9.513742042E0,-5.188211060E-1,-3.012635193E0,-1.395098877E-1,3.060164890E0
9.523675042E0,-5.123844910E-1,-2.307002563E0,-4.099974060E-1,2.398519662E0
9.533609042E0,-5.917195129E-1,-1.998344421E0,-1.105750580E0,2.359278863E0
9.543543042E0,-1.368603973E0,-2.222578125E0,-2.615660706E0,3.695214647E0
9.553476042E0,-3.705544281E0,-3.877237244E0,-4.242777100E0,6.838507482E0
9.563410042E0,-6.620582428E0,-7.324418793E0,-4.094734955E0,1.068859564E1
9.573343042E0,-7.563022614E0,-1.235530701E1,-3.808679810E0,1.497861690E1
9.583277042E0,-7.730224915E0,-1.940594513E1,-4.862787781E0,2.144746578E1
9.593211042E0,-5.576653290E0,-3.215972351E1,-5.653443604E0,3.312564419E1
9.603144042E0,-1.919009399E-1,-5.202790741E1,-5.593268738E0,5.232804822E1
9.613078042E0,3.851191406E0,-5.152240860E1,-1.422791290E0,5.168572915E1
9.623011042E0,-1.742227020E0,-3.270788361E1,1.707199860E0,3.279871242E1
9.632945042E0,-2.802472229E0,-2.610436569E1,-1.722318420E0,2.631079891E1
9.642878042E0,-2.436932373E0,-2.526191757E1,-4.818779297E0,2.583261026E1
9.652812042E0,-4.580325165E0,-2.579510880E1,-5.575755157E0,2.678537030E1
9.662746042E0,-5.504653015E0,-2.523123138E1,-5.354664917E0,2.637401521E1
9.672679042E0,-5.101391602E0,-2.388747574E1,-4.290976868E0,2.480016484E1
9.682613042E0,-3.243006134E0,-2.144141235E1,-2.444566498E0,2.182262949E1
9.692546042E0,-1.175355835E0,-1.862831223E1,-3.805087280E-1,1.866923310E1
9.702480042E0,5.005590820E-1,-1.591879669E1,4.412823486E-1,1.593277683E1
9.712414042E0,1.516646118E0,-1.309731400E1,-1.127156067E-1,1.318531585E1
9.722347042E0,2.246228943E0,-1.027193939E1,-9.717791748E-1,1.055948096E1
9.732281042E0,2.872077484E0,-7.583529968E0,-1.322649536E0,8.216334806E0
9.742214042E0,2.715652771E0,-5.266647949E0,-1.024768982E0,6.013526591E0
9.752148042E0,2.377056885E0,-3.174897766E0,-6.408174133E-1,4.017589105E0
9.762081042E0,1.873504028E0,-1.193019104E0,-4.673281860E-1,2.269737333E0
9.772015042E0,1.576820984E0,7.514373779E-1,-3.983216858E-1,1.791558739E0
9.781949042E0,1.186881866E0,2.583028564E0,-1.761836243E-1,2.848116184E0
9.791882042E0,5.873785400E-1,4.405339050E0,1.574725342E-1,4.447114041E0
9.801816042E0,-2.749781799E-1,6.350543976E0,4.128414917E-1,6.369886960E0
9.811749042E0,-1.099912720E0,8.095465393E0,2.698887634E-1,8.174301675E0
9.821683042E0,-2.418071594E0,8.839418335E0,-1.549278259E-1,9.165499952E0
9.831617042E0,-3.393143921E0,8.201744385E0,-2.411485291E-1,8.879199808E0
9.841550042E0,-3.654201050E0,5.806874542E0,1.706451416E-2,6.860996171E0
9.851484042E0,-3.179687805E0,3.386856995E0,-2.095642090E-3,4.645559087E0
9.861416917E0,-2.226619720E0,1.431772614E0,-1.543290710E-1,2.651721263E0
9.871350917E0,-1.259331207E0,-2.004331970E-1,-2.448907471E-1,1.298483744E0
9.881284917E0,-2.642005920E-1,-1.441652069E0,-2.936892700E-1,1.494796317E0
9.891217917E0,5.893244934E-1,-2.364483032E0,-4.528083801E-1,2.478531581E0
9.901151917E0,1.263971558E0,-3.109483795E0,-8.126600647E-1,3.453538758E0
9.911084917E0,1.654359741E0,-3.726650391E0,-1.091230774E0,4.220854640E0
9.921018917E0,1.717229004E0,-3.836521912E0,-1.217568054E0,4.376099610E0
9.930951917E0,1.374441833E0,-3.251239014E0,-1.074914703E0,3.689862748E0
9.940885917E0,8.837622070E-1,-2.612367554E0,-1.158441010E0,2.991234770E0
9.950819917E0,4.203259277E-1,-2.389481049E0,-1.793719940E0,3.017237941E0
9.960752917E0,-6.113287354E-1,-2.580633545E0,-2.478545837E0,3.629956168E0
9.970686917E0,-2.554887085E0,-3.732488251E0,-3.038231964E0,5.448831987E0
9.980619917E0,-5.396727448E0,-6.418951721E0,-3.249442749E0,8.993691485E0
9.990553917E0,-8.171507263E0,-1.104448288E1,-3.318449249E0,1.413386849E1
1.000048792E1,-9.688752136E0,-1.785502029E1,-4.067192230E0,2.071752206E1
1.001042092E1,-9.098828888E0,-3.220792328E1,-5.173990631E0,3.386604772E1
1.002035492E1,-3.574866028E0,-5.649267288E1,-6.199508057E0,5.694414506E1
1.003028792E1,2.063758392E0,-5.518529160E1,-1.260977783E0,5.523826185E1
1.004022192E1,-1.742376709E-1,-3.194042953E1,4.377496948E0,3.223947700E1
1.005015492E1,-1.734143829E0,-2.383658157E1,1.841620331E0,2.397042848E1
1.006008892E1,-2.956950989E0,-2.223865448E1,-2.554737396E0,2.257937101E1
1.007002292E1,-4.917424164E0,-2.441168564E1,-4.887785797E0,2.537719264E1
1.007995592E1,-5.117258606E0,-2.484518417E1,-5.580096130E0,2.597319744E1
1.008988992E1,-3.630849609E0,-2.380185379E1,-4.550986176E0,2.450352603E1
1.009982292E1,-1.699416046E0,-2.180859879E1,-2.084116058E0,2.197376926E1
1.010975692E1,-1.338217163E-1,-1.912093781E1,-1.901046753E-2,1.912141554E1
1.011969092E1,8.592132568E-1,-1.614377884E1,9.490264893E-1,1.619445874E1
1.012962392E1,1.613345032E0,-1.311931824E1,7.888595581E-1,1.324166502E1
1.013955792E1,1.793719940E0,-1.019859192E1,1.212478638E-2,1.035513667E1
1.014949092E1,1.589993591E0,-7.412286072E0,-9.445358276E-1,7.639516500E0
1.015942492E1,1.178798676E0,-4.890180817E0,-1.375489655E0,5.214921526E0
1.016935892E1,1.053509216E0,-2.582579498E0,-1.305734711E0,3.079698308E0
1.017929192E1,4.206253052E-1,-5.709127808E-1,-8.846603394E-1,1.133794940E0
1.018922592E1,-3.820056152E-1,1.353335724E0,-9.375004578E-1,1.690074844E0
1.019915892E1,-7.458988953E-1,3.326981506E0,-1.772613831E0,3.842828502E0
1.020909292E1,-9.168434143E-1,5.432652740E0,-2.855761414E0,6.205617689E0
1.021902592E1,-1.681154022E0,7.265591125E0,-3.838767242E0,8.387563841E0
1.022895992E1,-2.779120789E0,8.672216034E0,-3.380869446E0,9.713965282E0
1.023889392E1,-3.620820465E0,9.279952240E0,-1.540147247E0,1.007967797E1
1.024882692E1,-3.712280273E0,8.511300659E0,9.861492920E-1,9.337866682E0
1.025876092E1,-3.156635742E0,6.033203888E0,2.426753540E0,7.228625810E0
1.026869392E1,-2.032473450E0,3.590433655E0,2.154918823E0,4.654657591E0
1.027862792E1,-1.045126648E0,1.776056671E0,1.453926544E0,2.522016932E0
1.028856192E1,-1.984872437E-1,2.445913696E-1,7.223977661E-1,7.880867062E-1
1.029849492E1,5.153782654E-1,-8.843609619E-1,8.128097534E-2,1.026798746E0
1.030842892E1,1.029109955E0,-1.997296600E0,-5.075944519E-1,2.303456780E0
1.031836192E1,1.367855530E0,-3.114872589E0,-1.024619293E0,3.552929030E0
1.032829592E1,1.480271759E0,-4.035907288E0,-1.174757080E0,4.456434260E0
1.033822892E1,1.213077393E0,-4.328997803E0,-8.870553589E-1,4.582427953E0
1.034816292E1,5.882766724E-1,-4.028572540E0,-4.420307922E-1,4.095223727E0
1.035809692E1,9.280700684E-2,-3.516786804E0,-2.769241333E-2,3.518120157E0
1.036802992E1,-5.921685791E-1,-3.279979248E0,-4.430786133E-2,3.333300269E0
1.037796392E1,-1.539698181E0,-3.573069763E0,-6.216572571E-1,3.940045148E0
1.038789692E1,-2.723137207E0,-4.712649994E0,-1.484762421E0,5.641725415E0
1.039783092E1,-4.333638153E0,-7.111561432E0,-1.655706940E0,8.490941709E0
1.040776492E1,-5.454207916E0,-1.077549225E1,-1.743125153E0,1.220238102E1
1.041769792E1,-6.914271698E0,-1.629032410E1,-3.351680145E0,1.801153997E1
1.042763192E1,-6.871311035E0,-2.759376846E1,-5.711522827E0,2.900435254E1
1.043756492E1,-3.062631226E-1,-4.945879990E1,-7.141948242E0,4.997273366E1
1.044749892E1,9.146429901E0,-5.801201340E1,-3.808530121E0,5.885198195E1
1.045743192E1,2.175725555E0,-3.622721512E1,9.647438049E-1,3.630531129E1
1.046736592E1,-4.267475739E0,-2.517315216E1,-2.209555206E0,2.562774030E1
1.047729992E1,-7.406597900E0,-2.276645691E1,-5.550906830E0,2.457604157E1
1.048723292E1,-1.166030228E1,-2.423041260E1,-6.015690308E0,2.755474685E1
1.049716692E1,-1.277892609E1,-2.554857147E1,-5.956114197E0,2.918057149E1
1.050709992E1,-9.714348907E0,-2.482123398E1,-6.182742920E0,2.736217354E1
1.051703392E1,-4.313130798E0,-2.283621185E1,-5.212760010E0,2.381739986E1
1.052696792E1,5.763015747E-1,-2.024135788E1,-1.826651459E0,2.033178172E1
1.053690092E1,3.832779694E0,-1.740894791E1,6.947053528E-1,1.783940254E1
1.054683492E1,4.520150299E0,-1.473969864E1,6.462062073E-1,1.543075038E1
1.055676792E1,2.997666321E0,-1.216744766E1,-2.198927307E-1,1.253320146E1
1.056670192E1,1.495390320E0,-9.392069092E0,4.442761230E-1,9.520742372E0
1.057663492E1,7.921527100E-1,-6.787335663E0,2.307002563E0,7.212329176E0
1.058656892E1,2.516267395E-1,-4.693789215E0,3.016826477E0,5.585357214E0
1.059650292E1,-3.664379883E-1,-2.589016113E0,1.671873322E0,3.103617508E0
1.060643592E1,-8.696914673E-1,-4.411326599E-1,-7.354206848E-1,1.221394635E0
1.061636992E1,-1.420396271E0,1.714983673E0,-2.632276154E0,3.447835888E0
1.062630292E1,-2.468516693E0,3.849245453E0,-3.880829773E0,5.997591596E0
1.063623692E1,-2.965034180E0,6.538253632E0,-4.781955872E0,8.625966044E0
1.064617092E1,-3.220702515E0,8.875942383E0,-4.999603271E0,1.068416168E1
1.065610392E1,-3.740272064E0,9.671687622E0,-3.342848511E0,1.089521972E1
1.066603792E1,-3.415297852E0,9.393266602E0,-1.349593506E0,1.008558969E1
1.067597092E1,-1.999691620E0,7.829318848E0,2.951861572E-1,8.086045700E0
1.068590492E1,-9.279203796E-1,5.108576660E0,3.489244080E-1,5.203877397E0
1.069583792E1,2.615061951E-1,3.359164581E0,-2.210902405E-1,3.376574162E0
1.070577192E1,1.050515442E0,1.969604187E0,-4.064048767E-1,2.268939900E0
1.071570592E1,1.366957397E0,6.002517700E-1,-3.150947571E-1,1.525830731E0
1.072563892E1,1.343755646E0,-8.292755127E-1,-2.662962341E-1,1.601340312E0
1.073557292E1,1.228645020E0,-2.298919373E0,-1.869612122E-1,2.613341417E0
1.074550592E1,9.813592529E-1,-3.783382416E0,-3.103047180E-1,3.920884786E0
1.075543992E1,7.694000244E-1,-4.875062256E0,-7.973918152E-1,4.999404175E0
1.076537392E1,4.085005188E-1,-5.129832458E0,-1.157393188E0,5.274619675E0
1.077530692E1,-1.681004333E-1,-4.959636383E0,-1.052611084E0,5.072892755E0
1.078524092E1,-3.936813354E-1,-4.654421082E0,-8.855584717E-1,4.754243831E0
1.079517392E1,-5.763015747E-1,-4.335434418E0,-9.032217407E-1,4.465862135E0
1.080510792E1,-1.256337433E0,-4.130061493E0,-1.415007477E0,4.542910723E0
1.081504192E1,-2.375709686E0,-4.640500031E0,-2.287842407E0,5.693194176E0
1.082497492E1,-4.477938080E0,-7.351662140E0,-2.548899536E0,8.977513827E0
1.083490892E1,-6.726562042E0,-1.258612701E1,-2.291285248E0,1.445362301E1
1.084484192E1,-7.450905762E0,-2.086316483E1,-3.387455750E0,2.241121370E1
1.085477592E1,-4.863835602E0,-3.606031219E1,-5.767207031E0,3.684105983E1
1.086470879E1,2.746788025E-1,-5.757731735E1,-6.115083618E0,5.790178900E1
1.087464279E1,2.291135559E0,-5.375950653E1,1.796264648E-3,5.380830649E1
1.088457679E1,-2.548151093E0,-3.026735870E1,3.843706970E0,3.061666475E1
1.089450979E1,-5.199138336E0,-2.281914734E1,5.483097839E-1,2.341036455E1
1.090444379E1,-5.321583710E0,-2.121837616E1,-3.632196808E0,2.217502184E1
1.091437679E1,-6.374943237E0,-2.387340500E1,-7.119794312E0,2.571518692E1
1.092431079E1,-7.532486115E0,-2.523467422E1,-9.312584381E0,2.793297976E1
1.093424379E1,-6.666087799E0,-2.420840836E1,-8.326435089E0,2.645398425E1
1.094417779E1,-4.191882935E0,-2.165142563E1,-4.007616119E0,2.241466264E1
1.095411179E1,-1.128503265E0,-1.845272736E1,7.509883118E-1,1.850244984E1
1.096404479E1,1.152303772E0,-1.552032532E1,4.212390289E0,1.612304357E1
1.097397879E1,1.225052490E0,-1.266770737E1,3.504212952E0,1.320041939E1
1.098391179E1,6.857240295E-1,-9.709558868E0,9.910890198E-1,9.784069108E0
1.099384579E1,8.640032959E-1,-6.866820374E0,-5.818400574E-1,6.945376994E0
1.100377979E1,1.501677246E0,-4.226311340E0,-1.647773438E0,4.778273684E0
1.101371279E1,1.621877289E0,-1.969155121E0,-2.280357971E0,3.421708682E0
1.102364679E1,1.199755096E0,1.004411316E-1,-2.344424744E0,2.635493899E0
1.103357979E1,8.017327881E-1,2.278112640E0,-2.340083771E0,3.362820947E0
1.104351379E1,3.619473267E-1,4.460424500E0,-2.550845490E0,5.151039244E0
1.105344679E1,-4.312532043E-1,6.328090668E0,-2.773133240E0,6.922498017E0
1.106338079E1,-1.753902740E0,7.685467987E0,-2.710114288E0,8.335905017E0
1.107331479E1,-2.769391022E0,8.496930542E0,-2.099084930E0,9.180060610E0
1.108324779E1,-3.126997375E0,8.249046021E0,-7.126679993E-1,8.850580123E0
1.109318179E1,-2.454296265E0,6.420298920E0,4.927752686E-1,6.891054770E0
1.110311479E1,-1.782792664E0,3.728895721E0,7.876620483E-1,4.207543759E0
1.111304879E1,-1.229992218E0,1.979932709E0,6.914122009E-1,2.431268233E0
1.112298279E1,-7.996371460E-1,5.810916138E-1,4.058061218E-1,1.068534341E0
1.113291579E1,-3.460803223E-1,-6.634204102E-1,-3.173400879E-2,7.489360970E-1
1.114284979E1,2.077679443E-1,-1.769021301E0,-4.480183411E-1,1.836661187E0
1.115278279E1,6.255491638E-1,-2.808010712E0,-9.586065674E-1,3.032352629E0
1.116271679E1,1.034199371E0,-3.623365173E0,-1.570384369E0,4.082211482E0
1.117265079E1,1.571881256E0,-3.770658875E0,-1.745220795E0,4.442350127E0
1.118258379E1,1.492546234E0,-3.399281158E0,-1.279838562E0,3.926931805E0
1.119251779E1,1.078357544E0,-2.671195221E0,-8.075706482E-1,2.991706746E0
1.120245079E1,7.436535645E-1,-1.971849518E0,-9.186396790E-1,2.298936712E0
1.121238479E1,2.396516418E-1,-1.611698456E0,-1.532662811E0,2.236975663E0
1.122231779E1,-7.906558228E-1,-1.661844177E0,-2.154170380E0,2.833251264E0
1.123225179E1,-2.425406342E0,-2.224075012E0,-2.776725769E0,4.305730087E0
1.124218579E1,-4.904550934E0,-4.083358612E0,-2.765798492E0,6.955435193E0
1.125211879E1,-8.174051971E0,-8.313861237E0,-1.879940643E0,1.180972443E1
1.126205279E1,-9.536818085E0,-1.489253082E1,-3.006497955E0,1.793815496E1
1.127198579E1,-8.645421753E0,-2.563389404E1,-4.874463501E0,2.748818356E1
1.128191979E1,-2.534230042E0,-4.482039551E1,-5.810018005E0,4.526639465E1
1.129185279E1,8.422684937E0,-5.967774948E1,-2.439177704E0,6.031852943E1
1.130178679E1,3.362158356E0,-4.044215012E1,1.188678131E0,4.059907105E1
1.131172079E1,-4.439468079E0,-2.427307388E1,-2.067051544E0,2.476214237E1
1.132165379E1,-5.489384766E0,-2.110027176E1,-5.537285156E0,2.249480696E1
1.133158779E1,-6.914271698E0,-2.304218353E1,-7.310946808E0,2.514357410E1
1.134152079E1,-6.233487396E0,-2.528511932E1,-6.792574768E0,2.691342966E1
1.135145479E1,-3.777095490E0,-2.532673279E1,-4.673880615E0,2.602988675E1
1.136138879E1,-8.214916992E-1,-2.348675903E1,-2.116149445E0,2.359620281E1
1.137132179E1,1.027762756E0,-2.069745941E1,8.247848511E-2,2.072312537E1
1.138125579E1,1.407223663E0,-1.767240005E1,1.151705017E0,1.776570929E1
1.139118879E1,1.107696533E0,-1.448088684E1,9.024732971E-1,1.455120385E1
1.140112279E1,8.852590942E-1,-1.159324173E1,-4.775070190E-2,1.162708982E1
1.141105579E1,8.026309204E-1,-9.006620636E0,-6.852749634E-1,9.068243129E0
1.142098979E1,7.750881958E-1,-6.455924835E0,-6.973997498E-1,6.539579008E0
1.143092379E1,8.735833740E-1,-4.030518494E0,-6.511459351E-1,4.175190806E0
1.144085679E1,9.966275024E-1,-1.786534882E0,-1.096619568E0,2.321109161E0
1.145079079E1,7.343728638E-1,3.354524231E-1,-1.575623474E0,1.770429655E0
1.146072379E1,3.644920349E-1,2.590063934E0,-1.632205811E0,3.083079862E0
1.147065779E1,1.143621826E-1,4.864584045E0,-1.640438690E0,5.135006888E0
1.148059079E1,-1.983375549E-1,6.946454773E0,-1.955683136E0,7.219229060E0
1.149052479E1,-1.117875366E0,8.558901672E0,-1.866169281E0,8.831026608E0
1.150045879E1,-2.217189331E0,9.339977417E0,-1.411564636E0,9.702763596E0
1.151039179E1,-2.372715912E0,8.401728516E0,-1.205143890E0,8.813126270E0
1.152032579E1,-1.797013092E0,5.010231171E0,-4.525090027E-1,5.341950658E0
1.153025879E1,-1.220711517E0,2.185155945E0,1.483415222E-1,2.507398716E0
1.154019279E1,-8.313711548E-1,4.691244507E-1,2.986289978E-1,1.000217489E0
1.155012679E1,-7.062313843E-1,-7.658074951E-1,1.131646729E-1,1.047869329E0
1.156005979E1,-5.700146484E-1,-1.787433014E0,-3.450325012E-1,1.907585098E0
1.156999379E1,-4.906796265E-1,-2.559677124E0,-5.734574890E-1,2.668626419E0
1.157992679E1,-4.745132446E-1,-3.047812042E0,-5.789959717E-1,3.138400452E0
1.158986079E1,-5.378315735E-1,-3.118764496E0,-4.296066284E-1,3.193824766E0
1.159979379E1,-5.965095520E-1,-2.721340942E0,-3.088078308E-1,2.803013101E0
1.160972779E1,-4.200265503E-1,-2.171384583E0,-4.284091187E-1,2.252746697E0
1.161966179E1,-3.234773254E-1,-1.688788147E0,-8.048762512E-1,1.898543854E0
1.162959479E1,-6.044430542E-1,-1.540746002E0,-1.276545410E0,2.090171723E0
1.163952879E1,-1.095571747E0,-2.039209442E0,-1.675615540E0,2.857680885E0
1.164946179E1,-1.815275116E0,-3.553161163E0,-2.187251587E0,4.550192029E0
1.165939579E1,-3.137475586E0,-6.362519073E0,-2.740351410E0,7.604927867E0
1.166932979E1,-4.452940063E0,-1.043959076E1,-2.955753479E0,1.172818013E1
1.167926279E1,-4.654121704E0,-1.602342911E1,-3.918102264E0,1.713950567E1
1.168919679E1,-3.779640198E0,-2.549378540E1,-5.487588501E0,2.635018789E1
1.169912979E1,4.457730103E-1,-4.367692337E1,-7.224277039E0,4.427259341E1
1.170906379E1,4.730163574E0,-5.686988846E1,-6.088888092E0,5.739018399E1
1.171899679E1,-1.708996124E0,-3.902250229E1,2.350112915E-1,3.906061422E1
1.172893079E1,-7.265142059E0,-2.537433380E1,2.228865051E-1,2.639486282E1
1.173886479E1,-9.119635620E0,-2.229598526E1,-1.283880157E0,2.412316440E1
1.174879779E1,-1.014694931E1,-2.391247375E1,-2.825374603E0,2.612947996E1
1.175873179E1,-9.120533752E0,-2.572475510E1,-5.511987762E0,2.784473325E1
1.176866479E1,-6.712341614E0,-2.585258926E1,-7.291636963E0,2.768717882E1
1.177859879E1,-2.328857117E0,-2.428370178E1,-5.438340912E0,2.499394526E1
1.178853179E1,2.190544739E0,-2.137195679E1,-5.445675659E-1,2.149082541E1
1.179846579E1,4.116290131E0,-1.835602844E1,2.786006470E0,1.901708328E1
1.180839979E1,3.733536072E0,-1.562540680E1,2.680775299E0,1.628739345E1
1.181833279E1,2.321971436E0,-1.299762131E1,8.226892090E-1,1.322900331E1
1.182826679E1,1.214873657E0,-1.039902512E1,-5.215155029E-1,1.048272960E1
1.183819979E1,8.244854736E-1,-7.943381653E0,-1.229243774E0,8.080106969E0
1.184813379E1,1.201551361E0,-5.462141418E0,-1.928739166E0,5.915974080E0
1.185806729E1,1.224902802E0,-2.949765930E0,-2.594554596E0,4.114999328E0
1.186800029E1,6.559359741E-1,-5.734574890E-1,-3.316503296E0,3.429037708E0
1.187793429E1,7.170089722E-2,1.963766327E0,-3.825145569E0,4.300378801E0
1.188786729E1,-2.794688416E-1,4.445904694E0,-3.473826141E0,5.649038807E0
1.189780129E1,-5.631289673E-1,6.689289551E0,-2.760409698E0,7.258344896E0
1.190773429E1,-1.328637085E0,8.341853027E0,-1.969604187E0,8.673588017E0
1.191766829E1,-2.470163269E0,9.455237732E0,-6.527925110E-1,9.794353741E0
1.192760229E1,-3.492387543E0,9.663305054E0,7.674540710E-1,1.030365086E1
1.193753529E1,-3.576961670E0,8.210426331E0,1.864522705E0,9.147797562E0
1.194746929E1,-3.242856445E0,4.966671753E0,2.111209717E0,6.296122036E0
1.195740229E1,-2.605182495E0,2.647993469E0,1.404379578E0,3.971287857E0
1.196733629E1,-2.171983337E0,1.122515717E0,2.853067017E-1,2.461494072E0
1.197726929E1,-1.813029785E0,-1.287322998E-1,-7.683522034E-1,1.973325649E0
1.198720329E1,-1.268911285E0,-1.187929688E0,-1.257385254E0,2.145304284E0
1.199713729E1,-6.670129395E-1,-2.266586609E0,-1.395547943E0,2.744061803E0
1.200707029E1,1.945953369E-2,-3.310815125E0,-1.440454559E0,3.610648806E0
1.201700429E1,6.884184265E-1,-4.084256744E0,-1.301393738E0,4.341508810E0
1.202693729E1,1.086590424E0,-4.377197571E0,-1.005309448E0,4.620734185E0
1.203687129E1,1.143621826E0,-4.215683441E0,-7.393125916E-1,4.430173909E0
1.204680529E1,1.001567230E0,-3.826792145E0,-6.322851562E-1,4.005903089E0
1.205673829E1,3.996688843E-1,-3.586092682E0,-6.752458191E-1,3.670933513E0
1.206667229E1,-5.754034424E-1,-3.851341095E0,-1.150956573E0,4.060617981E0
1.207660529E1,-2.207309875E0,-5.189857635E0,-1.992207184E0,5.981281520E0
1.208653929E1,-4.859644318E0,-8.087681580E0,-2.559228058E0,9.776317532E0
1.209647229E1,-7.075486450E0,-1.242296631E1,-3.238216095E0,1.465873951E1
1.210640629E1,-8.540789337E0,-1.929742081E1,-4.805906067E0,2.164329609E1
1.211634029E1,-7.509733429E0,-3.414145248E1,-6.406078491E0,3.553973432E1
1.212627329E1,-6.243516541E-1,-5.432997025E1,-8.043822784E0,5.492575504E1
1.213620729E1,1.989063721E0,-5.008494781E1,-2.670596466E0,5.019552229E1
1.214614029E1,-4.086053009E0,-3.082539825E1,2.752476196E0,3.121661628E1
1.215607429E1,-5.514382782E0,-2.410182999E1,1.953437805E-1,2.472538747E1
1.216600729E1,-6.570436707E0,-2.321492432E1,-2.684816895E0,2.427574080E1
1.217594129E1,-5.962999878E0,-2.434507416E1,-4.514761505E0,2.546807953E1
1.218587529E1,-3.455264740E0,-2.433669159E1,-4.528682556E0,2.499444694E1
1.219580829E1,-1.119072876E0,-2.331850891E1,-3.301833801E0,2.357768624E1
1.220574229E1,4.578977966E-1,-2.121134079E1,-1.293310547E0,2.125566514E1
1.221567529E1,1.395398254E0,-1.874312347E1,7.671546936E-1,1.881064433E1
1.222560929E1,1.728305969E0,-1.605651031E1,1.738933868E0,1.624261235E1
1.223554329E1,1.550775146E0,-1.315419571E1,1.555864563E0,1.333635943E1
1.224547629E1,1.043180695E0,-1.030666718E1,8.080197144E-1,1.039078968E1
1.225541029E1,7.298822021E-1,-7.625891876E0,-6.619235229E-1,7.689284602E0
1.226534329E1,6.795867920E-1,-4.996908875E0,-2.105970612E0,5.464983872E0
1.227527729E1,4.314028931E-1,-2.416724396E0,-3.042123871E0,3.909115361E0
1.228521029E1,-1.522334290E-1,-1.237925720E-1,-3.339106293E0,3.344866283E0
1.229514429E1,-5.852828979E-1,2.187700653E0,-2.899919586E0,3.679418952E0
1.230507829E1,-4.400848389E-1,4.410129089E0,-2.254012756E0,4.972271790E0
1.231501129E1,-2.366578674E-1,6.499334564E0,-2.508483582E0,6.970641764E0
1.232494529E1,-1.156195679E0,8.126600647E0,-2.843187561E0,8.686894844E0
1.233487829E1,-2.679128723E0,9.494605865E0,-2.319127350E0,1.013427960E1
1.234481229E1,-3.863316193E0,1.022074585E1,-7.818241882E-1,1.095445602E1
1.235474529E1,-4.700225830E0,9.537117462E0,1.327140198E0,1.071494440E1
1.236467929E1,-4.887636108E0,6.693929901E0,2.585124207E0,8.682197384E0
1.237461329E1,-3.735332336E0,4.000131683E0,1.969304810E0,5.816521519E0
1.238454629E1,-2.756218414E0,2.316732330E0,6.075865173E-1,3.651458615E0
1.239448029E1,-1.906285858E0,8.129594421E-1,-5.415737915E-1,2.141992297E0
1.240441329E1,-7.478448486E-1,-6.595285034E-1,-1.214424591E0,1.571329645E0
1.241434729E1,3.808081055E-1,-2.173031158E0,-1.493743744E0,2.664272809E0
1.242428129E1,1.380878448E0,-3.521576843E0,-1.494941254E0,4.067330587E0
1.243421429E1,1.952389984E0,-4.613556061E0,-1.465602264E0,5.219647131E0
1.244414829E1,1.942959595E0,-5.413342896E0,-1.308279419E0,5.898386926E0
1.245408129E1,1.974244537E0,-5.652246094E0,-1.184337158E0,6.103128862E0
1.246401529E1,2.003583527E0,-5.407205658E0,-1.107995911E0,5.871956651E0
1.247394829E1,1.470092926E0,-5.029690704E0,-1.085392914E0,5.351358666E0
1.248388229E1,1.993853760E-1,-5.196743317E0,-1.520238647E0,5.418211990E0
1.249381629E1,-2.400258636E0,-6.864275665E0,-2.108066254E0,7.571226140E0
1.250374929E1,-5.574108582E0,-1.007854156E1,-1.889969788E0,1.167131836E1
1.251368329E1,-7.045249329E0,-1.449690353E1,-2.511177979E0,1.631262594E1
1.252361629E1,-6.702611847E0,-2.105865829E1,-4.284839630E0,2.251115158E1
1.253355029E1,-5.187013550E0,-3.192216751E1,-5.060825958E0,3.273441381E1
1.254348329E1,-1.666634216E0,-4.578349274E1,-2.948119354E0,4.590857528E1
1.255341729E1,-2.097588043E0,-4.787314728E1,9.442364502E-1,4.792838082E1
1.256335129E1,-5.107828217E0,-3.348282211E1,1.443747711E0,3.390093941E1
1.257328429E1,-5.090015259E0,-2.678470093E1,-2.558629303E0,2.738384639E1
1.258321829E1,-6.050418091E0,-2.556593536E1,-5.736520844E0,2.689111901E1
1.259315129E1,-5.543123016E0,-2.521820847E1,-6.729106750E0,2.668267469E1
1.260308529E1,-3.813469849E0,-2.434073318E1,-6.223907318E0,2.541162857E1
1.261301829E1,-2.448907471E0,-2.285237823E1,-4.427642670E0,2.340581890E1
1.262295229E1,-1.618135071E0,-2.091645401E1,-1.545386353E0,2.103579398E1
1.263288629E1,-6.120771790E-1,-1.876662460E1,7.177574158E-1,1.879031701E1
1.264281929E1,2.197430420E-1,-1.641486511E1,1.161584473E0,1.645738017E1
1.265275329E1,6.667135620E-1,-1.375908783E1,2.170486450E-1,1.377694142E1
1.266268629E1,1.058898010E0,-1.110660370E1,-6.101312256E-1,1.117363731E1
1.267262029E1,1.354832611E0,-8.502618713E0,-1.005010071E0,8.668341343E0
1.268255329E1,1.112187195E0,-6.095474396E0,-1.466500397E0,6.367290780E0
1.269248729E1,4.076023865E-1,-3.828588409E0,-1.771715698E0,4.238302187E0
1.270242129E1,-3.444337463E-1,-1.582658844E0,-1.914518738E0,2.507753102E0
1.271235429E1,-8.373587036E-1,6.691085815E-1,-2.087409210E0,2.346519359E0
1.272228829E1,-9.062155151E-1,3.006497955E0,-2.219434662E0,3.845275898E0
1.273222129E1,-6.289920044E-1,5.165907440E0,-2.392474823E0,5.727666750E0
1.274215529E1,-5.252577209E-1,7.108268280E0,-2.850971375E0,7.676679711E0
1.275208929E1,-1.291813660E0,8.634344788E0,-3.129841461E0,9.274513465E0
1.276202229E1,-2.396516418E0,9.472601624E0,-2.089205475E0,9.991909326E0
1.277195629E1,-3.432062988E0,9.423354034E0,-5.751040649E-1,1.004536721E1
1.278188929E1,-3.613186340E0,7.375312958E0,8.384065247E-1,8.255500121E0
1.279182329E1,-2.950364685E0,4.431085510E0,1.578317871E0,5.552500146E0
1.280175629E1,-2.115700378E0,2.573598175E0,1.135987701E0,3.519952232E0
1.281169029E1,-1.587897949E0,1.126257935E0,1.769320679E-1,1.954784333E0
1.282162429E1,-1.018032990E0,-1.972897339E-1,-5.040019226E-1,1.152966758E0
1.283155729E1,-1.869612122E-1,-1.406624908E0,-8.333171082E-1,1.645589721E0
1.284149129E1,7.795788574E-1,-2.673290863E0,-7.083270264E-1,2.873317666E0
1.285142429E1,1.460812225E0,-3.895349579E0,-3.785627747E-1,4.177443054E0
1.286135917E1,1.425785065E0,-4.605323181E0,-3.808081055E-1,4.835998291E0
1.287129317E1,9.319619751E-1,-4.653822327E0,-6.292913818E-1,4.787757619E0
1.288122617E1,6.253994751E-1,-4.273912354E0,-1.003213806E0,4.434398409E0
1.289116017E1,4.637356567E-1,-3.811074829E0,-1.178798676E0,4.016081228E0
1.290109317E1,-7.544311523E-2,-3.561992798E0,-1.279988251E0,3.785743557E0
1.291102717E1,-1.339264984E0,-4.249812469E0,-1.927092590E0,4.854711379E0
1.292096017E1,-4.000131683E0,-6.681805115E0,-2.376308441E0,8.142138225E0
1.293089417E1,-6.378086700E0,-1.063882645E1,-2.442770233E0,1.264245801E1
1.294082817E1,-7.183112640E0,-1.629646133E1,-3.619772644E0,1.817345628E1
1.295076117E1,-5.793851624E0,-2.680236420E1,-5.679339752E0,2.800339878E1
1.296069517E1,-9.815089417E-1,-4.649436447E1,-7.446415100E0,4.709711653E1
1.297062817E1,2.321222992E0,-5.807697830E1,-4.792883148E0,5.832062426E1
1.298056217E1,-3.998036041E0,-3.982498352E1,1.768123169E0,4.006419679E1
1.299049517E1,-6.545438690E0,-2.732178406E1,3.796105957E-1,2.809745106E1
1.300042917E1,-6.134094086E0,-2.489024048E1,-3.913012848E0,2.593188869E1
1.301036317E1,-5.885610809E0,-2.510743881E1,-5.048701172E0,2.627761941E1
1.302029617E1,-4.555177460E0,-2.468082596E1,-4.739294586E0,2.554121620E1
1.303023017E1,-2.900668030E0,-2.312765579E1,-3.416794739E0,2.355794609E1
1.304016317E1,-1.082249451E0,-2.102467896E1,-1.325044556E0,2.109417294E1
1.305009717E1,5.643264771E-2,-1.888802216E1,2.028282166E-1,1.888919545E1
1.306003017E1,9.045689392E-1,-1.643207932E1,2.233355713E-1,1.645847363E1
1.306996417E1,1.616937561E0,-1.351958588E1,-3.471281433E-1,1.362035929E1
1.307989817E1,2.033371582E0,-1.031714539E1,-6.915618896E-1,1.053832751E1
1.308983117E1,1.800755310E0,-7.283553772E0,-1.292711792E0,7.613407845E0
1.309976517E1,1.252445526E0,-4.602030029E0,-1.990560608E0,5.168136194E0
1.310969817E1,5.703140259E-1,-2.201022949E0,-2.085014191E0,3.084970711E0
1.311963217E1,-7.843688965E-2,6.691085815E-2,-1.695524139E0,1.698655797E0
1.312956517E1,-2.820135498E-1,2.403851166E0,-1.144370270E0,2.677240255E0
1.313949917E1,-9.460327148E-2,4.498744812E0,-1.083596649E0,4.628372971E0
1.314943317E1,2.354603577E-1,6.261628876E0,-1.554667053E0,6.456038058E0
1.315936617E1,-5.209167480E-2,7.689958649E0,-2.382894745E0,8.050861129E0
1.316930017E1,-1.723964996E0,8.564589844E0,-2.359243927E0,9.049325191E0
1.317923317E1,-3.312461700E0,8.951984253E0,-1.064885559E0,9.604395131E0
1.318916717E1,-4.187242584E0,7.686515808E0,7.505392456E-1,8.785148541E0
1.319910017E1,-4.107757874E0,4.788691864E0,2.008822632E0,6.621224425E0
1.320903417E1,-3.303779755E0,2.655777283E0,2.064506836E0,4.714902132E0
1.321896817E1,-2.571652222E0,1.062789917E0,1.282982025E0,3.064141060E0
1.322890117E1,-1.621278534E0,-3.135978699E-1,3.185375977E-1,1.681771063E0
1.323883517E1,-3.197351074E-1,-1.473685455E0,-3.589535522E-1,1.550105484E0
1.324876817E1,9.782157898E-1,-2.598596191E0,-5.806425476E-1,2.836680113E0
1.325870217E1,2.090253296E0,-3.563339996E0,-6.321354675E-1,4.179251849E0
1.326863517E1,2.555036774E0,-4.226910095E0,-6.027964783E-1,4.975775865E0
1.327856917E1,2.138303375E0,-4.301006012E0,-5.278024292E-1,4.832139220E0
1.328850317E1,1.478774872E0,-3.704945526E0,-4.893324280E-1,4.019059927E0
1.329843617E1,9.659413147E-1,-3.026556244E0,-5.792953491E-1,3.229344891E0
1.330837017E1,1.077758789E-1,-2.594853973E0,-8.295748901E-1,2.726367048E0
1.331830317E1,-1.115031281E0,-2.748284912E0,-1.288969574E0,3.233853317E0
1.332823717E1,-3.802093506E0,-4.678670654E0,-2.297721863E0,6.451774940E0
1.333817017E1,-7.878865814E0,-8.454718323E0,-2.033072205E0,1.173423074E1
1.334810417E1,-1.019889130E1,-1.354907455E1,-2.579585724E0,1.715368962E1
1.335803817E1,-1.183259399E1,-2.227517853E1,-3.736230469E0,2.549810340E1
1.336797117E1,-7.178322601E0,-3.942755997E1,-4.082011414E0,4.028304380E1
1.337790517E1,4.325554962E0,-5.758135895E1,-1.807790680E0,5.777189136E1
1.338783817E1,6.839876404E0,-4.984110489E1,7.744894409E-1,5.031420753E1
1.339777217E1,1.843715973E0,-3.211691254E1,-1.226549377E0,3.219316360E1
1.340770617E1,-1.929038544E0,-2.570469681E1,-6.934629364E0,2.669347696E1
1.341763917E1,-5.828280029E0,-2.363210678E1,-8.874595184E0,2.590760040E1
1.342757317E1,-5.380411377E0,-2.306508591E1,-7.059469757E0,2.471402694E1
1.343750617E1,-1.868115234E0,-2.261362473E1,-4.024231567E0,2.304474598E1
1.344744017E1,-1.878593445E-1,-2.113949020E1,-1.252146149E0,2.117737489E1
1.345737317E1,4.456233215E-1,-1.899954025E1,9.065148926E-1,1.902637325E1
1.346730717E1,6.536906433E-1,-1.644570099E1,1.726360016E0,1.654897916E1
1.347724117E1,4.528083801E-1,-1.365909576E1,1.469643860E0,1.374539143E1
1.348717417E1,1.790277100E-1,-1.074046509E1,6.026467896E-1,1.075884865E1
1.349710817E1,-5.986051941E-1,-7.943231964E0,-2.588117981E-1,7.969958956E0
1.350704117E1,-1.342707825E0,-5.381608887E0,-1.199755096E0,5.674856016E0
1.351697517E1,-1.820663910E0,-2.978506165E0,-1.985920258E0,4.016241441E0
1.352690817E1,-2.003433838E0,-5.789959717E-1,-2.618055725E0,3.347118053E0
1.353684217E1,-2.294129333E0,1.668280792E0,-2.840942230E0,4.014616165E0
1.354677617E1,-2.171683960E0,3.722908173E0,-2.434537354E0,4.950073596E0
1.355670917E1,-1.584754486E0,5.608686676E0,-1.952539673E0,6.146643327E0
1.356664317E1,-1.402283936E0,7.024891663E0,-1.545086975E0,7.328219215E0
1.357657617E1,-2.184257813E0,7.644602966E0,-1.145867157E0,8.032680016E0
1.358651017E1,-2.969075775E0,7.951165466E0,-8.490344238E-1,8.529789135E0
1.359644317E1,-3.003803558E0,7.534132690E0,2.993774414E-3,8.110856932E0
1.360637717E1,-3.046913910E0,5.881120148E0,1.236279144E0,6.737925845E0
1.361631117E1,-2.524799652E0,4.329297180E0,1.685195618E0,5.287467411E0
1.362624417E1,-1.505569153E0,2.993774414E0,8.777746582E-1,3.464088923E0
1.363617817E1,-8.418493652E-1,1.683698730E0,-2.903961182E-1,1.904699891E0
1.364611117E1,-3.132984924E-1,6.348298645E-1,-9.930349731E-1,1.219542275E0
1.365604517E1,1.832189941E-1,-4.328997803E-1,-1.124311981E0,1.218625804E0
1.366597817E1,7.243437195E-1,-1.646276550E0,-1.005608826E0,2.060618697E0
1.367591217E1,1.175505524E0,-2.956352234E0,-8.696914673E-1,3.298210881E0
1.368584617E1,1.437460785E0,-4.253554688E0,-8.135581970E-1,4.562992212E0
1.369577917E1,1.515149231E0,-5.170398102E0,-8.077203369E-1,5.448036882E0
1.370571317E1,1.592837677E0,-5.234764252E0,-8.125103760E-1,5.531732256E0
1.371564617E1,1.049766998E0,-4.791685638E0,-1.007554779E0,5.007736878E0
1.372558017E1,-4.846920776E-1,-4.834795990E0,-1.502575378E0,5.086050672E0
1.373551317E1,-2.597398682E0,-6.103856964E0,-1.908830566E0,6.902693958E0
1.374544717E1,-5.513784027E0,-9.443861389E0,-1.843266907E0,1.108990375E1
1.375538117E1,-7.613617401E0,-1.506557098E1,-2.457589417E0,1.705808737E1
1.376531417E1,-8.404871979E0,-2.600287674E1,-4.117637329E0,2.763596224E1
1.377524817E1,-4.768783264E0,-4.837086227E1,-6.744375000E0,4.907105262E1
1.378518117E1,3.016527100E0,-6.189179535E1,-6.817273407E0,6.233914488E1
1.379511517E1,2.903512115E0,-4.073883316E1,9.165440369E-1,4.085245357E1
1.380504817E1,-1.849404144E0,-2.600661896E1,1.835034027E0,2.613679160E1
1.381498217E1,-4.919669495E0,-2.234867569E1,-2.197879486E0,2.298906538E1
1.382491617E1,-7.631280670E0,-2.296374664E1,-4.348457336E0,2.458615842E1
1.383484917E1,-6.962621155E0,-2.446617233E1,-5.479505310E0,2.602108108E1
1.384478317E1,-4.517156525E0,-2.336715775E1,-5.294490051E0,2.438155838E1
1.385471617E1,-2.446512451E0,-2.074176727E1,-3.088227997E0,2.111263804E1
1.386465021E1,-8.638536072E-1,-1.790247162E1,-6.505471802E-1,1.793510370E1
1.387458321E1,5.399272156E-1,-1.517664001E1,1.119222565E0,1.522742863E1
1.388451721E1,1.383123779E0,-1.271949966E1,1.907183990E0,1.293584376E1
1.389445121E1,1.216220856E0,-1.016940262E1,1.428180084E0,1.034096906E1
1.390438421E1,7.942483521E-1,-7.617359619E0,-2.781216431E-1,7.663703391E0
1.391431821E1,5.623805237E-1,-5.344336395E0,-1.672322388E0,5.628042779E0
1.392425121E1,7.140151978E-2,-3.287763062E0,-2.154918823E0,3.931686567E0
1.393418521E1,-3.870950317E-1,-1.194066925E0,-1.927092590E0,2.299853090E0
1.394411821E1,-7.704478455E-1,9.304650879E-1,-1.339564362E0,1.803825890E0
1.395405221E1,-9.454339600E-1,2.907104645E0,-9.455836487E-1,3.199879877E0
1.396398621E1,-1.430575104E0,4.646188202E0,-9.684860229E-1,4.956972374E0
1.397391921E1,-2.231409760E0,6.158343658E0,-1.288221130E0,6.675619807E0
1.398385321E1,-3.084336090E0,7.416926422E0,-1.435664520E0,8.159966868E0
1.399378621E1,-3.462150421E0,8.243058472E0,-9.071136475E-1,8.986509538E0
1.400372021E1,-3.046764221E0,8.045918427E0,3.884422302E-1,8.612227523E0
1.401365421E1,-1.750759277E0,6.564748535E0,1.805844727E0,7.030089370E0
1.402358721E1,-7.180567932E-1,4.445605316E0,1.636995850E0,4.791530820E0
1.403352121E1,-1.420545959E-1,2.750380554E0,3.649411011E-1,2.778120715E0
1.404345421E1,7.125183105E-2,1.345701599E0,-4.233197021E-1,1.412511659E0
1.405338821E1,2.718347168E-1,2.725831604E-1,-8.265811157E-1,9.118289497E-1
1.406332121E1,4.796026611E-1,-7.177574158E-1,-1.160985718E0,1.446748858E0
1.407325521E1,7.084767151E-1,-1.916764069E0,-1.432970123E0,2.495862000E0
1.408318921E1,7.387138367E-1,-3.221900024E0,-1.613794098E0,3.678405808E0
1.409312221E1,4.023632813E-1,-4.214785309E0,-1.691781921E0,4.559433899E0
1.410305621E1,-2.914439392E-1,-4.673581238E0,-1.932930450E0,5.065917615E0
1.411298921E1,-8.369096375E-1,-4.532724152E0,-2.198627930E0,5.106855270E0
1.412292321E1,-1.375639343E0,-4.383035431E0,-2.288740540E0,5.132418187E0
1.413285621E1,-2.513273621E0,-4.987029419E0,-2.797083435E0,6.245853221E0
1.414279021E1,-4.811893616E0,-7.251670074E0,-3.436853027E0,9.356975888E0
1.415272421E1,-8.133935394E0,-1.172826096E1,-3.451821899E0,1.468428018E1
1.416265721E1,-1.136975647E1,-2.028611481E1,-3.638932800E0,2.353804682E1
1.417259121E1,-1.084719315E1,-3.864483765E1,-5.628295898E0,4.053101023E1
1.418252421E1,-1.028511200E0,-6.004089432E1,-8.122259674E0,6.059651746E1
1.419245821E1,7.406148834E0,-5.211517593E1,-8.493338013E-1,5.264564532E1
1.420239121E1,1.454974365E-1,-3.004237656E1,3.044518890E0,3.019660004E1
1.421232521E1,-4.100423126E0,-2.170965454E1,-1.482517090E0,2.214318015E1
1.422225821E1,-6.274951172E0,-1.952854019E1,-4.445455627E0,2.098811497E1
1.423219221E1,-6.758146362E0,-2.226889160E1,-5.348377991E0,2.387846776E1
1.424212621E1,-4.775519257E0,-2.369198227E1,-6.110742645E0,2.492903495E1
1.425205921E1,-2.202070770E0,-2.267320084E1,-5.520969086E0,2.343937396E1
1.426199321E1,6.002517700E-2,-2.048804489E1,-3.358715515E0,2.076161257E1
1.427192621E1,1.471739502E0,-1.792552368E1,-4.008663940E-1,1.799030601E1
1.428186021E1,1.872905273E0,-1.521720566E1,1.843715973E0,1.544248720E1
1.429179321E1,1.822160797E0,-1.219678665E1,2.495310974E0,1.258206865E1
1.430172721E1,1.305435333E0,-9.176068268E0,2.015259247E0,9.485022936E0
1.431166121E1,1.555116119E0,-6.357429657E0,5.667214966E-1,6.569358511E0
1.432159421E1,1.585652618E0,-3.886967010E0,-7.635621643E-1,4.266829496E0
1.433152821E1,1.194066925E0,-1.584006042E0,-1.278790741E0,2.360122184E0
1.434146121E1,4.221221924E-1,6.526428223E-1,-1.359622650E0,1.566110963E0
1.435139521E1,-1.595681763E-1,2.882555695E0,-1.390458527E0,3.204366435E0
1.436132821E1,-7.979905701E-1,5.072351990E0,-1.794917450E0,5.439418380E0
1.437126221E1,-1.709894257E0,6.987768860E0,-2.600392456E0,7.649489717E0
1.438119621E1,-2.805316315E0,8.709338837E0,-2.948867798E0,9.613438713E0
1.439112921E1,-3.981270905E0,9.834099884E0,-2.143991547E0,1.082389663E1
1.440106321E1,-3.947441254E0,9.376950531E0,-3.580554199E-1,1.018026018E1
1.441099621E1,-2.550546112E0,6.549180908E0,9.313632202E-1,7.089745657E0
1.442093021E1,-1.149160309E0,3.529660034E0,3.653901672E-1,3.729957017E0
1.443086321E1,-5.987548828E-2,1.697021027E0,-4.050576782E-1,1.745719669E0
1.444079721E1,8.074209595E-1,2.682421875E-1,-6.267466736E-1,1.056737370E0
1.445073121E1,1.450633392E0,-9.231303406E-1,-3.128494263E-1,1.747678926E0
1.446066421E1,1.545985107E0,-2.011816406E0,5.059478760E-2,2.537722411E0
1.447059821E1,1.361867981E0,-3.130140839E0,2.215393066E-2,3.413642756E0
1.448053121E1,1.080752563E0,-4.186494141E0,-3.276686096E-1,4.336141835E0
1.449046521E1,8.354127502E-1,-4.661157074E0,-6.057902527E-1,4.774021529E0
1.450039821E1,5.833369446E-1,-4.321663055E0,-6.637197876E-1,4.411074417E0
1.451033221E1,5.016069031E-1,-3.449576569E0,-7.005432129E-1,3.555551825E0
1.452026621E1,1.878593445E-1,-2.744842072E0,-1.092727661E0,2.960321414E0
1.453019921E1,-5.406756592E-1,-2.422113190E0,-2.005679169E0,3.190879409E0
1.454013321E1,-2.010319519E0,-3.000211029E0,-3.353925476E0,4.928637427E0
1.455006621E1,-4.359234924E0,-5.318739624E0,-3.717669067E0,7.817479364E0
1.456000021E1,-5.522615662E0,-9.248068542E0,-3.184627533E0,1.123244889E1
1.456993321E1,-5.905669098E0,-1.481843491E1,-4.127516785E0,1.647723689E1
1.457986721E1,-6.167025604E0,-2.562730774E1,-5.836213531E0,2.699726829E1
1.458980121E1,-3.165018311E0,-5.004423248E1,-8.471483459E0,5.085477930E1
1.459973421E1,2.985242157E0,-6.374179825E1,-9.272767181E0,6.448187905E1
1.460966821E1,-1.373693390E0,-3.874707504E1,-6.987469482E-1,3.877771403E1
1.461960121E1,-6.535858612E0,-2.393971710E1,2.547851715E0,2.494632340E1
1.462953521E1,-8.646319885E0,-2.028746201E1,1.681004333E0,2.211709153E1
1.463946821E1,-1.115719849E1,-2.194541428E1,6.750961304E-2,2.461887169E1
1.464940221E1,-1.038779846E1,-2.479518814E1,-3.099005585E0,2.706125547E1
1.465933621E1,-7.620952148E0,-2.516327271E1,-6.138584747E0,2.699910050E1
1.466926921E1,-3.149450684E0,-2.342733261E1,-6.362968140E0,2.447950809E1
1.467920321E1,9.852511597E-1,-2.037532928E1,-3.441792755E0,2.068745274E1
1.468913621E1,3.047362976E0,-1.735401215E1,-5.149291992E-2,1.761961436E1
1.469907021E1,3.062631226E0,-1.438763077E1,3.713777161E-1,1.471467127E1
1.470900321E1,2.087708588E0,-1.146720383E1,-1.226848755E0,1.172008740E1
1.471893721E1,1.179247742E0,-8.679101715E0,-2.321522369E0,9.061285666E0
1.472887121E1,8.044271851E-1,-6.136938171E0,-2.736309814E0,6.767311476E0
1.473880421E1,9.440867615E-1,-3.753145294E0,-2.259401550E0,4.481327346E0
1.474873821E1,1.479523315E0,-1.388961639E0,-1.569785614E0,2.565624788E0
1.475867121E1,1.235979767E0,8.373587036E-1,-1.194965057E0,1.912264906E0
1.476860521E1,3.279679871E-1,2.725831604E0,-1.034648438E0,2.933976538E0
1.477853821E1,-3.165916443E-1,4.578079834E0,-9.859996033E-1,4.693744822E0
1.478847221E1,-9.865983582E-1,6.464756470E0,-1.313668213E0,6.670245626E0
1.479840621E1,-1.982477417E0,8.223898315E0,-1.629361725E0,8.614960234E0
1.480833921E1,-3.322041779E0,9.609267426E0,-1.191971283E0,1.023693204E1
1.481827321E1,-4.063450012E0,9.988728333E0,-2.282752991E-1,1.078602936E1
1.482820621E1,-3.731290741E0,8.291557617E0,1.180295563E0,9.168727061E0
1.483814021E1,-2.469714203E0,5.100643158E0,1.929188232E0,5.986469419E0
1.484807321E1,-1.158141632E0,2.964734802E0,1.372346191E0,3.466161935E0
1.485800721E1,-1.101708984E-1,1.219963074E0,5.360353088E-1,1.337079422E0
1.486794067E1,7.559280396E-1,-2.303709412E-1,-1.990859985E-2,7.905025768E-1
1.487787367E1,1.431622925E0,-1.461410980E0,-4.481680298E-1,2.094306767E0
1.488780767E1,1.687141571E0,-2.888094177E0,-9.220825195E-1,3.469549082E0
1.489774067E1,1.539847870E0,-4.442012787E0,-1.174906769E0,4.845927669E0
1.490767467E1,1.163081360E0,-5.513035583E0,-1.185534668E0,5.757761027E0
1.491760767E1,7.444020081E-1,-5.752836914E0,-1.098266144E0,5.903850899E0
1.492754167E1,4.546046448E-1,-5.411995697E0,-1.186133423E0,5.559071443E0
1.493747567E1,-6.227050781E-2,-5.008584595E0,-1.514999542E0,5.233069928E0
1.494740867E1,-1.268761597E0,-4.739893341E0,-1.887874146E0,5.257415112E0
1.495734267E1,-3.412004700E0,-5.183720398E0,-2.096091156E0,6.550292464E0
1.496727567E1,-6.275250549E0,-7.301067352E0,-1.883832550E0,9.809851121E0
1.497720967E1,-8.956474915E0,-1.149908752E1,-1.455423431E0,1.464806179E1
1.498714267E1,-9.858349457E0,-1.852457794E1,-2.075134735E0,2.108680218E1
1.499707667E1,-8.040978699E0,-3.247242325E1,-4.005969543E0,3.369218607E1
1.500700967E1,-1.664388885E0,-5.214511368E1,-8.307424622E0,5.282893501E1
1.501694367E1,3.801943817E0,-5.040737732E1,-7.917186127E0,5.116678904E1
1.502687767E1,1.842518463E0,-3.045357147E1,-2.784659271E0,3.063607705E1
1.503681067E1,-2.181413727E0,-2.327120728E1,-1.623224487E0,2.342952222E1
1.504674467E1,-6.116580505E0,-2.264880157E1,-2.473007355E0,2.359017879E1
1.505667767E1,-8.031248932E0,-2.422352692E1,-3.398532715E0,2.574548971E1
1.506661167E1,-6.713090057E0,-2.408192139E1,-3.524121552E0,2.524725626E1
1.507654467E1,-4.714745636E0,-2.205139389E1,-2.481539612E0,2.268591717E1
1.508647867E1,-3.169658661E0,-1.937495956E1,-4.623884583E-1,1.963796316E1
1.509641267E1,-1.869911499E0,-1.667412598E1,7.626640320E-1,1.679597281E1
1.510634567E1,-6.996450806E-1,-1.425755127E1,6.997947693E-1,1.429185027E1
1.511627967E1,2.921923828E-1,-1.201446579E1,-1.257385254E-2,1.201802491E1
1.512621267E1,1.242266693E0,-9.734856262E0,-5.354365540E-1,9.828394848E0
1.513614667E1,2.123484192E0,-7.564070435E0,-5.764512634E-1,7.877603869E0
1.514607967E1,2.053579559E0,-5.639073486E0,-2.025288391E-1,6.004777824E0
1.515601367E1,1.620230713E0,-3.582350464E0,-1.224453735E-1,3.933621141E0
1.516594767E1,1.361269226E0,-1.281634827E0,-7.753875732E-1,2.024072040E0
1.517588067E1,9.424401855E-1,7.310797119E-1,-1.492695923E0,1.910709859E0
1.518581467E1,6.465055847E-1,2.658321991E0,-1.643133087E0,3.191321297E0
1.519574767E1,5.463638306E-2,4.459077301E0,-1.933529205E0,4.860544280E0
1.520568167E1,-1.200204163E0,5.918692017E0,-1.973496094E0,6.353431518E0
1.521561467E1,-2.436632996E0,6.946155396E0,-1.380429382E0,7.489448605E0
1.522554867E1,-2.817590790E0,7.368576965E0,-8.487350464E-2,7.889356619E0
1.523548267E1,-2.332599335E0,6.974147186E0,1.413211212E0,7.488452081E0
1.524541567E1,-1.667831726E0,5.732928314E0,1.976789246E0,6.289342211E0
1.525534967E1,-1.436712341E0,4.285139008E0,1.141825562E0,4.661579591E0
1.526528267E1,-1.163231049E0,2.914439392E0,4.023632813E-1,3.163693988E0
1.527521667E1,-6.912625122E-1,1.328188019E0,-1.691482544E-2,1.497402212E0
1.528514967E1,1.706451416E-1,3.323089600E-2,-4.511618042E-1,4.834987387E-1
1.529508367E1,8.842112732E-1,-1.006656647E0,-9.677375793E-1,1.652786496E0
1.530501667E1,1.020278320E0,-1.996997223E0,-1.426832886E0,2.657972506E0
1.531495067E1,8.409512329E-1,-2.947221222E0,-1.677411804E0,3.493854929E0
1.532488467E1,4.243675232E-1,-3.822451172E0,-1.708247681E0,4.208245584E0
1.533481767E1,1.448986816E-1,-4.456532593E0,-1.910028076E0,4.850761345E0
1.534475167E1,-3.891906738E-2,-4.799469452E0,-2.352208557E0,5.345026362E0
1.535468467E1,-8.958869934E-1,-5.439987488E0,-2.852318573E0,6.207398699E0
1.536461867E1,-3.148402863E0,-7.690108337E0,-3.212170258E0,8.908885710E0
1.537455167E1,-6.694528656E0,-1.255798553E1,-3.063080292E0,1.455686008E1
1.538448567E1,-9.611812134E0,-2.141252243E1,-3.399879913E0,2.371586458E1
1.539441967E1,-9.323811035E0,-3.968292892E1,-4.566853180E0,4.101858662E1
1.540435267E1,-3.060685272E0,-5.705176025E1,-6.499184875E0,5.750226558E1
1.541428667E1,1.747316437E0,-4.457310974E1,-1.555714874E0,4.463446511E1
1.542421967E1,3.577560425E-2,-2.642305298E1,5.773493958E-1,2.642938404E1
1.543415367E1,-1.478176117E0,-2.133363647E1,-1.964065704E0,2.147478996E1
1.544408667E1,-4.378395081E0,-2.246752853E1,-3.794459381E0,2.320254520E1
1.545402067E1,-5.139262848E0,-2.515264481E1,-4.179458771E0,2.601029487E1
1.546395467E1,-4.745880890E0,-2.503334290E1,-3.810476074E0,2.576259633E1
1.547388767E1,-3.095862122E0,-2.268712189E1,-2.439626770E0,2.302697637E1
1.548382167E1,-8.744815063E-1,-1.978316071E1,-1.371747437E0,1.984993341E1
1.549375467E1,1.045426025E0,-1.709969101E1,-6.346801758E-1,1.714337094E1
1.550368867E1,2.073637848E0,-1.421758438E1,-8.262817383E-2,1.436824648E1
1.551362167E1,2.331701202E0,-1.109358078E1,2.748284912E-1,1.133930755E1
1.552355567E1,2.122286682E0,-8.093968506E0,2.844085693E-2,8.367630239E0
1.553348867E1,2.005978546E0,-5.418432312E0,-8.418493652E-1,5.838841409E0
1.554342267E1,1.689985657E0,-3.212170258E0,-1.839225311E0,4.069009588E0
1.555335667E1,1.030756531E0,-1.268611908E0,-2.376607819E0,2.884458341E0
1.556328967E1,1.760339355E-1,6.526428223E-1,-2.314487000E0,2.411178274E0
1.557322367E1,-5.263055420E-1,2.719544678E0,-1.810784454E0,3.309359624E0
1.558315667E1,-9.062155151E-1,4.743336182E0,-1.521136780E0,5.063034840E0
1.559309067E1,-1.229393463E0,6.258186035E0,-1.512754211E0,6.554748358E0
1.560302367E1,-1.886526947E0,7.641908569E0,-1.719773712E0,8.057007641E0
1.561295767E1,-3.003204803E0,8.685089264E0,-1.416504364E0,9.298198709E0
1.562289167E1,-3.538341980E0,8.847501526E0,-3.224295044E-1,9.534259699E0
1.563282467E1,-3.422782288E0,7.499105530E0,1.789229279E0,8.435245328E0
1.564275867E1,-2.490820312E0,5.110971680E0,2.563269653E0,6.236711365E0
1.565269167E1,-1.653611298E0,3.095263367E0,1.669927368E0,3.886353438E0
1.566262567E1,-9.330097961E-1,1.627266083E0,5.798941040E-1,1.963359202E0
1.567255867E1,1.598675537E-1,4.032614136E-1,-2.392025757E-1,4.953738736E-1
1.568249267E1,1.039887543E0,-9.071136475E-1,-6.598278809E-1,1.529573177E0
1.569242667E1,1.583556976E0,-2.327060852E0,-8.503816223E-1,2.940410483E0
1.570235967E1,1.738784180E0,-3.753294983E0,-1.068478088E0,4.272263929E0
1.571229367E1,1.657952271E0,-4.724475403E0,-1.174607391E0,5.142876247E0
1.572222667E1,1.287472687E0,-5.135670319E0,-1.250349884E0,5.440227052E0
1.573216067E1,9.063652039E-1,-5.173092499E0,-1.492845612E0,5.459942482E0
1.574209367E1,-3.014730835E-1,-5.284760284E0,-1.812730408E0,5.595137962E0
1.575202767E1,-2.780318298E0,-6.282734985E0,-2.404599609E0,7.279081537E0
1.576196167E1,-5.591771851E0,-8.818910980E0,-1.756896515E0,1.058904097E1
1.577189467E1,-6.629264374E0,-1.232911148E1,-1.694476318E-1,1.399938743E1
1.578182867E1,-7.044500885E0,-1.717917572E1,-2.432441711E-1,1.856901287E1
1.579176167E1,-6.133046265E0,-2.569332047E1,-9.416917419E-1,2.643194575E1
1.580169567E1,-2.865042114E0,-4.163486984E1,-3.545077972E0,4.188362963E1
1.581162867E1,6.427633667E-1,-5.324667297E1,-5.353467407E0,5.351897739E1
1.582156267E1,3.772155762E-2,-4.005939606E1,-2.878364410E0,4.016268937E1
1.583149567E1,-5.995033264E-1,-2.720308090E1,-2.198178864E0,2.729833338E1
1.584142967E1,-2.373314667E0,-2.448114120E1,-3.114722900E0,2.479234551E1
1.585136367E1,-4.390370178E0,-2.420601334E1,-4.780009918E0,2.506102406E1
1.586129629E1,-5.393883362E0,-2.437755661E1,-6.538403320E0,2.580910618E1
1.587123029E1,-5.035827942E0,-2.326941101E1,-6.419400787E0,2.465834054E1
1.588116329E1,-3.719016266E0,-2.065629501E1,-4.270619202E0,2.141849187E1
1.589109729E1,-1.731748810E0,-1.756537262E1,-2.186503143E0,1.778544532E1
1.590103029E1,-5.945635986E-1,-1.507440262E1,-1.124910736E0,1.512800530E1
1.591096429E1,1.122665405E-2,-1.301348831E1,-5.409750366E-1,1.302473255E1
1.592089729E1,4.945715332E-1,-1.097577576E1,1.950444031E-1,1.098864399E1
1.593083129E1,6.827302551E-1,-8.887318726E0,5.592370605E-1,8.931030222E0
1.594076529E1,1.265468445E0,-6.671476593E0,6.727011108E-1,6.823674750E0
1.595069829E1,2.054777069E0,-4.571643219E0,-4.595443726E-2,5.012398860E0
1.596063229E1,2.170935516E0,-2.426005096E0,-1.137035522E0,3.448378100E0
1.597056529E1,1.124012604E0,-3.221301270E-1,-1.465452576E0,1.874759559E0
1.598049929E1,8.981323242E-4,1.633702698E0,-8.861572266E-1,1.858563946E0
1.599043229E1,-1.471440125E-1,3.500171356E0,-1.088237000E-1,3.504952707E0
1.600036629E1,1.127156067E-1,5.515131226E0,3.902384949E-1,5.530069016E0
1.601030029E1,-6.950047302E-1,7.754324799E0,-3.293151855E-3,7.785409142E0
1.602023329E1,-2.714155884E0,9.104666748E0,-1.182241516E0,9.573886032E0
1.603016729E1,-4.756359100E0,9.449699249E0,-1.276395721E0,1.065593515E1
1.604010029E1,-5.563330994E0,8.507408752E0,6.887178040E-1,1.018827697E1
1.605003429E1,-4.282594299E0,6.220314789E0,2.555934906E0,7.972812129E0
1.605996729E1,-2.859952698E0,4.118984528E0,2.200873260E0,5.476240141E0
1.606990129E1,-1.812131653E0,2.393372955E0,1.056053925E0,3.182342710E0
1.607983529E1,-6.340814209E-1,9.925859070E-1,-3.891906738E-2,1.178473897E0
1.608976829E1,1.401236115E0,-3.411405945E-1,-1.150806885E0,1.845046352E0
1.609970229E1,3.089724884E0,-1.574875031E0,-1.763033752E0,3.890362352E0
1.610963529E1,3.756139069E0,-2.828967133E0,-1.707050171E0,5.002564945E0
1.611956929E1,3.487597504E0,-4.166585541E0,-1.208586731E0,5.566368053E0
1.612950229E1,2.268382874E0,-5.446723480E0,-7.047344971E-1,5.942138356E0
1.613943629E1,9.616003418E-1,-6.385720825E0,-1.256038055E0,6.578733713E0
1.614937029E1,-1.953437805E-1,-6.663393402E0,-2.011816406E0,6.963215929E0
1.615930329E1,-2.601889343E0,-7.383246460E0,-2.666405182E0,8.269937910E0
1.616923729E1,-5.964646454E0,-9.583071899E0,-2.743345184E0,1.161629102E1
1.617917029E1,-8.644074554E0,-1.393317581E1,-1.010997620E0,1.642788877E1
1.618910429E1,-9.146280212E0,-2.207369751E1,-6.761439514E-1,2.390313231E1
1.619903729E1,-6.130950623E0,-3.779161194E1,-3.053799591E0,3.840729332E1
1.620897129E1,5.197192383E-1,-5.428805740E1,-6.316265259E0,5.465673327E1
1.621890429E1,4.467759247E0,-4.380131470E1,-2.891387329E0,4.412341966E1
1.622883829E1,-4.691244507E-1,-2.696462677E1,1.805844727E0,2.702910005E1
1.623877229E1,-2.679727478E0,-2.265194504E1,6.706054688E-1,2.281975603E1
1.624870529E1,-4.173920288E0,-2.385693924E1,-3.107837219E0,2.441789943E1
1.625863929E1,-5.993087311E0,-2.557207260E1,-7.516619110E0,2.731936228E1
1.626857229E1,-6.009253693E0,-2.477019012E1,-9.178762665E0,2.709101572E1
1.627850629E1,-3.830684052E0,-2.186353455E1,-6.351591797E0,2.308746416E1
1.628843929E1,-1.045426025E0,-1.874477005E1,-2.782863007E0,1.897903175E1
1.629837329E1,8.508306885E-1,-1.654988434E1,-6.577322388E-1,1.658478810E1
1.630830629E1,1.654958496E0,-1.442011322E1,6.490502930E-1,1.452927456E1
1.631824029E1,2.105970612E0,-1.199530563E1,1.823058929E0,1.231446358E1
