"Time (s)","Acceleration x (m/s^2)","Acceleration y (m/s^2)","Acceleration z (m/s^2)","Absolute acceleration (m/s^2)"
6.193375000E-3,-1.798509979E0,2.516267395E0,7.929460602E0,8.511321001E0
1.622537500E-2,-1.943558350E0,2.325114899E0,8.268505554E0,8.806347850E0
2.625737500E-2,-2.138902130E0,2.219883728E0,8.661588135E0,9.193796556E0
3.629037500E-2,-2.447111206E0,2.263293457E0,8.583450623E0,9.207957163E0
4.632237500E-2,-2.802322540E0,2.273172913E0,8.187074890E0,8.946983959E0
5.635537500E-2,-3.077749786E0,2.049987030E0,7.825876007E0,8.655595060E0
6.638737500E-2,-3.343147888E0,1.850002899E0,7.557184753E0,8.468186933E0
7.642037500E-2,-3.533701630E0,1.731898499E0,7.492968292E0,8.463515431E0
8.645237500E-2,-3.769012299E0,1.660197601E0,7.802225189E0,8.822495547E0
9.648537500E-2,-3.969894562E0,1.544787598E0,8.061036987E0,9.117387173E0
1.065173750E-1,-4.254153442E0,1.822759552E0,8.347391510E0,9.544591082E0
1.165503750E-1,-4.633913727E0,2.237846375E0,8.589737549E0,1.001322645E1
1.265823750E-1,-4.707261200E0,2.520608368E0,8.544531555E0,1.007575278E1
1.366153750E-1,-4.409230957E0,2.571502533E0,8.458310852E0,9.879117642E0
1.466473750E-1,-4.322261810E0,2.519560547E0,8.629105682E0,9.974547478E0
1.566803750E-1,-4.360282745E0,2.542163544E0,9.037905579E0,1.035173407E1
1.667125417E-1,-4.406087494E0,2.625540161E0,9.308991852E0,1.062847108E1
1.767455417E-1,-4.294868774E0,2.615810394E0,9.498497772E0,1.074754957E1
1.867775417E-1,-3.892505493E0,2.518063660E0,9.574689331E0,1.063799414E1
1.968105417E-1,-3.544329529E0,2.429597626E0,9.500593414E0,1.042719961E1
2.068425417E-1,-3.174598389E0,2.344873810E0,9.431886292E0,1.022433309E1
2.168755417E-1,-2.994822235E0,2.149679718E0,9.604178009E0,1.028738637E1
2.269075417E-1,-3.187022552E0,2.066602478E0,9.825567627E0,1.053421747E1
2.369405417E-1,-3.440744934E0,2.104174347E0,9.858948212E0,1.065200147E1
2.469725417E-1,-3.740122375E0,2.278112640E0,9.627679138E0,1.057688603E1
2.570055417E-1,-3.990401917E0,2.509531403E0,9.287286987E0,1.041512145E1
2.670375417E-1,-3.999383240E0,2.637515259E0,9.005273438E0,1.020031876E1
2.770705417E-1,-3.923041992E0,2.556234283E0,8.896749115E0,1.005369270E1
2.871025417E-1,-3.886967010E0,2.338137817E0,8.729995880E0,9.838100887E0
2.971355417E-1,-3.827540588E0,2.029030609E0,8.492739258E0,9.533816249E0
3.071675417E-1,-3.676055603E0,1.678309937E0,8.239915009E0,9.177489220E0
3.172005417E-1,-3.405418396E0,1.239272919E0,8.017327881E0,8.798307688E0
3.272325417E-1,-2.972967682E0,6.610253906E-1,7.918533325E0,8.484023894E0
3.372655417E-1,-2.824177094E0,-1.944456482E-1,7.800877991E0,8.298643431E0
3.472975417E-1,-2.615810394E0,-1.112935638E0,7.781867523E0,8.284838677E0
3.573305417E-1,-2.038161621E0,-1.839674377E0,8.201445007E0,8.648826788E0
3.673625417E-1,-2.002386017E0,-2.580184479E0,7.843539276E0,8.496352752E0
3.773955417E-1,-2.120340729E0,-3.163222046E0,7.243137817E0,8.183206215E0
3.874275417E-1,-2.175276489E0,-3.449875946E0,6.758296051E0,7.893544030E0
3.974605417E-1,-2.016905823E0,-3.339255981E0,6.554869080E0,7.627899335E0
4.074925417E-1,-2.248324585E0,-2.905907135E0,6.586603088E0,7.542055420E0
4.175255417E-1,-2.840343475E0,-2.578687592E0,6.737788696E0,7.753384891E0
4.275575417E-1,-3.630101166E0,-2.477947083E0,6.677913208E0,7.994521939E0
4.375905417E-1,-4.087699585E0,-2.559078369E0,6.564449158E0,8.145560922E0
4.476225417E-1,-4.892426147E0,-2.478845215E0,6.244115295E0,8.310805197E0
4.576555417E-1,-6.555767212E0,-1.775607605E0,6.280040588E0,9.250393283E0
4.676875417E-1,-8.706494751E0,-5.050497437E-1,6.938970337E0,1.114483896E1
4.777205417E-1,-1.011656250E1,6.200106812E-1,7.662266235E0,1.270588737E1
4.877525417E-1,-1.046054718E1,1.444196777E0,8.024363251E0,1.326269796E1
4.977855417E-1,-1.060394897E1,2.048939209E0,8.193511505E0,1.355638287E1
5.078175417E-1,-1.075618240E1,2.360740814E0,8.031697998E0,1.362999376E1
5.178505417E-1,-1.069495972E1,2.482437744E0,7.669301605E0,1.339264155E1
5.278825417E-1,-1.049826874E1,2.562221832E0,7.547604675E0,1.318123528E1
5.379155417E-1,-1.038435562E1,2.560126190E0,7.422614594E0,1.301861341E1
5.479475417E-1,-1.021041733E1,2.546803894E0,6.982080688E0,1.262886704E1
5.579805417E-1,-9.865534515E0,2.634970551E0,6.460116119E0,1.208325045E1
5.680125417E-1,-9.536668396E0,2.881657562E0,5.822142792E0,1.153903554E1
5.780455417E-1,-9.856553192E0,3.365002441E0,5.352419586E0,1.170996489E1
5.880775417E-1,-1.047431854E1,3.742068329E0,4.794380035E0,1.211199836E1
5.981105417E-1,-1.106394241E1,3.719914398E0,4.211492157E0,1.240907938E1
6.081425417E-1,-1.122889938E1,3.344046021E0,4.112547913E0,1.241707999E1
6.181755417E-1,-1.095916031E1,2.845432892E0,3.984414368E0,1.200313463E1
6.282075417E-1,-1.056502991E1,2.345322876E0,3.705095215E0,1.143888661E1
6.382405417E-1,-1.031684601E1,2.156864777E0,3.533252563E0,1.111635061E1
6.482725417E-1,-1.032657578E1,1.893562317E0,3.057541809E0,1.093491232E1
6.583055417E-1,-1.019754410E1,1.416803741E0,2.642754364E0,1.062927039E1
6.683375417E-1,-9.937534790E0,9.593550110E-1,2.325414276E0,1.025097611E1
6.783705417E-1,-1.017209702E1,9.108558655E-1,2.190993805E0,1.044517448E1
6.884025417E-1,-1.044363235E1,9.460327148E-1,2.070195007E0,1.068878581E1
6.984355417E-1,-1.106693619E1,7.544311523E-1,2.454445953E0,1.136092196E1
7.084675417E-1,-1.105615860E1,2.647993469E-1,2.190095673E0,1.127409778E1
7.185005417E-1,-1.029244675E1,-1.161584473E-1,1.118474121E0,1.035369196E1
7.285325417E-1,-9.644144897E0,-5.794450378E-1,1.440155182E0,9.768282055E0
7.385655417E-1,-9.310788116E0,-1.405427399E0,2.519111481E0,9.747406023E0
7.485975417E-1,-8.865015106E0,-2.083666992E0,2.928360443E0,9.565848413E0
7.586305417E-1,-8.727301483E0,-1.796114960E0,2.935395813E0,9.381277563E0
7.686625417E-1,-8.620274048E0,-1.157542877E0,2.936144257E0,9.179867824E0
7.786955417E-1,-9.060059509E0,-9.066645813E-1,3.095562744E0,9.617131988E0
7.887275417E-1,-9.647138672E0,-6.471043396E-1,2.861898651E0,1.008347621E1
7.987605417E-1,-1.061442719E1,-2.933898926E-1,3.178340607E0,1.108395196E1
8.087925417E-1,-1.138831787E1,-2.472857666E-1,4.281546478E0,1.216908273E1
8.188255417E-1,-1.040830582E1,-5.228627014E-1,3.872147827E0,1.111754218E1
8.288575417E-1,-9.818981323E0,-2.588117981E-1,4.111799469E0,1.064829905E1
8.388905417E-1,-9.990524597E0,4.894821167E-2,5.275329895E0,1.129787959E1
8.489225417E-1,-9.800270233E0,-3.288661194E-1,6.141279144E0,1.157016677E1
8.589555417E-1,-9.474397888E0,-7.803273010E-1,6.335126038E0,1.142396376E1
8.689875417E-1,-9.094787292E0,-8.628057861E-1,5.990542603E0,1.092456820E1
8.790205417E-1,-9.177864532E0,-6.379733276E-1,5.453160095E0,1.069472591E1
8.890525417E-1,-9.558373260E0,-2.758763123E-1,4.827910309E0,1.071201779E1
8.990855417E-1,-9.866732025E0,-5.493576050E-2,4.282743988E0,1.075626863E1
9.091175417E-1,-1.011581406E1,-1.571731567E-2,3.794609070E0,1.080411954E1
9.191505417E-1,-1.008857071E1,-1.414558411E-1,3.207230530E0,1.058704852E1
9.291825417E-1,-9.896969147E0,-2.737806702E-1,2.653082886E0,1.025006356E1
9.392155417E-1,-9.693392487E0,-3.306623840E-1,2.455194397E0,1.000495752E1
9.492475417E-1,-9.660311279E0,-2.263293457E-1,2.440225525E0,9.966320264E0
9.592805417E-1,-9.733209686E0,-1.499880981E-1,2.339634705E0,1.001158118E1
9.693125417E-1,-9.931696930E0,-1.498384094E-1,2.422412567E0,1.022394924E1
9.793455417E-1,-9.939480743E0,-1.532812500E-1,2.606380005E0,1.027667209E1
9.893775417E-1,-9.545500031E0,-1.865121460E-1,2.535726929E0,9.878323171E0
9.994105417E-1,-9.281748505E0,-5.987548828E-2,2.300565948E0,9.562794783E0
1.009442542E0,-9.261690216E0,2.932402039E-1,2.282902679E0,9.543402963E0
1.019475542E0,-9.339528351E0,4.703219604E-1,2.448608093E0,9.666626824E0
1.029507542E0,-9.488019562E0,5.351371765E-1,2.630030823E0,9.860321959E0
1.039540542E0,-9.386530609E0,4.117936707E-1,2.711611176E0,9.779026847E0
1.049572542E0,-9.037456512E0,3.721261597E-1,2.834505615E0,9.478845931E0
1.059605542E0,-9.056017914E0,5.098397827E-1,2.869981842E0,9.513579391E0
1.069637542E0,-9.031768341E0,4.721182251E-1,2.698887634E0,9.438205838E0
1.079670542E0,-8.735384674E0,3.171903992E-1,2.902763672E0,9.210515300E0
1.089702542E0,-7.868986359E0,4.685256958E-1,3.202440491E0,8.508589057E0
1.099735542E0,-7.324119415E0,1.013242950E0,2.895728302E0,7.940694484E0
1.109767542E0,-8.752299500E0,1.192270660E0,2.244582367E0,9.113857902E0
1.119800542E0,-7.709567871E0,1.196012878E-1,2.920576630E0,8.245089998E0
1.129832542E0,-5.688171387E0,-7.608677673E-1,3.460952911E0,6.701672070E0
1.139865542E0,-5.000651093E0,-1.461710358E0,2.939287720E0,5.981849281E0
1.149897542E0,-4.228556671E0,-1.996398468E0,3.260070648E0,5.700382355E0
1.159930542E0,-4.331243134E0,-1.687291260E0,3.579356689E0,5.866720821E0
1.169962625E0,-5.262756042E0,-1.174308014E0,3.337609406E0,6.341548472E0
1.179995625E0,-6.498436432E0,-1.018332367E0,3.053350525E0,7.251870538E0
1.190027625E0,-7.444768524E0,-1.067130890E0,2.580483856E0,7.951241642E0
1.200059625E0,-7.428153076E0,-1.552571411E0,1.904788971E0,7.824075481E0
1.210092625E0,-6.683002625E0,-2.157014465E0,1.183888092E0,7.121574720E0
1.220124625E0,-6.986870728E0,-2.621049500E0,9.024732971E-1,7.516696156E0
1.230157625E0,-8.227341156E0,-2.764151917E0,1.095571747E0,8.748140132E0
1.240189625E0,-8.967851257E0,-2.609373779E0,1.118324432E0,9.406478471E0
1.250222625E0,-9.071435852E0,-2.469265137E0,4.745132446E-1,9.413468094E0
1.260255625E0,-9.434281311E0,-2.475252686E0,-3.273692322E-1,9.759083478E0
1.270287625E0,-9.511071625E0,-2.557282104E0,-2.077679443E-1,9.851057950E0
1.280319625E0,-1.065065186E1,-2.859204254E0,1.175804901E0,1.109026380E1
1.290352625E0,-9.990524597E0,-3.514242096E0,2.454296265E0,1.087124875E1
1.300385625E0,-9.622140656E0,-3.885470123E0,4.212090912E0,1.119929367E1
1.310417625E0,-1.057880127E1,-4.003724213E0,6.266269226E0,1.293085356E1
1.320449625E0,-1.157003998E1,-3.813469849E0,6.650520172E0,1.387940186E1
1.330482625E0,-1.413780029E1,-2.981499939E0,5.300477600E0,1.539031519E1
1.340514625E0,-1.599768265E1,-2.248025208E0,3.194057922E0,1.646758857E1
1.350547625E0,-1.544084061E1,-1.763482819E0,1.587149506E0,1.562205088E1
1.360579625E0,-1.385204453E1,-1.657952271E0,3.447331238E-1,1.395517052E1
1.370612625E0,-1.261965729E1,-1.534010010E0,-3.113525391E-2,1.271258849E1
1.380644625E0,-1.174891800E1,-1.368304596E0,3.210823059E-1,1.183268463E1
1.390677625E0,-1.142783569E1,-1.391506348E0,5.568420410E-1,1.152570135E1
1.400709625E0,-1.098760117E1,-1.612596588E0,6.629713440E-1,1.112507879E1
1.410742625E0,-1.054527100E1,-1.668280792E0,8.119116211E-1,1.070724529E1
1.420774625E0,-1.024484573E1,-1.623673553E0,7.550299072E-1,1.040015625E1
1.430807625E0,-1.034004776E1,-1.787133636E0,4.981640625E-1,1.050517024E1
1.440839625E0,-1.027119095E1,-2.080523529E0,6.083349609E-1,1.049742888E1
1.450872625E0,-1.011776001E1,-2.006726990E0,1.275647278E0,1.039342565E1
1.460904625E0,-1.038585251E1,-1.792372742E0,1.289418640E0,1.061796274E1
1.470937625E0,-1.032118698E1,-1.655108185E0,7.080276489E-1,1.047700277E1
1.480969625E0,-1.033825150E1,-1.258433075E0,6.150709534E-1,1.043270866E1
1.491002625E0,-1.029169830E1,-7.798782349E-1,2.365081787E-1,1.032391399E1
1.501034625E0,-9.947713623E0,-6.667135620E-1,-3.303630066E-1,9.975502645E0
1.511067625E0,-9.777517548E0,-4.076023865E-1,-9.282197571E-1,9.829932910E0
1.521099625E0,-9.516011353E0,-1.926493835E-1,-1.618284760E0,9.654554957E0
1.531132625E0,-9.233399048E0,-2.604583740E-2,-1.884730682E0,9.423828633E0
1.541164625E0,-8.690328369E0,1.052311707E-1,-1.717827759E0,8.859109039E0
1.551197625E0,-7.767647095E0,8.068222046E-2,-1.079854431E0,7.842763327E0
1.561229625E0,-7.067702637E0,-3.092568970E-1,-5.150788879E-1,7.093191570E0
1.571262625E0,-6.434669037E0,-8.541238403E-1,-4.101470947E-2,6.491238353E0
1.581295625E0,-5.898034973E0,-1.107696533E0,1.667532349E-1,6.003466898E0
1.591327625E0,-5.936355286E0,-1.354233856E0,1.275347900E-1,6.090199384E0
1.601359625E0,-6.199358368E0,-2.038910065E0,2.101629639E-1,6.529423167E0
1.611392625E0,-6.404880981E0,-2.690205688E0,2.109114075E-1,6.950121629E0
1.621425625E0,-6.694528656E0,-3.179687805E0,1.365161133E-1,7.412541070E0
1.631457625E0,-7.554640045E0,-4.090393982E0,2.484832764E-2,8.590956092E0
1.641489625E0,-9.328900452E0,-5.548212433E0,-2.544708252E-1,1.085706223E1
1.651522625E0,-1.165476379E1,-7.104376373E0,-5.788462830E-1,1.366165238E1
1.661554625E0,-1.308623703E1,-8.202642517E0,-4.584965515E-1,1.545131590E1
1.671587625E0,-1.308279419E1,-8.491691437E0,1.055305481E-1,1.559741850E1
1.681620625E0,-1.226908630E1,-8.492589569E0,7.963439941E-1,1.494284846E1
1.691652625E0,-1.079525116E1,-7.129973145E0,1.197360077E0,1.299259927E1
1.701684625E0,-8.516240387E0,-4.321363678E0,1.697170715E0,9.699532092E0
1.711717625E0,-7.129224701E0,-2.717748413E0,2.368674316E0,7.988906013E0
1.721749625E0,-6.753206635E0,-2.490970001E0,2.506238251E0,7.621808287E0
1.731782625E0,-7.108118591E0,-2.678679657E0,2.324516144E0,7.943805758E0
1.741815625E0,-8.123457184E0,-2.736309814E0,1.627266083E0,8.725018219E0
1.751847625E0,-9.317973175E0,-2.849923553E0,1.002315674E0,9.795474724E0
1.761880625E0,-9.971963196E0,-3.128344574E0,5.933660889E-1,1.046798324E1
1.771912625E0,-9.828262024E0,-3.437002716E0,4.117936707E-1,1.042004300E1
1.781945625E0,-9.026379547E0,-3.165317688E0,2.122586060E-1,9.567644303E0
1.791977625E0,-8.373587036E0,-2.780467987E0,1.642085266E-1,8.824677134E0
1.802010625E0,-7.924670563E0,-2.983745270E0,4.206253052E-2,8.467875095E0
1.812042625E0,-7.659272461E0,-3.495381317E0,-9.385482788E-2,8.419676592E0
1.822075625E0,-7.710765381E0,-3.979774017E0,-2.008822632E-1,8.679565523E0
1.832107625E0,-7.888296204E0,-4.287683716E0,-2.353106689E-1,8.981359572E0
1.842140625E0,-8.383765869E0,-4.369264069E0,-1.170565796E-1,9.454718446E0
1.852172625E0,-8.999136200E0,-4.406686249E0,-4.400848389E-2,1.002024315E1
1.862205625E0,-8.986412659E0,-4.520000610E0,-6.975494385E-2,1.005936796E1
1.872237625E0,-8.998387756E0,-4.400998077E0,-1.865121460E-1,1.001871015E1
1.882270625E0,-9.547595673E0,-4.110302582E0,-4.897814941E-1,1.040629888E1
1.892302625E0,-1.022478745E1,-3.659739532E0,-5.770500183E-1,1.087533717E1
1.902335625E0,-1.153486313E1,-2.462678833E0,-6.918612671E-1,1.181509739E1
1.912367625E0,-1.208736420E1,-2.390678558E0,-1.536704407E0,1.241697135E1
1.922400625E0,-1.177406570E1,-2.852168884E0,-2.326013031E0,1.233587561E1
1.932432625E0,-1.061023590E1,-3.157533875E0,-3.469784546E0,1.160114351E1
1.942465625E0,-9.484726410E0,-3.294798431E0,-4.444856873E0,1.098055028E1
1.952497625E0,-7.880662079E0,-3.469185791E0,-4.932692413E0,9.923282688E0
1.962530625E0,-6.604116669E0,-3.658242645E0,-4.411625977E0,8.744114591E0
1.972562625E0,-6.695576477E0,-3.803740082E0,-3.346291351E0,8.396240157E0
1.982595625E0,-7.700137482E0,-4.361929321E0,-3.061733093E0,9.364440943E0
1.992627625E0,-8.293503571E0,-5.143603821E0,-3.350183258E0,1.031807102E1
2.002660625E0,-6.252198486E0,-3.547173615E0,-2.514920197E0,7.615592568E0
2.012692625E0,-4.947661285E0,-1.782044220E0,-1.514101410E0,5.472434273E0
2.022725625E0,-7.002138977E0,-3.583547974E-1,-1.866019592E0,7.255370255E0
2.032757625E0,-9.118438110E0,2.523751831E-1,-2.546354828E0,9.470666804E0
2.042790625E0,-1.045515839E1,1.110690308E-1,-2.345023499E0,1.071549385E1
2.052822625E0,-1.051742889E1,-9.134005737E-1,-1.886077881E0,1.072417367E1
2.062855625E0,-9.827513580E0,-2.007176056E0,-2.710563354E0,1.039018443E1
2.072887625E0,-9.510921936E0,-2.586621094E0,-3.351829834E0,1.041071602E1
2.082920625E0,-9.625284119E0,-2.529290314E0,-3.920197906E0,1.069632439E1
2.092952625E0,-9.832453308E0,-2.507136383E0,-3.726650391E0,1.080975458E1
2.102985625E0,-9.898316345E0,-2.845283203E0,-3.005300446E0,1.072865946E1
2.113017625E0,-9.819430389E0,-2.987038422E0,-2.363734589E0,1.053237167E1
2.123050625E0,-9.284891968E0,-2.262245636E0,-2.318229218E0,9.833674841E0
2.133082625E0,-8.209528198E0,-7.726931763E-1,-2.518512726E0,8.621850981E0
2.143115625E0,-6.900650024E0,1.055305481E-1,-2.232307892E0,7.253503014E0
2.153147625E0,-5.792803802E0,-8.762777710E-1,-1.490749969E0,6.045392799E0
2.163180625E0,-5.689219208E0,-2.437680817E0,-9.976753235E-1,6.269358740E0
2.173213125E0,-6.395001526E0,-3.894750824E0,-1.400637360E0,7.617539859E0
2.183246125E0,-7.278015289E0,-5.239853668E0,-2.071691895E0,9.204209924E0
2.193278125E0,-7.876470795E0,-6.341263275E0,-2.808759155E0,1.049473869E1
2.203311125E0,-8.392896881E0,-7.109166412E0,-3.587439880E0,1.156938590E1
2.213343125E0,-8.760083313E0,-7.761958923E0,-4.172872467E0,1.242577686E1
2.223376125E0,-9.018146667E0,-7.654931488E0,-4.491559753E0,1.265302550E1
2.233408125E0,-8.993298340E0,-6.487359467E0,-4.430935822E0,1.194145888E1
2.243441125E0,-8.544082489E0,-5.023553467E0,-4.182153168E0,1.075768749E1
2.253473125E0,-7.994275818E0,-4.127067719E0,-3.933220825E0,9.818928652E0
2.263506125E0,-7.576793976E0,-4.141437836E0,-3.832031250E0,9.446892494E0
2.273538125E0,-7.094047852E0,-4.324357452E0,-3.594026184E0,9.052215558E0
2.283571125E0,-6.576873322E0,-4.685855713E0,-3.412304077E0,8.766773954E0
2.293603125E0,-6.027515717E0,-5.111720123E0,-3.250490570E0,8.545543709E0
2.303636125E0,-5.429958344E0,-5.967789917E0,-3.296145630E0,8.715706519E0
2.313668125E0,-5.040917358E0,-6.909481659E0,-3.344046021E0,9.183377832E0
2.323701125E0,-5.385949860E0,-7.279512177E0,-3.646566925E0,9.762028670E0
2.333733125E0,-5.754184113E0,-7.609725494E0,-3.676654358E0,1.022430165E1
2.343766125E0,-5.810018005E0,-7.606582031E0,-3.409310303E0,1.016069861E1
2.353798125E0,-5.762566681E0,-7.527845764E0,-3.274141388E0,1.002973770E1
2.363831125E0,-6.001170502E0,-7.217391357E0,-3.487597504E0,1.001339711E1
2.373863125E0,-6.484216003E0,-7.042405243E0,-3.773802338E0,1.028990344E1
2.383896125E0,-7.237749023E0,-7.066505127E0,-4.188589783E0,1.094827795E1
2.393928125E0,-8.116122437E0,-7.651039581E0,-4.986879730E0,1.221797117E1
2.403961125E0,-8.514893188E0,-7.705675964E0,-5.319787445E0,1.265626274E1
2.413993125E0,-8.747359772E0,-6.254443817E0,-5.099445648E0,1.190120651E1
2.424026125E0,-7.501949615E0,-6.162085876E0,-4.325105896E0,1.062812737E1
2.434058125E0,-5.594466248E0,-6.734046478E0,-4.003724213E0,9.626798125E0
2.444091125E0,-4.372557220E0,-7.239245911E0,-4.139940948E0,9.416212033E0
2.454123125E0,-3.727099457E0,-7.558382263E0,-4.315825195E0,9.468197290E0
2.464156125E0,-3.439248047E0,-7.657027130E0,-4.209845581E0,9.390489413E0
2.474188125E0,-3.174299011E0,-7.613767090E0,-4.089645538E0,9.207107262E0
2.484221125E0,-3.368894348E0,-7.283703461E0,-3.993994446E0,8.964026822E0
2.494253125E0,-3.705993347E0,-6.924899597E0,-4.189338226E0,8.901638944E0
2.504286125E0,-3.316054230E0,-7.667205963E0,-4.861141205E0,9.665037856E0
2.514318125E0,-3.497626648E0,-8.102800140E0,-5.134772186E0,1.021051652E1
2.524351125E0,-4.118984528E0,-8.089477844E0,-4.986280975E0,1.035705959E1
2.534383125E0,-4.661157074E0,-7.906558228E0,-4.594096527E0,1.026380880E1
2.544416125E0,-5.327122192E0,-7.606731720E0,-4.510270844E0,1.032391115E1
2.554448125E0,-6.427483978E0,-7.413932648E0,-4.368365936E0,1.074065029E1
2.564481125E0,-7.672145691E0,-7.867190094E0,-3.414549408E0,1.150711289E1
2.574513125E0,-8.744515686E0,-8.263116760E0,-2.078876953E0,1.220931540E1
2.584546125E0,-9.121880951E0,-8.234675903E0,-9.172924805E-1,1.232314995E1
2.594578125E0,-8.356971588E0,-7.960595856E0,1.059796143E-1,1.154215284E1
2.604611125E0,-7.084617462E0,-8.055049438E0,3.797602844E-1,1.073405068E1
2.614643125E0,-5.456902313E0,-8.573870544E0,-3.394940186E-1,1.016879025E1
2.624675125E0,-3.635040894E0,-9.097032623E0,-1.517993317E0,9.913315720E0
2.634708125E0,-2.777623901E0,-9.132508850E0,-2.607278137E0,9.895241873E0
2.644741125E0,-3.068469086E0,-8.365354156E0,-3.444187775E0,9.552857275E0
2.654773125E0,-3.773502960E0,-7.899373169E0,-3.919748840E0,9.591863845E0
2.664805125E0,-4.320615234E0,-7.884404297E0,-4.362827454E0,9.993288273E0
2.674838125E0,-4.817731476E0,-7.941136322E0,-4.399950256E0,1.027773053E1
2.684871125E0,-5.256020050E0,-7.982300720E0,-4.188589783E0,1.043490086E1
2.694903125E0,-5.580245819E0,-8.137078857E0,-3.917353821E0,1.061587758E1
2.704936125E0,-5.733227692E0,-8.239615631E0,-3.601061554E0,1.066437105E1
2.714968125E0,-5.759123840E0,-8.448281708E0,-3.381168823E0,1.076908881E1
2.725001125E0,-5.555846558E0,-8.716673584E0,-3.003803558E0,1.076432372E1
2.735033125E0,-4.943919067E0,-8.923693085E0,-2.570155334E0,1.052047206E1
2.745065125E0,-4.706213379E0,-8.784931641E0,-2.310894470E0,1.023052792E1
2.755098125E0,-4.795128479E0,-8.433761902E0,-2.090402985E0,9.924282422E0
2.765130125E0,-4.688550110E0,-8.519832916E0,-1.844015350E0,9.898002206E0
2.775163125E0,-4.261787567E0,-8.934171295E0,-1.945354614E0,1.008794600E1
2.785195125E0,-3.886967010E0,-9.026229858E0,-2.213746490E0,1.007382805E1
2.795228125E0,-4.041296082E0,-9.132359161E0,-2.335892487E0,1.025614214E1
2.805260125E0,-4.584666138E0,-9.007219391E0,-2.655028839E0,1.044980109E1
2.815293125E0,-5.297633514E0,-8.757688293E0,-2.847977600E0,1.062417063E1
2.825325125E0,-6.091283112E0,-8.471333771E0,-3.053500214E0,1.087157253E1
2.835358125E0,-6.619833984E0,-8.243657227E0,-3.311563568E0,1.107910374E1
2.845390125E0,-6.714437256E0,-8.670868835E0,-3.244952087E0,1.143666683E1
2.855423125E0,-6.466702423E0,-9.265432434E0,-3.265609131E0,1.176140644E1
2.865455125E0,-6.199957123E0,-9.480535126E0,-3.773203583E0,1.193972696E1
2.875488125E0,-6.902446289E0,-9.401798859E0,-4.118236084E0,1.236921400E1
2.885520125E0,-7.672145691E0,-9.074579315E0,-4.479884033E0,1.269957362E1
2.895553125E0,-8.255931702E0,-8.706943817E0,-4.695136414E0,1.288470352E1
2.905585125E0,-8.328530731E0,-8.673712921E0,-4.578379211E0,1.286698396E1
2.915618125E0,-7.575446777E0,-8.969497833E0,-4.456233215E0,1.255775855E1
2.925650125E0,-6.832841034E0,-8.977880402E0,-4.452790375E0,1.212919598E1
2.935683125E0,-6.370452576E0,-9.114396515E0,-4.384083252E0,1.195303626E1
2.945715125E0,-5.483995972E0,-9.737999725E0,-4.114942932E0,1.190947546E1
2.955748125E0,-4.340523834E0,-9.963880005E0,-3.765120392E0,1.150196433E1
2.965780125E0,-4.358187103E0,-9.567803650E0,-3.223247223E0,1.099663513E1
2.975813125E0,-5.238057404E0,-8.995843048E0,-2.698288879E0,1.075375285E1
2.985845125E0,-6.102210388E0,-8.043523407E0,-2.149979095E0,1.032267652E1
2.995878125E0,-6.525679779E0,-7.579488373E0,-1.888323212E0,1.017835474E1
3.005910125E0,-6.774163055E0,-7.286248169E0,-1.933828583E0,1.013500816E1
3.015943125E0,-7.319778442E0,-6.744674377E0,-1.989063721E0,1.015018046E1
3.025975125E0,-7.566016388E0,-6.659800873E0,-2.059118042E0,1.028773633E1
3.036008125E0,-7.419471130E0,-6.812483368E0,-2.180515594E0,1.030597544E1
3.046040125E0,-7.378157043E0,-6.805597687E0,-2.544259186E0,1.035502854E1
3.056073125E0,-7.292086029E0,-6.632108459E0,-3.147504730E0,1.034727826E1
3.066105125E0,-7.503745880E0,-6.092330933E0,-3.560346222E0,1.030042541E1
3.076138125E0,-7.636370087E0,-5.412145386E0,-3.245251465E0,9.906418265E0
3.086170125E0,-7.694898376E0,-5.122198334E0,-2.420316925E0,9.555433575E0
3.096203125E0,-7.595954132E0,-5.602100372E0,-1.629361725E0,9.577936489E0
3.106235125E0,-6.925648041E0,-6.109844513E0,-1.115031281E0,9.302585421E0
3.116268125E0,-6.154002686E0,-6.844367065E0,-8.434959412E-1,9.242759057E0
3.126300125E0,-5.833818512E0,-7.560178528E0,-9.575587463E-1,9.597221293E0
3.136333125E0,-6.060447235E0,-6.874753876E0,-1.538051605E0,9.292839409E0
3.146365125E0,-6.250851288E0,-5.487887878E0,-2.105970612E0,8.580510906E0
3.156398125E0,-6.323150940E0,-4.747527466E0,-2.344724121E0,8.247362369E0
3.166429500E0,-6.229296112E0,-4.574487305E0,-2.565514984E0,8.143213818E0
3.176462500E0,-5.680986328E0,-4.251908112E0,-2.865042114E0,7.652502503E0
3.186494500E0,-5.446424103E0,-3.483705597E0,-3.000809784E0,7.127734532E0
3.196527500E0,-5.500312042E0,-3.051554260E0,-2.414029999E0,6.737429540E0
3.206559500E0,-5.431904297E0,-3.079695740E0,-1.479373627E0,6.417059799E0
3.216592500E0,-5.344037018E0,-3.399580536E0,-1.079405365E0,6.425028826E0
3.226624500E0,-5.457650757E0,-3.935915222E0,-8.740324402E-1,6.785374944E0
3.236657500E0,-5.619464264E0,-4.159849548E0,-4.980143738E-1,7.009332721E0
3.246689500E0,-6.019133148E0,-3.879632263E0,-3.173400879E-1,7.168138886E0
3.256722500E0,-6.377188568E0,-3.635939026E0,-6.358776855E-1,7.368373434E0
3.266754500E0,-6.678062897E0,-3.737877045E0,-1.143322449E0,7.737921884E0
3.276787500E0,-6.788084106E0,-3.920048218E0,-1.654359741E0,8.011352571E0
3.286819500E0,-6.908134460E0,-3.529210968E0,-2.184706879E0,8.059193255E0
3.296852500E0,-6.978188782E0,-2.859353943E0,-2.377356262E0,7.907138954E0
3.306884500E0,-6.633006592E0,-2.258353729E0,-2.384092255E0,7.401407562E0
3.316917500E0,-5.972130890E0,-1.894610138E0,-1.865271149E0,6.537211286E0
3.326949500E0,-5.399571533E0,-1.900447998E0,-1.200503540E0,5.848784838E0
3.336982500E0,-4.893324280E0,-1.969155121E0,-1.052461395E0,5.378649402E0
3.347014500E0,-4.429888000E0,-2.329904938E0,-1.176253967E0,5.141589065E0
3.357047500E0,-4.473896484E0,-3.379073181E0,-9.479786682E-1,5.686171724E0
3.367079500E0,-4.809498596E0,-3.888314209E0,-8.803193665E-1,6.247017394E0
3.377112500E0,-4.343068542E0,-4.055666199E0,-1.234632568E0,6.069183657E0
3.387144500E0,-3.705693970E0,-4.685107269E0,-1.419498138E0,6.139818636E0
3.397177500E0,-3.743116150E0,-5.395529938E0,-1.432970123E0,6.721314246E0
3.407209500E0,-4.102818146E0,-5.944887543E0,-1.207538910E0,7.323452386E0
3.417242500E0,-4.726271667E0,-6.156996460E0,-1.156195679E0,7.847486077E0
3.427274500E0,-5.829178162E0,-6.611900482E0,-1.458267517E0,8.934376877E0
3.437307500E0,-6.872658234E0,-7.281308441E0,-1.496288452E0,1.012372278E1
3.447339500E0,-7.784861298E0,-7.789801025E0,-1.477427673E0,1.111160915E1
3.457372500E0,-8.918903046E0,-7.640112305E0,-1.948049011E0,1.190432873E1
3.467404500E0,-9.344019012E0,-7.320077820E0,-2.010768585E0,1.203899584E1
3.477437500E0,-9.163793793E0,-7.329508209E0,-1.689835968E0,1.185547776E1
3.487469500E0,-8.875493317E0,-7.730075226E0,-1.475781097E0,1.186197178E1
3.497502500E0,-8.731043701E0,-8.176446991E0,-1.569486237E0,1.206435645E1
3.507534500E0,-8.851992188E0,-8.655301208E0,-1.852248230E0,1.251810002E1
3.517567500E0,-8.721463623E0,-9.114546204E0,-2.124532013E0,1.279267433E1
3.527599500E0,-8.644074554E0,-9.114546204E0,-2.187850342E0,1.275075161E1
3.537632500E0,-8.976383514E0,-8.404572601E0,-2.278861084E0,1.250621883E1
3.547664500E0,-9.226962433E0,-7.698490906E0,-2.709665222E0,1.231851791E1
3.557697500E0,-9.061257019E0,-7.058871002E0,-2.724185028E0,1.180488131E1
3.567729500E0,-8.674461365E0,-7.171885986E0,-2.636467438E0,1.155998223E1
3.577762500E0,-8.251441040E0,-7.684719543E0,-2.171085205E0,1.148280474E1
3.587794500E0,-7.609276428E0,-8.158933411E0,-1.634002075E0,1.127560397E1
3.597827500E0,-6.806046753E0,-8.203540649E0,-1.666783905E0,1.078881459E1
3.607859500E0,-5.965843964E0,-8.238567810E0,-1.644629974E0,1.030388769E1
3.617892500E0,-5.461842041E0,-8.440946960E0,-1.458566895E0,1.015916933E1
3.627924500E0,-5.108576660E0,-8.565487976E0,-1.309476929E0,1.005882049E1
3.637957500E0,-5.012925568E0,-8.413853302E0,-1.333127747E0,9.884309775E0
3.647989500E0,-5.264552307E0,-8.067323914E0,-1.446891174E0,9.741186796E0
3.658022500E0,-5.467081146E0,-7.603438568E0,-1.533560944E0,9.489629260E0
3.668054500E0,-5.530100098E0,-7.259453888E0,-1.460512848E0,9.242011449E0
3.678087500E0,-5.829627228E0,-7.400161285E0,-1.642234955E0,9.562629153E0
3.688119500E0,-6.182293854E0,-7.590116272E0,-1.985321503E0,9.988599691E0
3.698152500E0,-6.604865112E0,-7.599247284E0,-2.105371857E0,1.028617485E1
3.708184500E0,-7.464677124E0,-8.050558777E0,-1.752405853E0,1.111772582E1
3.718217500E0,-8.315208435E0,-8.445587311E0,-1.870210876E0,1.199868014E1
3.728249500E0,-8.807534637E0,-8.569828949E0,-1.929487610E0,1.243935517E1
3.738282500E0,-9.138496399E0,-8.350085907E0,-1.803150330E0,1.250949248E1
3.748314500E0,-9.116641846E0,-8.018824768E0,-1.708247681E0,1.226102848E1
3.758347500E0,-8.789871368E0,-7.818092194E0,-1.673819275E0,1.188217468E1
3.768379500E0,-8.105195160E0,-7.845784607E0,-1.823058929E0,1.142690109E1
3.778412500E0,-7.210805054E0,-7.861950989E0,-1.872605896E0,1.083109578E1
3.788444500E0,-6.213129730E0,-7.771838379E0,-1.809437256E0,1.011328414E1
3.798477500E0,-4.990472260E0,-7.447612610E0,-1.936672668E0,9.171829042E0
3.808509500E0,-3.776496735E0,-6.794670410E0,-2.021845551E0,8.032268235E0
3.818542500E0,-2.799029388E0,-6.392307129E0,-2.126627655E0,7.295114881E0
3.828574500E0,-2.298470306E0,-6.655759277E0,-2.285297699E0,7.403018498E0
3.838607500E0,-2.512076111E0,-7.308102722E0,-2.419269104E0,8.097638840E0
3.848639500E0,-3.388204193E0,-8.297694855E0,-2.433639221E0,9.287317558E0
3.858672500E0,-4.368815002E0,-9.117689667E0,-2.374661865E0,1.038546236E1
3.868704500E0,-4.832999725E0,-9.279802551E0,-2.213147736E0,1.069442119E1
3.878737500E0,-4.669240265E0,-8.987460480E0,-2.077230377E0,1.033881698E1
3.888769500E0,-4.871769104E0,-8.432564392E0,-1.927092590E0,9.927535559E0
3.898802500E0,-5.239404602E0,-8.680598602E0,-1.913171539E0,1.031815769E1
3.908834500E0,-4.893324280E0,-9.230105896E0,-1.984423370E0,1.063378641E1
3.918867500E0,-5.032085724E0,-8.914113007E0,-2.007475433E0,1.043135921E1
3.928899500E0,-5.700745239E0,-7.738906860E0,-2.101629639E0,9.839005174E0
3.938932500E0,-6.816974030E0,-6.888824615E0,-2.687511292E0,1.005732352E1
3.948964500E0,-7.644902344E0,-7.078480225E0,-2.929408264E0,1.082270054E1
3.958997500E0,-8.575068054E0,-8.176896057E0,-2.809507599E0,1.217730488E1
3.969029500E0,-9.486372986E0,-1.008872040E1,-3.295546875E0,1.423496333E1
3.979062500E0,-9.556427307E0,-1.193168793E1,-4.367916870E0,1.589871622E1
3.989094500E0,-5.985303497E0,-1.092997101E1,-4.949457550E0,1.340840237E1
3.999126500E0,-2.800975342E0,-8.736881561E0,-3.638334045E0,9.869956277E0
4.009159500E0,-2.552791443E0,-8.899593201E0,-2.287543030E0,9.536894484E0
4.019191500E0,-2.840343475E0,-9.379195862E0,-1.962269440E0,9.994366785E0
4.029224500E0,-3.249592438E0,-8.405470734E0,-2.276016998E0,9.294731983E0
4.039257500E0,-3.752845917E0,-7.752079468E0,-2.199825439E0,8.889196843E0
4.049289500E0,-3.994443512E0,-8.034841461E0,-1.931134186E0,9.178427726E0
4.059321500E0,-4.463268585E0,-8.488547974E0,-1.724114685E0,9.744166697E0
4.069354500E0,-5.083728333E0,-8.863218842E0,-1.640738068E0,1.034857301E1
4.079386500E0,-5.860313416E0,-8.968300323E0,-1.701811066E0,1.084757323E1
4.089419500E0,-6.989415436E0,-8.932225342E0,-1.993554382E0,1.151567787E1
4.099451500E0,-7.638316040E0,-9.125174103E0,-2.446961517E0,1.214908618E1
4.109484500E0,-7.422165527E0,-9.173972626E0,-2.657573547E0,1.209599157E1
4.119516500E0,-6.848708038E0,-9.081614685E0,-2.683918762E0,1.168691349E1
4.129549500E0,-6.334377594E0,-8.996292114E0,-2.759661255E0,1.134342724E1
4.139582500E0,-5.622907104E0,-9.117240601E0,-2.942131805E0,1.110843373E1
4.149614500E0,-4.795128479E0,-9.660161591E0,-2.935545502E0,1.117718240E1
4.159646500E0,-3.818110199E0,-1.041968216E1,-2.740950165E0,1.143068456E1
4.169679750E0,-2.033371582E0,-1.099778000E1,-2.507286072E0,1.146177335E1
4.179711750E0,-3.005749512E-1,-1.121722366E1,-1.904040527E0,1.138164410E1
4.189744750E0,2.736309814E-1,-1.088596252E1,-1.244062958E0,1.096023479E1
4.199776750E0,-2.589614868E-2,-1.022104523E1,-7.527845764E-1,1.024876191E1
4.209809750E0,-9.035211182E-1,-9.242829437E0,-9.139993286E-1,9.331754454E0
4.219841750E0,-1.910477142E0,-8.402926025E0,-1.222657471E0,8.703676234E0
4.229874750E0,-3.065625000E0,-7.733218689E0,-1.452729034E0,8.444592920E0
4.239906750E0,-4.258644104E0,-6.892716522E0,-1.600172424E0,8.258701015E0
4.249939750E0,-4.989125061E0,-6.622378693E0,-1.810784454E0,8.486825600E0
4.259971750E0,-5.536387024E0,-7.135212250E0,-2.220033417E0,9.300074381E0
4.270004750E0,-6.275699615E0,-7.735464020E0,-2.560126190E0,1.028474868E1
4.280036750E0,-7.710915070E0,-8.182434540E0,-2.929258575E0,1.161856282E1
4.290069750E0,-9.056017914E0,-7.633226624E0,-3.229833527E0,1.227637706E1
4.300101750E0,-9.995763702E0,-6.320157166E0,-2.946921844E0,1.218786392E1
4.310134750E0,-1.046848068E1,-5.798791351E0,-2.412682800E0,1.220803454E1
4.320166750E0,-9.461524658E0,-7.674091644E0,-2.046693878E0,1.235318126E1
4.330199750E0,-6.205345917E0,-1.115225876E1,-1.728605347E0,1.287894677E1
4.340231750E0,-2.759212189E0,-1.206131836E1,-1.401385803E0,1.245200926E1
4.350264750E0,-1.240320740E0,-1.123518631E1,-1.185235291E0,1.136541199E1
4.360296750E0,-1.531764679E0,-1.052835617E1,-9.316625977E-1,1.067991488E1
4.370329750E0,-2.788102112E0,-9.769434357E0,-6.508465576E-1,1.018032231E1
4.380361750E0,-4.065994720E0,-8.794661407E0,-3.983216858E-1,9.697269848E0
4.390394750E0,-4.943020935E0,-8.531209259E0,-1.249900818E-1,9.860558296E0
4.400426750E0,-5.203479309E0,-8.264913025E0,-1.547781372E-1,9.767750022E0
4.410459750E0,-4.909790039E0,-7.614365845E0,-3.475772095E-1,9.066720210E0
4.420491750E0,-4.173171844E0,-6.880442047E0,-4.299060059E-1,8.058577119E0
4.430524750E0,-3.316054230E0,-6.303242340E0,-3.785627747E-1,7.132348101E0
4.440556750E0,-2.525248718E0,-6.026467896E0,-2.854563904E-1,6.540388500E0
4.450589750E0,-1.907633057E0,-5.783822479E0,-1.775308228E-1,6.092879741E0
4.460621750E0,2.950364685E-1,-3.700604553E0,2.880010986E-1,3.723501740E0
4.470654750E0,1.051712952E0,-3.338507538E0,4.791535950E-1,3.532891292E0
4.480686750E0,9.174421692E-1,-4.199067993E0,2.986289978E-1,4.308485978E0
4.490719750E0,4.153862000E-1,-4.569098511E0,1.766326904E-2,4.587975467E0
4.500751750E0,-1.523382111E0,-3.242856445E0,-2.338137817E-1,3.590470702E0
4.510784750E0,-2.824177094E0,-3.872896271E0,-1.939965820E-1,4.797180052E0
4.520816750E0,-4.220174103E0,-6.020630035E0,-2.793191528E-1,7.357708520E0
4.530849750E0,-5.826034698E0,-8.654103699E0,-2.725831604E-1,1.043601901E1
4.540881750E0,-6.963818665E0,-1.161973663E1,-5.089416504E-2,1.354679446E1
4.550914750E0,-6.796466675E0,-1.415276917E1,1.567240906E-1,1.570087248E1
4.560946750E0,-5.971083069E0,-1.609378281E1,9.595046997E-2,1.716603870E1
4.570979750E0,-5.683381348E0,-1.693144089E1,3.872447205E-1,1.786405532E1
4.581011750E0,-4.469705200E0,-1.686872131E1,5.414241028E-1,1.745924292E1
4.591044750E0,-3.003204803E0,-1.549338135E1,4.552033997E-1,1.578832844E1
4.601076750E0,-2.098037109E0,-1.335837112E1,1.529818726E-1,1.352298940E1
4.611109750E0,-1.194665680E0,-1.105196732E1,-7.476951599E-1,1.114146560E1
4.621141750E0,-7.081773376E-1,-9.336235199E0,-1.629661102E0,9.503820187E0
4.631174750E0,-9.032217407E-1,-8.427474976E0,-2.146236877E0,8.743253211E0
4.641206750E0,-1.446142731E0,-8.181386719E0,-2.411485291E0,8.651108527E0
4.651239750E0,-2.254761200E0,-8.352331238E0,-2.329755249E0,8.959528151E0
4.661271750E0,-3.003504181E0,-8.631051636E0,-2.112257538E0,9.379644002E0
4.671304750E0,-3.279829559E0,-8.965156860E0,-2.055525513E0,9.765065520E0
4.681336750E0,-3.471580811E0,-9.227561188E0,-2.003433838E0,1.006049233E1
4.691369750E0,-3.678450623E0,-9.370962982E0,-1.773661652E0,1.022212414E1
4.701401750E0,-3.735931091E0,-9.394763489E0,-1.470392303E0,1.021669299E1
4.711434750E0,-3.526815948E0,-9.479636993E0,-1.307231598E0,1.019856866E1
4.721466750E0,-3.220253448E0,-9.573791199E0,-1.228645020E0,1.017531713E1
4.731499750E0,-2.987487488E0,-9.653575287E0,-1.219214630E0,1.017855990E1
4.741531750E0,-2.937790833E0,-9.712702332E0,-1.195563812E0,1.021746419E1
4.751564750E0,-2.911295929E0,-9.671537933E0,-1.058448944E0,1.015552087E1
4.761596750E0,-2.730022888E0,-9.490564270E0,-1.066083069E0,9.932792570E0
4.771629750E0,-2.696791992E0,-9.108558655E0,-1.135838013E0,9.567060981E0
4.781661750E0,-2.154170380E0,-8.998537445E0,-1.214873657E0,9.332204679E0
4.791694750E0,-1.945204926E0,-9.100625153E0,-1.384770355E0,9.408655021E0
4.801726750E0,-1.920655975E0,-9.209748230E0,-1.572480011E0,9.538400035E0
4.811759750E0,-1.814227295E0,-9.185947723E0,-1.862726440E0,9.546874151E0
4.821791750E0,-1.706152039E0,-9.068442078E0,-2.022144928E0,9.446516109E0
4.831824750E0,-1.607806549E0,-9.013057251E0,-1.972597961E0,9.365435688E0
4.841856750E0,-1.509910126E0,-9.053922272E0,-1.779948578E0,9.349949413E0
4.851889750E0,-1.614692230E0,-9.016649780E0,-1.454525299E0,9.274850301E0
4.861921750E0,-2.008672943E0,-8.866362305E0,-1.068777466E0,9.153656798E0
4.871954750E0,-2.502046967E0,-8.866811371E0,-7.155120850E-1,9.240808431E0
4.881986750E0,-2.884801025E0,-8.791368256E0,-5.917195129E-1,9.271481259E0
4.892019750E0,-2.831362152E0,-8.704099731E0,-5.780978394E-1,9.171268227E0
4.902051750E0,-2.890189819E0,-8.893306274E0,-7.611671448E-1,9.382082344E0
4.912084750E0,-3.137774963E0,-9.097332001E0,-1.048120422E0,9.680167234E0
4.922116750E0,-3.269051971E0,-9.328301697E0,-1.226699066E0,9.960356617E0
4.932149750E0,-3.047812042E0,-9.330397339E0,-1.449136505E0,9.921969026E0
4.942181750E0,-2.639610901E0,-9.035959625E0,-1.596280518E0,9.547995787E0
4.952214750E0,-2.217339020E0,-8.799601135E0,-1.578168182E0,9.210873318E0
4.962246750E0,-1.926344147E0,-8.961714020E0,-1.448388062E0,9.280137279E0
4.972279750E0,-2.052681427E0,-9.223818970E0,-1.260828094E0,9.533206434E0
4.982311750E0,-2.420915680E0,-9.586814117E0,-1.083896027E0,9.946992925E0
4.992344750E0,-2.850821686E0,-9.946665802E0,-9.868977356E-1,1.039409986E1
5.002376750E0,-3.196602631E0,-1.011551468E1,-9.705816650E-1,1.065288385E1
5.012409750E0,-3.356320496E0,-1.004695724E1,-1.049766998E0,1.064463470E1
5.022441750E0,-3.406166840E0,-9.719588013E0,-1.136736145E0,1.036168581E1
5.032474750E0,-3.776047668E0,-9.661808167E0,-1.332229614E0,1.045867624E1
5.042506750E0,-4.314927063E0,-9.961484985E0,-1.433718567E0,1.095012911E1
5.052539750E0,-4.632117462E0,-9.989776154E0,-1.251996460E0,1.108240204E1
5.062571750E0,-4.966522064E0,-9.254355469E0,-8.149053955E-1,1.053439639E1
5.072604750E0,-5.204078064E0,-8.325686646E0,-3.905378723E-1,9.826088054E0
5.082636750E0,-4.540507965E0,-8.171507263E0,-3.103047180E-1,9.353396846E0
5.092669750E0,-3.808081055E0,-8.363258514E0,-5.860313416E-1,9.208094647E0
5.102701750E0,-3.408262482E0,-8.507109375E0,-8.535250854E-1,9.204111480E0
5.112734750E0,-3.411705322E0,-8.540040894E0,-7.065307617E-1,9.223405954E0
5.122766750E0,-3.347189484E0,-8.677604828E0,-4.574487305E-1,9.312022462E0
5.132799750E0,-2.876119080E0,-9.019643555E0,-5.462141418E-1,9.482846656E0
5.142831750E0,-2.140848083E0,-9.509874115E0,-9.392967224E-1,9.793018663E0
5.152864750E0,-1.666035461E0,-9.968969421E0,-1.302142181E0,1.019076051E1
5.162896750E0,-1.860930176E0,-1.021535706E1,-1.361119537E0,1.047230764E1
5.172929875E0,-2.349963226E0,-1.013692017E1,-1.279539185E0,1.048411647E1
5.182961875E0,-3.095413055E0,-9.689500580E0,-9.150471497E-1,1.021299734E1
5.192994875E0,-4.000730438E0,-8.805139618E0,-1.486408997E-1,9.672560253E0
5.203026875E0,-4.251159668E0,-7.911348267E0,4.730163574E-1,8.993638551E0
5.213059875E0,-4.007915497E0,-7.326963501E0,5.060975647E-1,8.366834259E0
5.223091875E0,-3.995191956E0,-6.861581268E0,4.460723877E-1,7.952473630E0
5.233124875E0,-3.842808838E0,-6.718927917E0,3.694317627E-1,7.749042002E0
5.243156875E0,-3.706442413E0,-6.990014191E0,9.205856323E-2,7.912426210E0
5.253189875E0,-3.676055603E0,-7.541766815E0,-1.336720276E-1,8.391036867E0
5.263221875E0,-3.740272064E0,-8.163573761E0,-1.369651794E-1,8.980664292E0
5.273254875E0,-3.843407593E0,-8.902886353E0,-4.706213379E-1,9.708483495E0
5.283286875E0,-3.729045410E0,-9.667795715E0,-1.157093811E0,1.042645288E1
5.293319875E0,-3.867657166E0,-1.031609756E1,-1.932481384E0,1.118548726E1
5.303351875E0,-4.380640411E0,-1.089644073E1,-2.573298798E0,1.202265768E1
5.313384875E0,-4.984933777E0,-1.120330261E1,-3.205134888E0,1.267424332E1
5.323416875E0,-5.536237335E0,-1.128787674E1,-4.192182312E0,1.325294223E1
5.333449875E0,-5.588927765E0,-1.110420868E1,-4.713697815E0,1.329505589E1
5.343481875E0,-5.395380249E0,-1.026235931E1,-4.885091400E0,1.258134590E1
5.353514875E0,-5.219645691E0,-8.952882385E0,-4.501439209E0,1.129875033E1
5.363546875E0,-5.090464325E0,-7.779771881E0,-3.313808899E0,9.870106736E0
5.373579875E0,-4.917573853E0,-7.082970886E0,-2.307152252E0,8.926027150E0
5.383611875E0,-4.807702332E0,-6.842720490E0,-1.646426239E0,8.523352906E0
5.393644875E0,-4.905748444E0,-6.960525513E0,-1.206341400E0,8.600612930E0
5.403676875E0,-5.098697205E0,-7.364086304E0,-9.788145447E-1,9.010247399E0
5.413709875E0,-5.374124451E0,-7.792196045E0,-9.551637268E-1,9.513772677E0
5.423741875E0,-5.514532471E0,-8.043074341E0,-9.726773071E-1,9.800368073E0
5.433774875E0,-5.285059662E0,-8.105045471E0,-1.054856415E0,9.733259463E0
5.443806875E0,-5.121749268E0,-8.043224030E0,-1.207987976E0,9.611711778E0
5.453839875E0,-5.143304443E0,-7.912096710E0,-1.290616150E0,9.524733329E0
5.463871875E0,-5.261109467E0,-7.855514374E0,-1.272503815E0,9.539792705E0
5.473904875E0,-5.400319977E0,-7.895481262E0,-1.252146149E0,9.647276828E0
5.483936875E0,-5.563330994E0,-8.021219788E0,-1.211730194E0,9.836610630E0
5.493969875E0,-5.709726562E0,-8.215665436E0,-1.175355835E0,1.007370822E1
5.504001875E0,-5.828130341E0,-8.408015442E0,-1.123264160E0,1.029191670E1
5.514034875E0,-5.899681549E0,-8.492739258E0,-1.094374237E0,1.039858247E1
5.524066875E0,-6.027964783E0,-8.373736725E0,-1.151405640E0,1.038178988E1
5.534099875E0,-5.983058167E0,-8.115523682E0,-1.303040314E0,1.016644597E1
5.544131875E0,-5.909860382E0,-7.786208496E0,-1.078956299E0,9.834410972E0
5.554164875E0,-5.754633179E0,-7.629634094E0,-7.734416199E-1,9.587769885E0
5.564196875E0,-5.755681000E0,-7.541617126E0,-7.369175720E-1,9.515613494E0
5.574229875E0,-6.330186310E0,-7.282655640E0,-8.222401428E-1,9.684235165E0
5.584261875E0,-6.773264923E0,-7.066654816E0,-7.574249268E-1,9.817760464E0
5.594294875E0,-6.732549591E0,-7.107968903E0,-5.119354248E-1,9.803699495E0
5.604326875E0,-6.483467560E0,-7.269782410E0,-5.227130127E-1,9.754912443E0
5.614359875E0,-6.021378479E0,-7.488926697E0,-6.532415771E-1,9.631601446E0
5.624391875E0,-5.680836639E0,-7.522157593E0,-1.088237000E0,9.488889268E0
5.634424875E0,-6.559958496E0,-7.280410309E0,-1.730251923E0,9.951442179E0
5.644456875E0,-7.417525177E0,-6.911128235E0,-1.892514496E0,1.031334012E1
5.654489875E0,-7.300917664E0,-6.617438965E0,-1.730401611E0,1.000440837E1
5.664521875E0,-7.164102173E0,-6.431226196E0,-1.674118652E0,9.771780984E0
5.674554875E0,-7.036417694E0,-6.550378418E0,-1.825753326E0,9.785295427E0
5.684586875E0,-6.627617798E0,-6.925648041E0,-1.849404144E0,9.762695025E0
5.694619875E0,-6.179449768E0,-7.288343811E0,-1.727258148E0,9.710251060E0
5.704651875E0,-6.096522217E0,-7.575596466E0,-1.504820709E0,9.839803368E0
5.714684875E0,-6.259533234E0,-7.687413940E0,-1.265019379E0,9.993916321E0
5.724716875E0,-6.382427673E0,-7.734865265E0,-9.358538818E-1,1.007171019E1
5.734749875E0,-6.272705841E0,-7.697143707E0,-5.849835205E-1,9.946610756E0
5.744781875E0,-6.073919220E0,-7.627239075E0,-5.318440247E-1,9.764739047E0
5.754814875E0,-6.171216888E0,-7.562872925E0,-8.141569519E-1,9.795091439E0
5.764846875E0,-6.775659943E0,-7.462431793E0,-1.324745178E0,1.016623852E1
5.774879875E0,-7.570806427E0,-7.380552063E0,-1.813478851E0,1.072745842E1
5.784911875E0,-8.317004700E0,-7.074738007E0,-2.493514709E0,1.120009378E1
5.794944875E0,-8.284971313E0,-6.640640717E0,-2.948269043E0,1.101958026E1
5.804976875E0,-7.475305023E0,-6.324647827E0,-2.582429810E0,1.012671215E1
5.815009875E0,-6.251899109E0,-6.379882965E0,-1.810036011E0,9.114021038E0
5.825041875E0,-5.015470276E0,-6.913672943E0,-1.291663971E0,8.638414870E0
5.835074875E0,-4.204157410E0,-7.807164917E0,-1.015488281E0,8.925131933E0
5.845106875E0,-4.293970642E0,-8.625962219E0,-9.616003418E-1,9.683495407E0
5.855139875E0,-5.058730316E0,-9.078022156E0,-1.069974976E0,1.044730037E1
5.865171875E0,-5.325176239E0,-8.387059021E0,-1.088386688E0,9.994240671E0
5.875204875E0,-4.687801666E0,-7.313341827E0,-1.052461395E0,8.750321602E0
5.885236875E0,-4.613556061E0,-7.504344635E0,-1.252146149E0,8.897637771E0
5.895269875E0,-5.662424927E0,-7.908953247E0,-1.623224487E0,9.861513842E0
5.905301875E0,-6.836732941E0,-7.630681915E0,-1.981279907E0,1.043521413E1
5.915334875E0,-7.668104095E0,-7.045548706E0,-2.373763733E0,1.068055856E1
5.925366875E0,-7.316485291E0,-7.053781586E0,-2.256707153E0,1.041054844E1
5.935399875E0,-6.365812225E0,-7.541916504E0,-1.879192200E0,1.004666279E1
5.945431875E0,-5.688470764E0,-8.096812592E0,-1.478026428E0,1.000508050E1
5.955464875E0,-5.572312317E0,-8.110134888E0,-1.207089844E0,9.913728781E0
5.965496875E0,-5.818550262E0,-7.766150208E0,-1.175505524E0,9.774989997E0
5.975529875E0,-6.514752502E0,-7.493117981E0,-1.155746613E0,9.996227662E0
5.985561875E0,-7.401508484E0,-7.254364471E0,-1.060394897E0,1.041789658E1
5.995594875E0,-7.209906921E0,-7.361691284E0,-8.780740356E-1,1.034157969E1
6.005626875E0,-6.620881805E0,-7.428452454E0,-7.493417358E-1,9.978952589E0
6.015659875E0,-6.204896851E0,-7.378306732E0,-6.710545349E-1,9.663874448E0
6.025691875E0,-6.186634827E0,-7.454947357E0,-4.977149963E-1,9.700433536E0
6.035724875E0,-6.809938660E0,-7.445516968E0,-5.153782654E-1,1.010329660E1
6.045756875E0,-7.644453278E0,-7.348219299E0,-9.038204956E-1,1.064193987E1
6.055789875E0,-7.965086517E0,-7.161407776E0,-1.229692841E0,1.078148918E1
6.065821875E0,-7.926766205E0,-7.091054077E0,-1.214574280E0,1.070475880E1
6.075854875E0,-7.276219025E0,-7.200177155E0,-1.145867157E0,1.030043329E1
6.085886875E0,-6.749614105E0,-7.414681091E0,-1.145268402E0,1.009189903E1
6.095919875E0,-6.212530975E0,-7.799979858E0,-1.218466187E0,1.004588905E1
6.105951875E0,-6.220165100E0,-7.838599548E0,-1.594184875E0,1.013289308E1
6.115984875E0,-6.667884064E0,-7.828420715E0,-1.803150330E0,1.044012452E1
6.126016875E0,-7.024741974E0,-7.773784332E0,-1.490001526E0,1.058294983E1
6.136049875E0,-7.261250153E0,-7.589517517E0,-1.149609375E0,1.056636795E1
6.146081875E0,-7.026238861E0,-7.774383087E0,-1.200802917E0,1.054755861E1
6.156114875E0,-7.070846100E0,-7.899672546E0,-1.537003784E0,1.071279943E1
6.166146875E0,-7.767497406E0,-7.745942230E0,-1.953886871E0,1.114232071E1
6.176180375E0,-8.638685760E0,-7.744445343E0,-2.343676300E0,1.183622169E1
6.186212375E0,-8.931776276E0,-7.880662079E0,-2.722239075E0,1.221851250E1
6.196245375E0,-8.770561523E0,-7.984096985E0,-2.902164917E0,1.221028727E1
6.206277375E0,-8.475974121E0,-7.973618774E0,-2.786904602E0,1.196610091E1
6.216310375E0,-8.452922058E0,-7.900121613E0,-2.656226349E0,1.187094568E1
6.226342375E0,-8.798403625E0,-7.634873199E0,-2.770289154E0,1.197404264E1
6.236375375E0,-8.834029541E0,-7.326514435E0,-3.181633759E0,1.190968871E1
6.246407375E0,-9.134305115E0,-7.794591064E0,-3.638633423E0,1.254714442E1
6.256440375E0,-9.239685974E0,-7.689060516E0,-3.590283966E0,1.254526155E1
6.266472375E0,-8.595874786E0,-7.604486389E0,-2.609822845E0,1.176981104E1
6.276505375E0,-8.339907074E0,-7.259004822E0,-1.547481995E0,1.116431375E1
6.286537375E0,-8.324489136E0,-6.723568268E0,-6.312373352E-1,1.071923272E1
6.296570375E0,-8.708440704E0,-6.567442932E0,-9.714797974E-2,1.090768921E1
6.306602375E0,-9.432035980E0,-6.605014801E0,6.671626282E-1,1.153406386E1
6.316635375E0,-9.893825684E0,-6.638395386E0,1.348395996E0,1.199059013E1
6.326667375E0,-9.491312714E0,-6.241869965E0,2.411634979E0,1.161300740E1
6.336700375E0,-8.898395691E0,-5.920787659E0,3.279829559E0,1.118009187E1
6.346732375E0,-8.564739532E0,-5.622757416E0,3.333867188E0,1.077426724E1
6.356765375E0,-8.260572052E0,-5.634283447E0,3.151845703E0,1.048409900E1
6.366797375E0,-7.665409698E0,-5.376070404E0,3.282673645E0,9.921521309E0
6.376830375E0,-7.211553497E0,-5.055586853E0,3.551963654E0,9.496415538E0
6.386862375E0,-6.818171539E0,-5.050198059E0,3.457510071E0,9.162223500E0
6.396895375E0,-6.409820709E0,-4.644990692E0,3.605103149E0,8.698189971E0
6.406927375E0,-6.317762146E0,-3.573219452E0,4.096680908E0,8.334555192E0
6.416960375E0,-6.426286469E0,-2.618355103E0,3.437601471E0,7.744032870E0
6.426992375E0,-6.094426575E0,-2.299518127E0,2.697989502E0,7.050458584E0
6.437025375E0,-5.098547516E0,-2.192341003E0,1.865121460E0,5.854931589E0
6.447057375E0,-4.149071960E0,-2.289938049E0,9.339079285E-1,4.830196520E0
6.457090375E0,-4.104464722E0,-2.123484192E0,4.995112610E-1,4.648153103E0
6.467122375E0,-4.123325500E0,-1.585502930E0,2.555186462E-1,4.425033616E0
6.477155375E0,-4.180356903E0,-1.260977783E0,3.152444458E-1,4.377765168E0
6.487187375E0,-4.690645752E0,-1.069376221E0,1.153351593E0,4.947316744E0
6.497220375E0,-4.999303894E0,-1.205293579E0,1.353036346E0,5.317563295E0
6.507252375E0,-5.486540680E0,-1.475332031E0,7.637118530E-1,5.732537748E0
6.517285375E0,-6.640341339E0,-1.653910675E0,4.806504822E-1,6.860071319E0
6.527317375E0,-7.456294556E0,-1.426084442E0,-4.237687683E-1,7.603264122E0
6.537350375E0,-7.870333557E0,-1.678908691E0,-1.144819336E0,8.128437489E0
6.547382375E0,-8.147856445E0,-2.039209442E0,-2.389930115E0,8.732565817E0
6.557415375E0,-8.520731049E0,-2.383493500E0,-4.548291779E0,9.948409771E0
6.567447375E0,-9.696535950E0,-2.018702087E0,-7.065606995E0,1.216637866E1
6.577480375E0,-1.139834702E1,-9.865983582E-1,-9.349258118E0,1.477512499E1
6.587512375E0,-1.335552704E1,-8.187973022E-2,-1.081845291E1,1.718766215E1
6.597545375E0,-1.490151215E1,-2.683918762E-1,-1.005040009E1,1.797602960E1
6.607577375E0,-1.433988007E1,-1.125359802E0,-7.423063660E0,1.618642855E1
6.617610375E0,-1.243718674E1,-1.938319244E0,-4.821473694E0,1.347914330E1
6.627642375E0,-1.105331451E1,-2.634970551E0,-3.559148712E0,1.190740824E1
6.637675375E0,-1.019754410E1,-2.731669464E0,-2.848276978E0,1.093456014E1
6.647707375E0,-9.297465820E0,-2.399959259E0,-2.170187073E0,9.844408924E0
6.657740375E0,-8.012837219E0,-2.267185364E0,-1.341210938E0,8.434722079E0
6.667772375E0,-6.688840485E0,-2.548600159E0,-4.709207153E-1,7.173403385E0
6.677805375E0,-5.719606018E0,-2.845432892E0,5.361849976E-1,6.410762489E0
6.687837375E0,-5.435197449E0,-2.891387329E0,1.325643311E0,6.297525084E0
6.697870375E0,-6.308631134E0,-2.448458405E0,1.174607391E0,6.868295121E0
6.707902375E0,-7.504943390E0,-1.980232086E0,5.084925842E-1,7.778435518E0
6.717935375E0,-8.529862061E0,-1.656455383E0,1.429527283E-1,8.690387028E0
6.727967375E0,-8.837771759E0,-1.482217712E0,4.668791199E-1,8.973358074E0
6.738000375E0,-9.000483398E0,-1.199006653E0,1.217867432E0,9.161305553E0
6.748032375E0,-9.231453094E0,-6.108796692E-1,2.231709137E0,9.517007191E0
6.758065375E0,-9.341923370E0,1.817221069E-1,3.003204803E0,9.814468619E0
6.768097375E0,-9.205856323E0,2.065704346E-1,3.984564056E0,1.003330517E1
6.778130375E0,-9.585616608E0,-7.738906860E-2,4.561913452E0,1.061607692E1
6.788162375E0,-9.430988159E0,-3.553610229E-1,4.545148315E0,1.047512254E1
6.798195375E0,-8.966354370E0,-6.647676086E-1,4.313879242E0,9.972310704E0
6.808227375E0,-9.032516785E0,-4.616400146E-1,3.459006958E0,9.683191628E0
6.818260375E0,-8.582253113E0,-5.688171387E-3,2.239792328E0,8.869710848E0
6.828292375E0,-8.020321655E0,2.013313293E-1,1.122515717E0,8.100995944E0
6.838325375E0,-7.234755249E0,6.969506836E-1,1.273851013E-1,7.269363846E0
6.848357375E0,-6.647825775E0,1.629661102E0,-1.458267517E0,6.998280289E0
6.858390375E0,-7.198829956E0,2.218536530E0,-1.864672394E0,7.760287379E0
6.868422375E0,-7.783663788E0,2.384092255E0,-1.528621216E0,8.282873937E0
6.878455375E0,-8.222700806E0,2.114502869E0,-1.247505798E0,8.581386930E0
6.888487375E0,-8.778495026E0,1.815873871E0,-9.524693298E-1,9.014797316E0
6.898520375E0,-9.524244232E0,1.604962463E0,-3.598516846E-1,9.665227671E0
6.908552375E0,-9.973160706E0,1.385069733E0,3.689826965E-1,1.007563898E1
6.918585375E0,-9.884095917E0,1.253343658E0,8.912466431E-1,1.000302669E1
6.928617375E0,-9.449549561E0,1.061891785E0,8.568182373E-1,9.547551443E0
6.938650375E0,-8.536598053E0,8.602610779E-1,5.122348022E-1,8.595111397E0
6.948682375E0,-7.461084595E0,2.134561157E-1,-1.294807434E-1,7.465260351E0
6.958715375E0,-6.764283600E0,-6.968009949E-1,-2.833607483E-1,6.805979544E0
6.968747375E0,-5.693709869E0,-7.934999084E-1,-3.110531616E-1,5.757145842E0
6.978780375E0,-5.143154755E0,-4.179309082E-1,-9.740245056E-1,5.251231361E0
6.988812375E0,-4.761298828E0,2.974314880E-1,-1.377734985E0,4.965539821E0
6.998845375E0,-4.870870972E0,1.212328949E0,-1.283281403E0,5.180920445E0
7.008877375E0,-5.882766724E0,1.642234955E0,-6.700067139E-1,6.144329823E0
7.018910375E0,-6.730603638E0,9.641450500E-1,-4.778063965E-1,6.816076581E0
7.028942375E0,-7.741301880E0,-2.242337036E-1,-5.583389282E-2,7.744750026E0
7.038975375E0,-8.979377289E0,-1.291663971E0,5.210664368E-1,9.086755336E0
7.049007375E0,-1.173709259E1,-2.262095947E0,1.285676422E0,1.202203745E1
7.059040375E0,-1.522109756E1,-2.955304413E0,2.569556580E0,1.571681444E1
7.069072375E0,-1.673265427E1,-4.156406708E0,3.012784882E0,1.750240864E1
7.079105375E0,-1.776909897E1,-5.315446472E0,2.449356537E0,1.870813184E1
7.089137375E0,-1.894101196E1,-4.993765411E0,9.611512756E-1,1.961181886E1
7.099170375E0,-1.982522324E1,-2.877017212E0,-4.535568237E-2,2.003294191E1
7.109202375E0,-2.319247101E1,-2.564167786E-1,1.184935913E0,2.322413689E1
7.119235375E0,-2.899515427E1,1.315913544E0,4.193230133E0,2.932633251E1
7.129267375E0,-3.539958618E1,9.535171509E-1,7.664960632E0,3.623246498E1
7.139300375E0,-3.905558350E1,-1.862127686E-1,9.305399323E0,4.014926816E1
7.149332375E0,-3.861789368E1,-1.637145538E0,9.696236572E0,3.985020654E1
7.159365375E0,-3.613186340E1,-2.930905151E0,8.844956818E0,3.731400567E1
7.169397375E0,-3.212439697E1,-3.955225067E0,7.667205963E0,3.326269282E1
7.179430125E0,-2.653651703E1,-4.072880402E0,6.959477692E0,2.773462494E1
7.189462125E0,-2.135803574E1,-3.767964478E0,7.227121124E0,2.286032648E1
7.199495125E0,-1.898292480E1,-4.168681183E0,7.184010773E0,2.072050549E1
7.209527125E0,-1.764620453E1,-3.602408752E0,6.338568878E0,1.909301806E1
7.219560125E0,-1.766850815E1,-2.999911652E0,5.768254852E0,1.882680042E1
7.229592125E0,-1.859283600E1,-2.135908356E0,4.892575836E0,1.934406765E1
7.239625125E0,-1.976025833E1,-1.157542877E0,3.271746368E0,2.006270269E1
7.249657125E0,-1.903501648E1,-5.159770203E-1,1.964814148E0,1.914310788E1
7.259690125E0,-1.739263184E1,-1.009051666E0,1.329235840E-1,1.742238491E1
7.269722125E0,-1.408451111E1,-1.137783966E0,-1.341959381E0,1.419397268E1
7.279755125E0,-1.034304153E1,-1.249900818E0,-2.103425903E0,1.062850699E1
7.289787125E0,-7.533833313E0,-1.856738892E0,-2.739902344E0,8.228802377E0
7.299820125E0,-5.144202576E0,-2.466720428E0,-3.148702240E0,6.516276207E0
7.309852125E0,-3.450175323E0,-2.919229431E0,-2.899320831E0,5.369513155E0
7.319885125E0,-1.736838226E0,-2.721041565E0,-1.662891998E0,3.631237258E0
7.329917125E0,1.609153748E-1,-1.894759827E0,-3.936813354E-2,1.901988015E0
7.339950125E0,1.530267792E0,-7.734416199E-1,1.759291534E0,2.456631465E0
7.349982125E0,2.539020081E0,-1.817221069E-1,3.451073456E0,4.288304314E0
7.360015125E0,3.355122986E0,-1.887574768E-1,4.902754669E0,5.943860949E0
7.370047125E0,3.985911255E0,-5.254074097E-1,5.996081085E0,7.219177921E0
7.380080125E0,4.456682281E0,-5.581892395E-1,6.362818451E0,7.788392056E0
7.390112125E0,5.313350830E0,-5.933660889E-1,6.029311981E0,8.058311444E0
7.400145125E0,5.583688660E0,-7.843688965E-1,5.965095520E0,8.208238433E0
7.410177125E0,4.904550934E0,-4.808001709E-1,5.620961151E0,7.475359050E0
7.420210125E0,3.977528687E0,1.264869690E-1,4.705764313E0,6.162868745E0
7.430242125E0,3.762126617E0,7.569758606E-1,3.920946350E0,5.486385825E0
7.440275125E0,3.574716339E0,1.092727661E0,2.723885651E0,4.625170665E0
7.450307125E0,3.143912201E0,1.604962463E0,1.534758453E0,3.849100148E0
7.460340125E0,2.714305573E0,2.148931274E0,1.035845947E0,3.613632133E0
7.470372125E0,2.171085205E0,2.353406067E0,7.427554321E-1,3.286915988E0
7.480405125E0,1.352736969E0,2.470462646E0,1.338217163E-1,2.819750210E0
7.490437125E0,8.402027893E-1,2.433040466E0,-7.280859375E-1,2.675020705E0
7.500470125E0,5.695655823E-1,2.099683685E0,-1.394200745E0,2.583964444E0
7.510502125E0,1.661544800E-1,1.670825500E0,-1.369502106E0,2.166748989E0
7.520535125E0,-3.529660034E-1,1.390009460E0,-9.545649719E-1,1.722761035E0
7.530567125E0,-9.903405762E-1,1.207239532E0,-2.300715637E-1,1.578332877E0
7.540600125E0,-1.672771454E0,9.669891357E-1,4.514611816E-1,1.984199971E0
7.550632125E0,-2.482587433E0,6.439608765E-1,1.154399414E0,2.812572484E0
7.560665125E0,-3.331621857E0,5.519023132E-1,1.693129120E0,3.777695935E0
7.570697125E0,-3.968397675E0,5.873785400E-1,1.772015076E0,4.385570782E0
7.580730125E0,-4.312382355E0,8.656498718E-1,1.935475159E0,4.805419374E0
7.590762125E0,-3.964356079E0,1.196911011E0,2.218087463E0,4.697725735E0
7.600795125E0,-3.419489136E0,1.198407898E0,2.172432404E0,4.224754429E0
7.610827125E0,-2.427352295E0,1.166224823E0,2.103725281E0,3.417276629E0
7.620860125E0,-1.326092377E0,1.288221130E0,2.108066254E0,2.803921897E0
7.630892125E0,-2.348616028E-1,1.272653503E0,1.888921967E0,2.289723369E0
7.640925125E0,6.007008362E-1,6.477030945E-1,1.579814758E0,1.810020846E0
7.650957125E0,1.191522217E0,9.415420532E-2,1.635948029E0,2.026059269E0
7.660990125E0,1.084943848E0,-2.140548706E-2,1.453028412E0,1.813519482E0
7.671022125E0,3.927832031E-1,-1.213975525E-1,1.470841370E0,1.527216535E0
7.681055125E0,3.547622681E-1,-2.598596191E-1,1.632056122E0,1.690263433E0
7.691087125E0,-9.340576172E-2,-1.032852173E-1,1.784289551E0,1.789715529E0
7.701120125E0,-5.921685791E-1,3.046165466E-1,1.742077332E0,1.865016969E0
7.711152125E0,-9.063652039E-1,2.174977112E-1,1.526824951E0,1.788853702E0
7.721185125E0,-1.274300079E0,-3.505709839E-1,1.731150055E0,2.177985588E0
7.731217125E0,-2.334994354E0,-1.551523590E0,2.792443085E0,3.956913250E0
7.741250125E0,-4.482728119E0,-2.855761414E0,3.221301270E0,6.215062872E0
7.751282125E0,-7.580386505E0,-4.261488190E0,3.984863434E0,9.565650932E0
7.761315125E0,-1.225441681E1,-5.061275024E0,4.832700348E0,1.411177625E1
7.771347125E0,-1.579515381E1,-6.603068848E0,5.192701721E0,1.788998472E1
7.781380125E0,-1.726659393E1,-8.887767792E0,3.860921173E0,1.979985845E1
7.791412125E0,-1.802850952E1,-9.866582336E0,5.644761658E-1,2.055955340E1
7.801445125E0,-2.004526566E1,-8.074808350E0,-3.541784821E0,2.189884574E1
7.811477125E0,-2.668770264E1,-6.051166534E0,-5.718857574E0,2.795631271E1
7.821510125E0,-3.525304092E1,-4.714296570E0,-3.837420044E0,3.577327605E1
7.831542125E0,-4.077371063E1,-3.479214935E0,-8.698411560E-1,4.093112555E1
7.841575125E0,-4.442476822E1,-4.938679962E0,-9.253756714E-1,4.470801842E1
7.851607125E0,-4.754263458E1,-8.635991364E0,-2.816093903E0,4.840261186E1
7.861640125E0,-4.926615051E1,-1.092233688E1,-2.121987305E0,5.050696842E1
7.871672125E0,-4.580968826E1,-1.181792450E1,3.284170532E0,4.742337666E1
7.881705125E0,-3.928116440E1,-1.198916840E1,7.000043335E0,4.166234081E1
7.891737125E0,-3.230507126E1,-1.114701965E1,5.451663208E0,3.460627556E1
7.901770125E0,-2.456317062E1,-1.003453308E1,1.904190216E0,2.660201394E1
7.911802125E0,-1.857951370E1,-8.433761902E0,-8.611592102E-1,2.042224925E1
7.921835125E0,-1.358290421E1,-6.527476044E0,-2.055675201E0,1.520950462E1
7.931867125E0,-9.709558868E0,-4.299658813E0,-2.238744507E0,1.085239956E1
7.941900125E0,-6.694079590E0,-2.954705658E0,-2.038910065E0,7.595929261E0
7.951932125E0,-3.867956543E0,-1.834435272E0,-1.968406677E0,4.711779434E0
7.961965125E0,-1.726360016E0,-8.289761353E-1,-1.526226196E0,2.448854169E0
7.971997125E0,-4.481680298E-1,-1.984872437E-1,-4.724176025E-1,6.807570492E-1
7.982030125E0,9.674382019E-1,1.742376709E-1,7.304809570E-1,1.224703176E0
7.992062125E0,1.531764679E0,7.223977661E-1,1.820214844E0,2.486230810E0
8.002095125E0,1.076411591E0,1.136586456E0,2.571652222E0,3.010628810E0
8.012127125E0,5.523513794E-1,1.236578522E0,3.100203094E0,3.383116568E0
8.022160125E0,2.576142883E-1,1.402283936E0,3.245401154E0,3.544769951E0
8.032192125E0,-6.122268677E-2,1.472338257E0,2.984493713E0,3.328472756E0
8.042225125E0,-1.005908203E-1,1.617835693E0,2.363584900E0,2.866015426E0
8.052257125E0,1.019380188E-1,1.948049011E0,1.713786163E0,2.596603421E0
8.062290125E0,7.653584290E-1,2.131268005E0,8.184979248E-1,2.407906910E0
8.072322125E0,1.689985657E0,2.099234619E0,2.543211365E-1,2.706938630E0
8.082355125E0,2.283052368E0,1.743873596E0,3.116519165E-1,2.889731848E0
8.092387125E0,2.222278748E0,1.255439301E0,4.623884583E-1,2.593926320E0
8.102420125E0,1.941612396E0,9.705816650E-1,7.517367554E-1,2.297171220E0
8.112452125E0,1.303788757E0,8.180488586E-1,9.937834167E-1,1.832122959E0
8.122485125E0,4.017645264E-1,7.656578064E-1,1.180445251E0,1.463248989E0
8.132517125E0,-3.400927734E-1,9.268725586E-1,1.533261566E0,1.823635617E0
8.142550125E0,-1.199755096E0,1.126257935E0,1.821861420E0,2.455004737E0
8.152582125E0,-2.825075226E0,1.099763031E0,1.803898773E0,3.527687563E0
8.162615125E0,-4.339326324E0,9.810598755E-1,1.597627716E0,4.727012349E0
8.172647125E0,-5.602549438E0,7.946974182E-1,1.409618683E0,5.831563172E0
8.182680125E0,-6.415957947E0,4.126918030E-1,1.026415558E0,6.510634362E0
8.192712125E0,-7.523055725E0,-1.531315613E-1,8.190966797E-1,7.569064413E0
8.202745125E0,-9.990674286E0,-9.910890198E-1,1.412612457E0,1.013860464E1
8.212777125E0,-1.353680008E1,-2.265389099E0,2.357896729E0,1.392611292E1
8.222810125E0,-1.674462936E1,-3.531605988E0,3.311713257E0,1.743049908E1
8.232842125E0,-1.891466675E1,-4.780908051E0,3.970942383E0,1.990954754E1
8.242875125E0,-2.060315552E1,-5.906866608E0,3.515140228E0,2.171951430E1
8.252907125E0,-2.377026947E1,-5.879473572E0,1.980082397E0,2.456653509E1
8.262940125E0,-2.728466125E1,-5.111869812E0,3.576063538E-1,2.776169727E1
8.272972125E0,-3.088512405E1,-4.102967834E0,-1.391356659E0,3.118751523E1
8.283005125E0,-3.296430038E1,-3.216062164E0,-2.754122772E0,3.323512220E1
8.293037125E0,-3.384626633E1,-2.204914856E0,-2.289189606E0,3.399517293E1
8.303070125E0,-3.486265274E1,-1.605112152E0,2.404000854E-1,3.490041165E1
8.313102125E0,-3.551080490E1,-2.354453888E0,2.595003662E0,3.568325604E1
8.323135125E0,-3.535677521E1,-3.379821625E0,3.763922882E0,3.571682885E1
8.333167125E0,-3.353925476E1,-4.688550110E0,4.658911743E0,3.418434687E1
8.343200125E0,-3.127416504E1,-5.270988922E0,5.338199158E0,3.216136025E1
8.353232125E0,-3.000809784E1,-4.893473969E0,5.670657806E0,3.092876304E1
8.363265125E0,-2.847648285E1,-4.393663330E0,6.048023071E0,2.944134739E1
8.373297125E0,-2.725666946E1,-3.814966736E0,4.356390839E0,2.786499852E1
8.383330125E0,-2.442485825E1,-3.017125854E0,1.668580170E0,2.466700040E1
8.393362125E0,-2.037143738E1,-2.515518951E0,-8.562194824E-1,2.054401149E1
8.403395125E0,-1.698023941E1,-2.188000031E0,-2.556533661E0,1.731045173E1
8.413427125E0,-1.362122452E1,-2.160008240E0,-3.048560486E0,1.412434473E1
8.423460125E0,-1.015158966E1,-2.002535706E0,-2.526146851E0,1.065111918E1
8.433492125E0,-8.118218079E0,-1.945953369E0,-1.644031219E0,8.508527366E0
8.443525125E0,-6.130501556E0,-1.798959045E0,-5.072950745E-1,6.409106901E0
8.453557125E0,-3.403472443E0,-1.882934418E0,5.822891235E-1,3.932954019E0
8.463590125E0,-5.017565918E-1,-2.105820923E0,1.663490753E0,2.730099435E0
8.473623125E0,2.338137817E0,-1.907034302E0,2.478994904E0,3.905007556E0
8.483655125E0,4.439617767E0,-1.067879333E0,3.255280609E0,5.607800285E0
8.493688125E0,6.064039764E0,-2.317181396E-1,3.606749725E0,7.059384898E0
8.503720125E0,7.046895905E0,6.616241455E-2,3.469634857E0,7.855029306E0
8.513753125E0,7.565267944E0,-2.718347168E-1,3.200344849E0,8.218843005E0
8.523785125E0,7.126380615E0,-4.918771362E-1,2.863545227E0,7.695916778E0
8.533818125E0,5.604046326E0,-3.567082214E-1,2.590962067E0,6.184307593E0
8.543850125E0,3.828887787E0,6.855743408E-2,2.499651947E0,4.573110721E0
8.553883125E0,2.240540771E0,4.839436340E-1,2.228266296E0,3.196778860E0
8.563915125E0,1.185384979E0,6.851252747E-1,2.068997498E0,2.480984650E0
8.573948125E0,1.180894318E0,1.001866608E0,2.366279297E0,2.827989710E0
8.583980125E0,1.811682587E0,1.205143890E0,2.355202332E0,3.206484619E0
8.594013125E0,2.164498901E0,1.378034363E0,1.915865936E0,3.202276766E0
8.604045125E0,2.077679443E0,1.480122070E0,1.341510315E0,2.882214971E0
8.614078125E0,1.420096893E0,1.461111603E0,8.063731384E-1,2.191291843E0
8.624110125E0,1.070723419E0,1.700463867E0,6.081852722E-1,2.099503591E0
8.634143125E0,1.100062408E0,1.931433563E0,3.845503235E-1,2.255759709E0
8.644175125E0,1.083297272E0,1.964514771E0,-1.287322998E-2,2.243438651E0
8.654208125E0,8.093669128E-1,1.494941254E0,-1.821711731E-1,1.709710644E0
8.664240125E0,5.279521179E-1,7.107220459E-1,-2.972817993E-1,9.339356153E-1
8.674273125E0,7.679031372E-2,1.233435059E-1,-2.856060791E-1,3.204390818E-1
8.684305125E0,-4.805007935E-1,-5.313949585E-2,-6.825805664E-2,4.882253382E-1
8.694338125E0,-1.014739838E0,2.245330811E-2,-3.158432007E-2,1.015479521E0
8.704370125E0,-1.542841644E0,1.475930786E-1,-1.621128845E-1,1.558340349E0
8.714403125E0,-2.221979370E0,1.359173584E-1,-3.046165466E-1,2.246877186E0
8.724435125E0,-3.060984650E0,5.029541016E-2,-3.423381042E-1,3.080479189E0
8.734468125E0,-3.507506104E0,1.691482544E-2,-3.442840576E-1,3.524403026E0
8.744500125E0,-3.540737000E0,-6.451583862E-2,-4.278103638E-1,3.567071979E0
8.754533125E0,-3.652853851E0,-1.022373962E-1,-5.233117676E-1,3.691564567E0
8.764565125E0,-3.824696503E0,2.230361938E-2,-6.351292419E-1,3.877136823E0
8.774598125E0,-3.659440155E0,1.678010559E-1,-6.390211487E-1,3.718602892E0
8.784630125E0,-2.785557404E0,5.074447632E-2,-6.839277649E-1,2.868738789E0
8.794663125E0,-1.706002350E0,-1.193019104E-1,-8.273295593E-1,1.899776609E0
8.804695125E0,-9.202862549E-1,-2.550695801E-1,-9.093589783E-1,1.318681551E0
8.814728125E0,-6.060896301E-1,-3.876937866E-1,-8.463400269E-1,1.110829669E0
8.824760125E0,-8.553213501E-1,-6.406677246E-1,-5.899232483E-1,1.220671612E0
8.834793125E0,-2.100881195E0,-8.140072632E-1,-3.864962769E-1,2.285976595E0
8.844825125E0,-4.305945740E0,-9.839039612E-1,8.681945801E-2,4.417779231E0
8.854858125E0,-6.185437317E0,-8.945397949E-1,1.068478088E0,6.340463837E0
8.864890125E0,-7.348518677E0,-4.478686523E-1,1.755100250E0,7.568466817E0
8.874923125E0,-7.868387604E0,-1.592687988E-1,1.965412903E0,8.111703761E0
8.884955125E0,-8.111332397E0,-4.385879517E-1,1.480122070E0,8.256926426E0
8.894988125E0,-8.865464172E0,-1.188977509E0,4.697232056E-1,8.957162631E0
8.905020125E0,-9.814041595E0,-1.867217102E0,-2.098635864E-1,9.992294775E0
8.915053125E0,-1.073387878E1,-2.930007019E0,-1.252894592E-1,1.112729942E1
8.925085125E0,-1.086425766E1,-4.794679413E0,1.089733887E-1,1.187572820E1
8.935118125E0,-9.753118286E0,-6.191574554E0,-1.374142456E-1,1.155325904E1
8.945150125E0,-8.873547363E0,-5.165158997E0,-2.927162933E0,1.067646913E1
8.955183125E0,-1.006581802E1,-3.623215485E0,-8.233328705E0,1.349948460E1
8.965215125E0,-1.508248581E1,-4.082759857E0,-1.347168549E1,2.063096256E1
8.975248125E0,-2.553584793E1,-5.066364441E0,-1.593316681E1,3.052234235E1
8.985280125E0,-3.824412094E1,-4.146826630E0,-1.702963669E1,4.206919875E1
8.995313125E0,-4.695166351E1,-4.508773956E0,-2.028955765E1,5.134641077E1
9.005345125E0,-4.871215256E1,-7.526049500E0,-2.346505417E1,5.459051195E1
9.015378125E0,-4.768977859E1,-9.869725800E0,-2.099189713E1,5.303193580E1
9.025410125E0,-4.045607117E1,-9.846224670E0,-1.350177292E1,4.377144853E1
9.035443125E0,-3.091610962E1,-8.794811096E0,-8.611292725E0,3.327625127E1
9.045475125E0,-2.355816055E1,-8.454119568E0,-5.370831299E0,2.559892371E1
9.055508125E0,-1.899849243E1,-7.176825714E0,-3.653153229E0,2.063480241E1
9.065540125E0,-1.648896103E1,-5.371130676E0,-2.874921570E0,1.757839738E1
9.075573125E0,-1.441996353E1,-3.452570343E0,-2.359543304E0,1.501409454E1
9.085605125E0,-1.264046402E1,-1.483265533E0,-2.885699158E0,1.305023628E1
9.095638125E0,-1.060574524E1,4.013154602E-1,-3.808829498E0,1.127608391E1
9.105670125E0,-7.751780090E0,1.494492188E0,-5.069507904E0,9.382084622E0
9.115703125E0,-4.944517822E0,1.925146637E0,-5.452561340E0,7.608210778E0
9.125735125E0,-2.570604401E0,2.116748199E0,-4.669839020E0,5.735505766E0
9.135768125E0,-1.997446289E0,2.070644073E0,-3.275338898E0,4.359495780E0
9.145800125E0,-2.032174072E0,1.901495819E0,-1.560953979E0,3.190923869E0
9.155833125E0,-2.298021240E0,1.564995575E0,1.646575928E-3,2.780308523E0
9.165865125E0,-3.672762451E0,1.377136230E0,1.235381012E0,4.112402517E0
9.175897375E0,-4.754113770E0,1.545086975E0,2.043700104E0,5.400518643E0
9.185929375E0,-4.473746796E0,1.897603912E0,2.484084320E0,5.457653883E0
9.195962375E0,-2.852767639E0,2.035467224E0,2.436034241E0,4.267982292E0
9.205994375E0,-6.649172974E-1,1.837878113E0,1.834734650E0,2.680701812E0
9.216027375E0,1.461560669E0,1.659898224E0,1.200054474E0,2.516257626E0
9.226059375E0,3.076552277E0,1.723366241E0,5.360353088E-1,3.566861220E0
9.236092375E0,4.147874451E0,1.742825775E0,2.637515259E-1,4.506869092E0
9.246124375E0,4.707111511E0,1.508862305E0,2.207908630E-1,4.947960473E0
9.256157375E0,4.678520966E0,1.268013153E0,5.468128967E-1,4.878054953E0
9.266189375E0,4.291875000E0,1.149309998E0,9.800120544E-1,4.549893198E0
9.276222375E0,3.630400543E0,1.116079102E0,1.279239807E0,4.007729426E0
9.286254375E0,2.553839264E0,9.791139221E-1,1.506018219E0,3.122314836E0
9.296287375E0,8.960366821E-1,1.074615326E0,1.544039154E0,2.083683456E0
9.306319375E0,-1.097068634E0,1.480870514E0,1.136436768E0,2.165184887E0
9.316352375E0,-3.017574921E0,1.925296326E0,3.403921509E-1,3.595607203E0
9.326384375E0,-4.520000610E0,2.319726105E0,-8.678952026E-1,5.154102909E0
9.336417375E0,-4.903203735E0,2.076481934E0,-2.042801971E0,5.703176657E0
9.346449375E0,-4.523892517E0,7.619155884E-1,-2.674039307E0,5.310047559E0
9.356482375E0,-4.459825745E0,-9.729766846E-1,-2.209704895E0,5.071442105E0
9.366514375E0,-5.144501953E0,-2.621049500E0,-2.902464294E-1,5.781007163E0
9.376547375E0,-6.950945435E0,-3.474424896E0,1.375938721E0,7.891798157E0
9.386579375E0,-9.658964081E0,-3.512445831E0,2.225721588E0,1.051602108E1
9.396612375E0,-1.290900558E1,-3.453468475E0,2.822979584E0,1.365789455E1
9.406644375E0,-1.629795822E1,-3.479065247E0,3.679049377E0,1.706642146E1
9.416677375E0,-2.031410660E1,-2.985840912E0,3.351530457E0,2.080410847E1
9.426709375E0,-2.389346329E1,-3.379522247E0,2.843486938E0,2.429823402E1
9.436742375E0,-2.635135208E1,-5.449717255E0,2.915636902E0,2.706647582E1
9.446775375E0,-2.930800369E1,-7.948920135E0,2.074835358E0,3.043763055E1
9.456807375E0,-3.349195312E1,-9.764045563E0,5.715115356E-1,3.489088900E1
9.466840375E0,-3.736440033E1,-1.066771637E1,-1.088686066E0,3.887266163E1
9.476872375E0,-3.848961044E1,-1.092518097E1,-3.104544067E0,4.013038606E1
9.486905375E0,-3.628798874E1,-1.025592270E1,-4.279001770E0,3.795144178E1
9.496937375E0,-3.244952087E1,-9.481283569E0,-4.270170135E0,3.407492474E1
9.506970375E0,-2.852109009E1,-9.148076477E0,-4.043691101E0,3.022401894E1
9.517002375E0,-2.608430740E1,-8.632548523E0,-3.765569458E0,2.773249899E1
9.527035375E0,-2.473082199E1,-8.362659760E0,-2.507884827E0,2.622664906E1
9.537067375E0,-2.345861755E1,-8.455766144E0,-9.117539978E-1,2.495271556E1
9.547100375E0,-2.266556671E1,-8.144413605E0,5.468128967E-1,2.409062871E1
9.557132375E0,-2.234134094E1,-7.613467712E0,1.286424866E0,2.363800530E1
9.567165375E0,-2.232682114E1,-7.047794037E0,1.315913544E0,2.344973286E1
9.577197375E0,-2.231873795E1,-6.110592957E0,9.798623657E-1,2.316086225E1
9.587230375E0,-2.136731644E1,-4.536765747E0,-6.840774536E-2,2.184374361E1
9.597262375E0,-1.844419510E1,-2.972967682E0,-1.745220795E0,1.876359948E1
9.607295375E0,-1.450947739E1,-1.914219360E0,-3.614683228E0,1.507498274E1
9.617327375E0,-1.064152084E1,-1.314716034E0,-4.860392761E0,1.177258943E1
9.627360375E0,-6.731651459E0,-8.093669128E-1,-5.146447906E0,8.512116788E0
9.637392375E0,-3.176843719E0,-2.246827698E-1,-3.991150360E0,5.106084563E0
9.647425375E0,-3.439846802E-1,1.275347900E-1,-2.226170654E0,2.256197324E0
9.657457375E0,1.738035736E0,4.565505981E-1,-4.358935547E-1,1.849110559E0
9.667490375E0,3.427722015E0,8.822653198E-1,1.195264435E0,3.735816829E0
9.677522375E0,4.778962097E0,1.124461670E0,2.593357086E0,5.552332280E0
9.687555375E0,5.433401184E0,1.262175293E0,3.735032959E0,6.713077245E0
9.697587375E0,5.492378540E0,1.162931671E0,4.696034546E0,7.319246720E0
9.707620375E0,4.881648560E0,1.068777466E0,4.736300812E0,6.885152381E0
9.717652375E0,3.652255096E0,1.357227631E0,3.981121216E0,5.570490128E0
9.727685375E0,2.389181671E0,1.621877289E0,3.192860413E0,4.305000884E0
9.737717375E0,1.053359528E0,1.631157990E0,2.871179352E0,3.466109282E0
9.747750375E0,-2.489323425E-1,1.980980530E0,3.012635193E0,3.614169611E0
9.757782375E0,-9.846524048E-1,2.116448822E0,3.069816284E0,3.856509820E0
9.767815375E0,-5.402265930E-1,1.791773987E0,3.304228821E0,3.797397384E0
9.777847375E0,-1.833686829E-1,1.706152039E0,3.667972412E0,4.049518548E0
9.787880375E0,-6.960525513E-2,2.017953644E0,3.714076538E0,4.227451517E0
9.797912375E0,3.748205566E-1,2.214195557E0,2.758314056E0,3.556887522E0
9.807945375E0,8.388555908E-1,2.280956726E0,1.363963623E0,2.786904924E0
9.817977375E0,1.313368835E0,2.493215332E0,1.015338593E0,2.995325166E0
9.828010375E0,1.789528656E0,2.613115997E0,8.400531006E-1,3.276656411E0
9.838042375E0,2.041005707E0,2.359692993E0,5.617817688E-1,3.170087392E0
9.848075375E0,2.008074188E0,1.964514771E0,4.993615723E-1,2.853251165E0
9.858107375E0,1.750310211E0,1.718426514E0,5.301974487E-1,2.509518849E0
9.868140375E0,1.574126587E0,1.556762695E0,4.448748779E-1,2.258162585E0
9.878172375E0,1.393152924E0,1.368753662E0,2.311193848E-1,1.966666679E0
9.888205375E0,1.139729919E0,1.234033813E0,-3.622467041E-2,1.680219024E0
9.898237375E0,6.463558960E-1,1.244212646E0,-3.300636292E-1,1.440410724E0
9.908270375E0,1.736389160E-2,1.411115570E0,-6.095324707E-1,1.537230786E0
9.918302375E0,-3.255729675E-1,1.557211761E0,-8.448431396E-1,1.801295689E0
9.928335375E0,-2.939886475E-1,1.463057556E0,-9.391470337E-1,1.763225422E0
9.938367375E0,-1.935475159E-1,1.253493347E0,-8.999285889E-1,1.555177700E0
9.948400375E0,-4.611909485E-1,1.160536652E0,-7.226971436E-1,1.442856047E0
9.958432375E0,-6.971003723E-1,1.014739838E0,-4.758604431E-1,1.319882203E0
9.968465375E0,-9.237290955E-1,8.201445007E-1,-2.555186462E-1,1.261428643E0
9.978497375E0,-1.177152100E0,5.921685791E-1,-5.254074097E-2,1.318753662E0
9.988530375E0,-1.295106812E0,1.838177490E-1,1.347198486E-1,1.315005725E0
9.998562375E0,-1.584904175E0,-1.910028076E-1,3.091072083E-1,1.626022934E0
1.000859537E1,-2.049537964E0,-5.965095520E-1,5.174739075E-1,2.196408149E0
1.001862738E1,-2.693049774E0,-8.137078857E-1,1.004261627E0,2.987169065E0
1.002866037E1,-3.980522461E0,-1.122366028E0,1.713786163E0,4.476754134E0
1.003869238E1,-6.383625183E0,-1.863325195E0,2.402354279E0,7.070640518E0
1.004872537E1,-9.629325714E0,-2.595602417E0,2.901715851E0,1.038657886E1
1.005875738E1,-1.244257553E1,-3.401975555E0,3.273093567E0,1.330805264E1
1.006879038E1,-1.374172394E1,-4.988975372E0,3.436403961E0,1.501778027E1
1.007882237E1,-1.349638412E1,-7.770341492E0,4.025429077E0,1.608523144E1
1.008885538E1,-1.451741089E1,-1.031879196E1,3.944896545E0,1.824266689E1
1.009888737E1,-2.218491623E1,-9.272767181E0,-3.278182983E-2,2.404487043E1
1.010892038E1,-3.205329483E1,-7.088209991E0,-2.255958710E0,3.290510264E1
1.011895237E1,-3.852957733E1,-7.998467102E0,-2.144141235E0,3.940940430E1
1.012898537E1,-4.238645691E1,-9.164242859E0,-4.028123474E0,4.355250688E1
1.013901738E1,-4.445605316E1,-8.424630890E0,-7.283404083E0,4.582971791E1
1.014905037E1,-4.426984039E1,-7.309749298E0,-1.099748062E1,4.619735689E1
1.015908238E1,-4.070260849E1,-7.134912872E0,-1.151914581E1,4.289871839E1
1.016911537E1,-3.459321304E1,-6.528823242E0,-8.465196533E0,3.620739529E1
1.017914825E1,-2.763014282E1,-7.290738831E0,-4.557722168E0,2.893704367E1
1.018918125E1,-2.084654938E1,-8.432714081E0,-3.063529358E0,2.269525280E1
1.019921425E1,-1.567136124E1,-8.348589020E0,-2.955304413E0,1.800067570E1
1.020924625E1,-1.266725830E1,-6.736441498E0,-2.519111481E0,1.456657130E1
1.021927925E1,-1.129206802E1,-4.889731750E0,-2.609074402E0,1.257885313E1
1.022931125E1,-1.072010742E1,-3.433709564E0,-3.012335815E0,1.165269203E1
1.023934425E1,-1.009770172E1,-2.204016724E0,-3.115321655E0,1.079474404E1
1.024937625E1,-9.469158783E0,-1.553469543E0,-2.592309265E0,9.939733548E0
1.025940925E1,-8.882678375E0,-1.034349060E0,-2.266436920E0,9.225431665E0
1.026944125E1,-8.136929169E0,-8.927435303E-1,-1.867516479E0,8.396083915E0
1.027947425E1,-6.685098267E0,-6.483018494E-1,-8.478369141E-1,6.769760820E0
1.028950625E1,-5.164560242E0,-6.855743408E-2,-2.216889954E-1,5.169770655E0
1.029953925E1,-4.246669006E0,5.713618469E-1,9.939331055E-2,4.286085748E0
1.030957125E1,-4.052822113E0,9.910890198E-1,4.014651489E-1,4.191515095E0
1.031960425E1,-3.715573425E0,1.529519348E0,7.932005310E-1,4.095617462E0
1.032963625E1,-3.263812866E0,2.213596802E0,1.069675598E0,4.086158479E0
1.033966925E1,-3.137774963E0,2.682122498E0,1.359622650E0,4.346031128E0
1.034970125E1,-3.097359009E0,2.750979309E0,1.531614990E0,4.416714216E0
1.035973425E1,-2.761756897E0,2.576741638E0,1.481768646E0,4.057405199E0
1.036976625E1,-1.796564026E0,2.197430420E0,1.078207855E0,3.036260023E0
1.037979925E1,-7.566764832E-1,1.971400452E0,8.455915833E-1,2.274643745E0
1.038983125E1,4.849914551E-2,1.769470367E0,1.033151550E0,2.049580365E0
1.039986425E1,7.231462097E-1,1.585353241E0,1.158740387E0,2.092597578E0
1.040989625E1,1.143172760E0,1.446591797E0,9.731263733E-1,2.084813355E0
1.041992925E1,1.163680115E0,1.467548218E0,7.403604126E-1,2.013947050E0
1.042996125E1,9.904902649E-1,1.635199585E0,5.611830139E-1,1.992454522E0
1.043999425E1,9.114546204E-1,1.776056671E0,4.710704041E-1,2.051105592E0
1.045002625E1,1.003213806E0,1.844913483E0,3.698808289E-1,2.132359146E0
1.046005925E1,1.367705841E0,1.794169006E0,1.971400452E-1,2.264624889E0
1.047009125E1,1.757046204E0,1.498982849E0,-1.097218323E-1,2.312185076E0
1.048012425E1,1.421444092E0,1.028810577E0,-7.514373779E-1,1.908824938E0
1.049015625E1,6.132746887E-1,5.462141418E-1,-9.616003418E-1,1.264567495E0
1.050018925E1,-6.251000977E-1,3.047662354E-1,-4.138893127E-1,8.092817516E-1
1.051022125E1,-2.265239410E0,2.619552612E-2,4.282594299E-1,2.305515546E0
1.052025425E1,-4.721032562E0,-5.706134033E-1,1.077160034E0,4.875861139E0
1.053028625E1,-7.648045807E0,-8.749305725E-1,1.521585846E0,7.846867633E0
1.054031925E1,-1.015488281E1,-9.897418213E-1,1.363963623E0,1.029376659E1
1.055035125E1,-1.260708344E1,-1.354233856E0,8.804690552E-1,1.271014271E1
1.056038425E1,-1.562480804E1,-1.871707764E0,8.807684326E-1,1.576114429E1
1.057041625E1,-1.917707108E1,-2.756667480E0,1.221909027E0,1.941268483E1
1.058044925E1,-2.282049454E1,-3.486998749E0,2.283950500E0,2.319807236E1
1.059048125E1,-2.614553009E1,-3.891457672E0,4.033063202E0,2.673944250E1
1.060051425E1,-2.990840515E1,-5.878425751E0,5.644911346E0,3.099892921E1
1.061054625E1,-3.450744141E1,-8.365054779E0,5.805677032E0,3.597837600E1
1.062057925E1,-3.764416855E1,-1.039722885E1,6.083648987E0,3.952463255E1
1.063061125E1,-3.934103989E1,-1.096080688E1,6.356232147E0,4.133108266E1
1.064064425E1,-3.911950058E1,-1.031519943E1,6.467450867E0,4.097031347E1
1.065067625E1,-3.710169662E1,-9.976154480E0,7.775430908E0,3.919842952E1
1.066070925E1,-3.330873413E1,-1.021191422E1,8.288264465E0,3.581131510E1
1.067074125E1,-2.929992050E1,-9.625284119E0,7.755671997E0,3.180065855E1
1.068077425E1,-2.621962601E1,-8.208630066E0,7.166197815E0,2.839374555E1
1.069080625E1,-2.389031982E1,-7.213499451E0,6.928342438E0,2.589949584E1
1.070083925E1,-2.228954865E1,-6.220464478E0,6.839577026E0,2.413085102E1
1.071087125E1,-2.177686478E1,-5.055437164E0,6.231092377E0,2.320809765E1
1.072090425E1,-2.166639450E1,-3.869453430E0,5.649252319E0,2.272266209E1
1.073093725E1,-2.144410675E1,-2.760559387E0,4.748275909E0,2.213631692E1
1.074096925E1,-2.102767273E1,-2.366129608E0,3.937412109E0,2.152358715E1
1.075100125E1,-1.949321365E1,-2.264191589E0,3.206332397E0,1.988447911E1
1.076103425E1,-1.745924332E1,-1.389111328E0,2.136507111E0,1.764424751E1
1.077106725E1,-1.480436417E1,-3.302133179E-1,2.541714478E-1,1.481022763E1
1.078109925E1,-1.162796951E1,2.829116821E-1,-1.965861969E0,1.179636924E1
1.079113225E1,-8.567284241E0,8.140072632E-1,-4.030668182E0,9.503012842E0
1.080116425E1,-5.672903137E0,1.406325531E0,-5.769901428E0,8.212876719E0
1.081119725E1,-2.467169495E0,2.224973145E0,-6.444698181E0,7.250625177E0
1.082122925E1,1.026265869E0,2.859803009E0,-5.656437378E0,6.420823833E0
1.083126225E1,4.337530060E0,2.574496307E0,-3.840862885E0,6.339907409E0
1.084129425E1,6.277645569E0,1.784888306E0,-1.878144379E0,6.791324352E0
1.085132725E1,7.054979095E0,9.792636108E-1,1.737886047E-1,7.124737871E0
1.086135925E1,6.706054688E0,4.346960449E-1,1.983375549E0,7.006704553E0
1.087139225E1,5.504653015E0,1.893562317E-1,2.844085693E0,6.198861511E0
1.088142425E1,5.071603546E0,-1.468446350E-1,2.981649628E0,5.884977517E0
1.089145725E1,5.294040985E0,-4.784051514E-1,2.728975067E0,5.975202621E0
1.090148925E1,5.517675934E0,-6.345304871E-1,2.404749298E0,6.052288479E0
1.091152225E1,5.401667175E0,-3.778143311E-1,2.184108124E0,5.838756737E0
1.092155425E1,4.952151947E0,-5.623805237E-1,2.049987030E0,5.389111948E0
1.093158725E1,4.771327972E0,-8.864566040E-1,2.127226410E0,5.298723255E0
1.094161925E1,4.528532867E0,-9.931846619E-1,1.942360840E0,5.026608333E0
1.095165225E1,3.868405609E0,-8.753796387E-1,1.756447449E0,4.337736634E0
1.096168425E1,2.895728302E0,-5.272036743E-1,1.975292358E0,3.544709581E0
1.097171725E1,1.884730682E0,-4.468208313E-1,2.064955902E0,2.831236740E0
1.098174925E1,1.063688049E0,-5.978567505E-1,1.903890839E0,2.261341479E0
1.099178225E1,2.445913696E-1,-5.801934814E-1,1.548978882E0,1.672060104E0
1.100181425E1,-2.909948730E-1,-6.125262451E-1,1.327289886E0,1.490491483E0
1.101184725E1,-6.071374512E-1,-6.724017334E-1,1.098565521E0,1.423933348E0
1.102187925E1,-9.836045837E-1,-8.099656677E-1,6.917115784E-1,1.449823185E0
1.103191225E1,-1.403780823E0,-9.241781616E-1,3.323089600E-1,1.713223604E0
1.104194425E1,-1.692680054E0,-8.255332947E-1,1.399589539E-1,1.888454260E0
1.105197725E1,-2.098785553E0,-6.840774536E-1,-7.125183105E-2,2.208605801E0
1.106200925E1,-2.705324249E0,-5.330415344E-1,-3.026705933E-1,2.773900153E0
1.107204225E1,-2.991229706E0,-3.186872864E-1,-5.162763977E-1,3.052139915E0
1.108207425E1,-2.899320831E0,-1.541793823E-1,-6.962022400E-1,2.985721039E0
1.109210725E1,-2.667902069E0,1.377136230E-2,-9.024732971E-1,2.816442641E0
1.110213925E1,-2.430495758E0,2.315684509E-1,-1.093625793E0,2.675247830E0
1.111217225E1,-2.021546173E0,4.507127380E-1,-1.060245209E0,2.326781211E0
1.112220425E1,-1.451531525E0,5.566923523E-1,-9.026229858E-1,1.797659144E0
1.113223725E1,-1.021026764E0,4.791535950E-1,-7.054829407E-1,1.330334544E0
1.114226925E1,-5.881269836E-1,4.209246826E-1,-4.760101318E-1,8.658271091E-1
1.115230225E1,-2.372566223E-1,4.819976807E-1,-2.707868958E-1,6.016128422E-1
1.116233425E1,-4.909790039E-1,5.047503662E-1,-6.631210327E-2,7.072698279E-1
1.117236725E1,-1.128353577E0,4.308041382E-1,2.911445618E-1,1.242392513E0
1.118239850E1,-1.601070557E0,2.354603577E-1,7.638615417E-1,1.789511934E0
1.119243150E1,-2.112556915E0,1.074765015E-1,1.204096069E0,2.433987523E0
1.120246350E1,-3.299588470E0,-1.496887207E-2,1.673220520E0,3.699618230E0
1.121249650E1,-5.517975311E0,-2.077679443E-1,2.154020691E0,5.927143004E0
1.122252850E1,-7.909851379E0,-1.130898285E0,2.676134949E0,8.426528232E0
1.123256150E1,-9.888137512E0,-2.928210754E0,3.610941010E0,1.092650798E1
1.124259350E1,-1.129281647E1,-4.796625366E0,4.249064026E0,1.298421595E1
1.125262650E1,-1.139325760E1,-6.680607605E0,4.698878632E0,1.401842705E1
1.126265850E1,-9.421258392E0,-7.353907471E0,4.357139282E0,1.272103484E1
1.127269150E1,-7.195237427E0,-4.566553802E0,3.564238129E0,9.237350740E0
1.128272350E1,-6.844067688E0,7.963439941E-1,2.526745605E-1,6.894872784E0
1.129275650E1,-8.810229034E0,4.199966125E0,-4.820126495E0,1.088547062E1
1.130278950E1,-1.396281418E1,2.907404022E0,-6.269562378E0,1.557949262E1
1.131282150E1,-2.264356247E1,-1.013392639E-1,-3.487896881E0,2.291084057E1
1.132285450E1,-3.185151443E1,-2.880460052E0,-8.768765259E-1,3.199351394E1
1.133288650E1,-4.069602219E1,-5.782475281E0,-1.560804291E0,4.113440594E1
1.134291950E1,-4.649346634E1,-8.040379944E0,-4.615052948E0,4.740874219E1
1.135295150E1,-4.649541229E1,-8.858428802E0,-7.153174896E0,4.786922849E1
1.136298450E1,-4.295347778E1,-7.724237366E0,-5.522915039E0,4.399054088E1
1.137301650E1,-3.814682327E1,-5.931116180E0,-3.326382751E0,3.874820108E1
1.138304950E1,-3.375929718E1,-5.092559967E0,-4.406087494E0,3.442437973E1
1.139308150E1,-3.082060822E1,-4.573289795E0,-6.466103668E0,3.182193217E1
1.140311450E1,-2.848785919E1,-4.058360596E0,-6.402336273E0,2.947911671E1
1.141314650E1,-2.596500549E1,-3.161126404E0,-4.478387146E0,2.653733562E1
1.142317950E1,-2.327075821E1,-2.017654266E0,-3.556604004E0,2.362728398E1
1.143321150E1,-2.099324432E1,-1.128503265E0,-3.432811432E0,2.130197224E1
1.144324450E1,-1.886811356E1,-2.544708252E-1,-2.813399506E0,1.907840877E1
1.145327650E1,-1.669747742E1,-6.960525513E-2,-1.935026093E0,1.680937009E1
1.146330950E1,-1.453821762E1,-3.510200500E-1,-9.422904968E-1,1.457295090E1
1.147334150E1,-1.204320602E1,-1.063538361E0,-7.424560547E-2,1.209030345E1
1.148337450E1,-9.282496948E0,-2.079026642E0,6.165678406E-1,9.532431866E0
1.149340650E1,-6.756649475E0,-2.538421326E0,1.219514008E0,7.320048454E0
1.150343950E1,-5.555996246E0,-2.512375488E0,1.291663971E0,6.232938368E0
1.151347150E1,-4.689148865E0,-1.867217102E0,1.237925720E0,5.196833350E0
1.152350450E1,-2.862198029E0,-8.324189758E-1,1.903142395E0,3.536530769E0
1.153353650E1,-6.122268677E-1,3.326083374E-1,2.634970551E0,2.725531113E0
1.154356950E1,1.224304047E0,1.341360626E0,2.561323700E0,3.139832452E0
1.155360150E1,2.460283813E0,2.161355438E0,2.231110382E0,3.962613697E0
1.156363450E1,2.846630402E0,2.838846588E0,2.264490967E0,4.614138482E0
1.157366650E1,2.865042114E0,3.352578278E0,3.018622742E0,5.344186625E0
1.158369950E1,2.250420227E0,4.006119232E0,3.908222809E0,6.032212531E0
1.159373150E1,1.639390869E0,4.474495239E0,4.450095978E0,6.520127628E0
1.160376450E1,1.255139923E0,4.243226166E0,4.518503723E0,6.324335571E0
1.161379650E1,1.294807434E0,3.818409576E0,4.274062042E0,5.875745427E0
1.162382950E1,1.851649475E0,3.390449524E0,3.908522186E0,5.495479909E0
1.163386150E1,2.464325409E0,3.420986023E0,3.414998474E0,5.425703610E0
1.164389450E1,3.247347107E0,3.565735016E0,2.819985809E0,5.586774508E0
1.165392650E1,3.814817047E0,3.552263031E0,1.989662476E0,5.579440699E0
1.166395950E1,3.898792419E0,3.200943604E0,9.590556335E-1,5.134823268E0
1.167399150E1,3.623963928E0,2.465672607E0,4.131408691E-2,4.383419078E0
1.168402450E1,2.930156708E0,1.727557526E0,-6.518943787E-1,3.463414445E0
1.169405750E1,1.554367676E0,1.289418640E0,-8.487350464E-1,2.190664392E0
1.170408950E1,-3.936813354E-2,8.933422852E-1,-6.054908752E-1,1.079921057E0
1.171412250E1,-1.401236115E0,7.454498291E-1,-3.478765869E-1,1.624861907E0
1.172415450E1,-2.553539886E0,5.803431702E-1,-4.140390015E-1,2.651186987E0
1.173418750E1,-3.473826141E0,1.966909790E-1,-4.727169800E-1,3.511355400E0
1.174421950E1,-4.146227875E0,-8.547225952E-2,-5.080435181E-1,4.178111932E0
1.175425250E1,-4.352049866E0,-2.836601257E-1,-4.463717651E-1,4.384067615E0
1.176428450E1,-4.230352936E0,-8.652008057E-1,-3.891906738E-1,4.335427058E0
1.177431750E1,-4.694537659E0,-1.763183441E0,-5.797444153E-1,5.048128689E0
1.178434950E1,-5.918093262E0,-2.399510193E0,-6.089337158E-1,6.415004076E0
1.179438250E1,-7.749085693E0,-3.166664886E0,-3.501219177E-1,8.378465310E0
1.180441450E1,-1.001537292E1,-3.525917816E0,2.266287231E-1,1.062031788E1
1.181444750E1,-1.204634949E1,-3.473227386E0,1.164727936E0,1.259104585E1
1.182447950E1,-1.366598145E1,-3.727997589E0,2.337389374E0,1.435689395E1
1.183451250E1,-1.631651962E1,-4.134701843E0,3.866609344E0,1.727064677E1
1.184454450E1,-2.069087311E1,-4.405189362E0,5.539231110E0,2.186780749E1
1.185457750E1,-2.767968979E1,-4.515659637E0,6.807992706E0,2.886009656E1
1.186460950E1,-3.470607834E1,-5.177882538E0,8.908125458E0,3.620327389E1
1.187464250E1,-3.697565872E1,-6.880741425E0,1.067969147E1,3.909731129E1
1.188467450E1,-3.669529175E1,-8.603808289E0,9.531429291E0,3.887696102E1
1.189470750E1,-3.641477509E1,-8.971443787E0,6.014492798E0,3.798284839E1
1.190473950E1,-3.474829056E1,-8.448730774E0,4.294569397E0,3.601760784E1
1.191477250E1,-3.259127609E1,-7.409591675E0,3.782184906E0,3.363626389E1
1.192480450E1,-2.989014313E1,-6.163283386E0,3.364403687E0,3.070384227E1
1.193483750E1,-2.705414063E1,-5.934109955E0,2.584375763E0,2.781760565E1
1.194486950E1,-2.456466751E1,-6.468648376E0,1.433119812E0,2.544248679E1
1.195490250E1,-2.234253845E1,-6.768774261E0,5.697152710E-1,2.335229978E1
1.196493450E1,-2.077978821E1,-6.464756470E0,4.903802490E-1,2.176770881E1
1.197496750E1,-2.013882111E1,-5.710175629E0,1.126856689E0,2.096301570E1
1.198499950E1,-2.027743286E1,-4.897515564E0,1.394799500E0,2.090706598E1
1.199503250E1,-2.018896683E1,-4.247267761E0,1.265019379E0,2.066963810E1
1.200506450E1,-1.961461121E1,-3.927382965E0,6.999444580E-1,2.001617426E1
1.201509750E1,-1.954291031E1,-3.761378174E0,7.394622803E-2,1.990172799E1
1.202512950E1,-1.954276062E1,-3.724255371E0,-6.298901367E-1,1.990442997E1
1.203516250E1,-2.014331177E1,-3.340453491E0,-4.930746460E-1,2.042436685E1
1.204519450E1,-1.982417542E1,-3.303330688E0,1.318607941E0,2.014072122E1
1.205522750E1,-1.869746841E1,-2.462080078E0,2.468666382E0,1.901976543E1
1.206525950E1,-1.663820068E1,-7.072792053E-1,3.235821075E0,1.696468402E1
1.207529250E1,-1.293984146E1,9.132508850E-1,3.420686646E0,1.341546203E1
1.208532450E1,-8.482111359E0,1.845212860E0,2.999911652E0,9.184252475E0
1.209535750E1,-4.197122040E0,1.978884888E0,2.560275879E0,5.299701066E0
1.210539050E1,-4.884342957E-1,1.338666229E0,2.249671783E0,2.663009288E0
1.211542250E1,2.441273346E0,2.171983337E-1,2.184108124E0,3.282882721E0
1.212545450E1,4.672982483E0,-5.456153870E-1,2.327958984E0,5.249176552E0
1.213548750E1,5.781577148E0,-7.194039917E-1,2.405198364E0,6.303106821E0
1.214552050E1,6.672973480E0,-1.251098328E0,2.668351135E0,7.294787171E0
1.215555250E1,7.182962952E0,-1.715133362E0,2.895129547E0,7.932112853E0
1.216558550E1,8.100704498E0,-2.186203766E0,3.629053345E0,9.141713650E0
1.217561842E1,8.326135712E0,-2.803220673E0,3.227588196E0,9.359482229E0
1.218565142E1,7.913892975E0,-2.449356537E0,7.433541870E-1,8.317549213E0
1.219568342E1,6.954388275E0,-1.452878723E0,-9.331594849E-1,7.165553676E0
1.220571642E1,5.350323944E0,-4.481680298E-1,-1.531764679E0,5.583289704E0
1.221574842E1,4.529880066E0,4.599934387E-1,-9.764195251E-1,4.656694371E0
1.222578142E1,3.970643005E0,8.393046570E-1,-3.945794678E-1,4.077515314E0
1.223581342E1,3.336112518E0,9.204359436E-1,-2.308200073E-1,3.468447338E0
1.224584642E1,2.655028839E0,8.773255920E-1,-5.373825073E-2,2.796742056E0
1.225587842E1,1.898651733E0,7.442523193E-1,1.212478638E-2,2.039347182E0
1.226591142E1,1.013542328E0,5.927673340E-1,7.110214233E-2,1.176306371E0
1.227594342E1,1.278341675E-1,4.489164734E-1,3.020718384E-1,5.559810878E-1
1.228597642E1,-5.284011841E-1,1.996847534E-1,5.722599792E-1,8.040915967E-1
1.229600842E1,-9.105564880E-1,1.369651794E-1,8.737330627E-1,1.269362849E0
1.230604142E1,-1.263821869E0,1.691482544E-1,1.195863190E0,1.748126316E0
1.231607342E1,-1.511556702E0,3.035687256E-1,1.387015686E0,2.073829826E0
1.232610642E1,-1.535806274E0,4.423301697E-1,1.391057281E0,2.118819778E0
1.233613842E1,-1.429078217E0,5.304968262E-1,1.200653229E0,1.940427687E0
1.234617142E1,-9.973759460E-1,6.113287354E-1,9.071136475E-1,1.480316442E0
1.235620342E1,-3.004252625E-1,6.366261292E-1,6.001020813E-1,9.250246887E-1
1.236623642E1,2.404000854E-1,6.282435608E-1,3.966751099E-1,7.809182515E-1
1.237626842E1,4.463717651E-1,6.219566345E-1,2.507286072E-1,8.055697626E-1
1.238630142E1,3.977229309E-1,7.286846924E-1,2.002835083E-1,8.539779824E-1
1.239633342E1,3.362008667E-1,8.530760193E-1,2.243833923E-1,9.439902670E-1
1.240636642E1,1.989363098E-1,8.267308044E-1,1.610650635E-1,8.654486889E-1
1.241639842E1,-9.131011963E-3,8.072712708E-1,1.249900818E-1,8.169411243E-1
1.242643142E1,-1.733395386E-1,9.017248535E-1,1.216969299E-1,9.262637043E-1
1.243646342E1,-2.438429260E-1,9.136999512E-1,2.534230042E-1,9.790455517E-1
1.244649642E1,-3.237767029E-1,7.089257812E-1,2.685415649E-1,8.243310553E-1
1.245652842E1,-5.468128967E-1,5.242098999E-1,5.023553467E-1,9.089341327E-1
1.246656142E1,-9.099577332E-1,5.077441406E-1,8.044271851E-1,1.316408100E0
1.247659442E1,-1.692680054E0,3.466790771E-1,1.211879883E0,2.110451373E0
1.248662642E1,-3.155587921E0,-1.586700439E-2,1.625020752E0,3.549461837E0
1.249665942E1,-4.910837860E0,-6.483018494E-1,2.155218201E0,5.401998636E0
1.250669142E1,-7.273524628E0,-1.253193970E0,2.731070709E0,7.869777815E0
1.251672442E1,-1.016386414E1,-1.791175232E0,3.218457184E0,1.081068497E1
1.252675642E1,-1.330523163E1,-3.037184143E0,3.654949493E0,1.412842284E1
1.253678942E1,-1.681079178E1,-5.019212494E0,3.290158081E0,1.784993990E1
1.254682142E1,-2.357866791E1,-4.827760620E0,5.683680725E-1,2.407454870E1
1.255685442E1,-3.583488098E1,-7.921527100E-1,-3.855233002E0,3.605036785E1
1.256688642E1,-4.799095230E1,3.129991150E-1,-3.790417786E0,4.814142435E1
1.257691942E1,-5.266064163E1,-1.685195618E0,-1.883084106E-1,5.268793525E1
1.258695142E1,-5.294774460E1,-3.425776062E0,-7.458988953E-1,5.306369724E1
1.259698442E1,-5.135355972E1,-5.229525146E0,-5.561534729E0,5.191788418E1
1.260701642E1,-4.629827225E1,-4.666994934E0,-1.021655457E1,4.764125147E1
1.261704942E1,-3.471401184E1,-2.935994568E0,-7.386838989E0,3.561247074E1
1.262708142E1,-2.354753265E1,-3.414848785E0,-5.127886505E0,2.434014598E1
1.263711442E1,-1.602806946E1,-3.814218292E0,-4.760550385E0,1.714963882E1
1.264714642E1,-1.173080566E1,-3.843108215E0,-4.668940887E0,1.319773811E1
1.265717942E1,-9.457033997E0,-3.315305786E0,-5.465733948E0,1.141494599E1
1.266721142E1,-7.748636627E0,-2.135010223E0,-5.863157501E0,9.948681024E0
1.267724442E1,-7.239994354E0,-9.101074219E-1,-5.709726562E0,9.265354348E0
1.268727642E1,-7.685467987E0,-1.865121460E-1,-5.339696045E0,9.360211473E0
1.269730942E1,-8.723110199E0,1.534309387E-1,-4.470303955E0,9.803051058E0
1.270734142E1,-9.414372711E0,3.827540588E-1,-3.131937103E0,9.929045485E0
1.271737442E1,-9.737251282E0,3.857478333E-1,-1.460812225E0,9.853772692E0
1.272740642E1,-9.443262634E0,-1.811233521E-2,-2.847079468E-1,9.447570897E0
1.273743942E1,-8.630602570E0,-2.788700867E-1,4.505630493E-1,8.646853549E0
1.274747142E1,-7.796686707E0,-4.321513367E-1,1.296903076E0,7.915619746E0
1.275750442E1,-6.475084991E0,-7.821235657E-1,2.227817230E0,6.892141360E0
1.276753642E1,-5.290448456E0,-7.268884277E-1,2.800975342E0,6.030147139E0
1.277756942E1,-4.402644653E0,-2.580633545E-1,3.020419006E0,5.345353834E0
1.278760142E1,-3.641926575E0,4.029620361E-1,2.998863831E0,4.734890902E0
1.279763442E1,-2.711611176E0,1.146914978E0,2.994522858E0,4.199454283E0
1.280766642E1,-1.755699005E0,1.805844727E0,3.042872314E0,3.950015961E0
1.281769942E1,-1.228195953E0,2.124981079E0,3.154540100E0,3.996890433E0
1.282773242E1,-1.047970734E0,2.196532288E0,3.414699097E0,4.193228669E0
1.283776442E1,-1.216669922E0,1.719025269E0,3.528761902E0,4.109439637E0
1.284779742E1,-1.087039490E0,1.062939606E0,3.390599213E0,3.715865778E0
1.285782942E1,-6.480024719E-1,5.798941040E-1,3.150947571E0,3.268739049E0
1.286786242E1,-1.167572021E-1,4.114942932E-1,2.883753204E0,2.915303130E0
1.287789442E1,4.887336731E-1,4.203259277E-1,2.627186737E0,2.705114534E0
1.288792742E1,8.533753967E-1,5.257067871E-1,2.282453613E0,2.492832062E0
1.289795942E1,1.014889526E0,6.586303711E-1,1.845661926E0,2.206867160E0
1.290799242E1,1.059197388E0,7.905061340E-1,1.406924286E0,1.930345824E0
1.291802442E1,9.831555176E-1,1.002465363E0,9.607022095E-1,1.701317228E0
1.292805742E1,8.665480042E-1,1.146615601E0,5.072950745E-1,1.524132892E0
1.293808942E1,7.009922791E-1,1.133442993E0,1.384620667E-1,1.339871239E0
1.294812242E1,3.999682617E-1,1.040935364E0,-9.220825195E-2,1.118938516E0
1.295815442E1,4.400848389E-2,8.036787415E-1,1.004411316E-1,8.111255680E-1
1.296818742E1,-6.463558960E-1,3.001258850E-1,2.944377136E-1,7.710674798E-1
1.297821942E1,-1.645827484E0,-3.094065857E-1,4.843927002E-1,1.743306293E0
1.298825242E1,-2.947071533E0,-5.605842590E-1,7.830216980E-1,3.100420667E0
1.299828442E1,-4.798421631E0,-3.957769775E-1,9.208850098E-1,4.901991306E0
1.300831742E1,-7.334298248E0,-5.761518860E-1,9.780661011E-1,7.421623481E0
1.301834942E1,-1.053628967E1,-8.156538391E-1,1.115929413E0,1.062656999E1
1.302838242E1,-1.423150543E1,-1.486259308E0,1.046623535E0,1.434712983E1
1.303841442E1,-1.729129257E1,-3.672612762E0,1.378184052E0,1.773065917E1
1.304844742E1,-1.890538605E1,-6.592590637E0,2.910547485E0,2.023232956E1
1.305847942E1,-2.159469360E1,-7.312144318E0,4.370910645E0,2.321428668E1
1.306851242E1,-2.820165436E1,-6.437213745E0,4.928052063E0,2.934376810E1
1.307854442E1,-3.732727753E1,-5.358107758E0,5.463338928E0,3.810358301E1
1.308857742E1,-4.473731827E1,-3.774401093E0,7.279063110E0,4.548250773E1
1.309860942E1,-4.810576355E1,-2.575244751E0,9.234297180E0,4.905169331E1
1.310864242E1,-4.698249939E1,-2.716700592E0,9.902058563E0,4.809143869E1
1.311867542E1,-4.350912231E1,-3.773203583E0,9.424701233E0,4.467779967E1
1.312870742E1,-3.858211807E1,-4.216132507E0,1.006806335E1,4.009640268E1
1.313874042E1,-3.180975128E1,-4.102818146E0,1.058613602E1,3.377513389E1
1.314877242E1,-2.371308838E1,-4.887486420E0,1.031519943E1,2.631732173E1
1.315880542E1,-1.711241455E1,-5.247188416E0,1.066577042E1,2.083569957E1
1.316883742E1,-1.571357346E1,-4.099075928E0,9.198222198E0,1.866349661E1
1.317886954E1,-1.631113083E1,-3.445984039E0,7.526049500E0,1.829123331E1
1.318890154E1,-1.742780869E1,-2.906655579E0,6.511758728E0,1.883029909E1
1.319893454E1,-2.067829926E1,-3.014730835E0,6.253845062E0,2.181263946E1
1.320896654E1,-2.488320511E1,-3.565735016E0,6.079008636E0,2.586199352E1
1.321899954E1,-2.775812668E1,-3.716920624E0,5.735772400E0,2.858720309E1
1.322903154E1,-2.911251022E1,-3.224893799E0,5.379213867E0,2.978043205E1
1.323906454E1,-2.811258957E1,-1.989363098E0,4.841831360E0,2.859577921E1
1.324909654E1,-2.580798203E1,-2.694995728E0,3.272943878E0,2.615391175E1
1.325912954E1,-2.104009689E1,-2.806214447E0,1.341959381E0,2.126878868E1
1.326916154E1,-1.500614456E1,-9.517208862E-1,4.320016479E-1,1.504249888E1
1.327919454E1,-9.493857422E0,-5.282514954E-1,4.055067444E-1,9.517185199E0
1.328922654E1,-4.699776764E0,-9.325607300E-1,2.794688416E-1,4.799549352E0
1.329925954E1,-1.471440125E-1,-1.036295013E0,6.562353516E-1,1.235396111E0
1.330929154E1,4.649032288E0,-4.013154602E-1,1.686243439E0,4.961650153E0
1.331932454E1,8.484506378E0,-6.735992432E-3,2.968477020E0,8.988812473E0
1.332935654E1,1.069570816E1,-3.372486877E-1,3.762725372E0,1.134328048E1
1.333938954E1,1.044048889E1,-1.079105988E0,4.266577606E0,1.133013515E1
1.334942154E1,7.272327118E0,-2.100731506E0,6.165528717E0,9.762866328E0
1.335945454E1,2.389181671E0,-1.200952606E0,6.428681488E0,6.962644749E0
1.336948654E1,1.478325806E0,-4.049079895E-1,6.359375610E0,6.541487279E0
1.337951954E1,2.622097321E0,1.384620667E-1,5.600154419E0,6.185167388E0
1.338955154E1,4.652774506E0,8.660989380E-1,4.044439545E0,6.225426026E0
1.339958454E1,6.392307129E0,1.325194244E0,2.160008240E0,6.876290120E0
1.340961654E1,7.060218201E0,1.540446625E0,1.507814484E0,7.381948345E0
1.341964954E1,7.113208008E0,1.436562653E0,1.815275116E0,7.480418716E0
1.342968254E1,6.165678406E0,1.207089844E0,2.387684784E0,6.721137904E0
1.343971454E1,4.952301636E0,8.364605713E-1,2.663860474E0,5.685165820E0
1.344974754E1,4.323609009E0,5.358856201E-1,2.266586609E0,4.911026686E0
1.345977954E1,3.716920624E0,3.156935120E-1,1.267713776E0,3.939829886E0
1.346981254E1,3.094963989E0,6.661148071E-2,6.066883850E-1,3.154569698E0
1.347984454E1,1.986069946E0,8.981323242E-3,-2.336640930E-1,1.999788340E0
1.348987754E1,7.735913086E-1,3.284170532E-1,-5.236111450E-1,9.901868030E-1
1.349990954E1,5.313949585E-2,5.860313416E-1,-2.502795410E-1,6.394500668E-1
1.350994254E1,-5.451663208E-1,5.399272156E-1,-1.751358032E-1,7.870198632E-1
1.351997454E1,-9.919871521E-1,2.523751831E-1,-1.969903564E-1,1.042370828E0
1.353000754E1,-1.135239258E0,1.137634277E-2,-1.556762695E-1,1.145920021E0
1.354003954E1,-1.276545410E0,-2.110610962E-2,-2.754272461E-2,1.277016936E0
1.355007254E1,-1.653012543E0,-5.254074097E-2,8.861572266E-2,1.656219714E0
1.356010454E1,-1.886976013E0,-1.466949463E-2,2.103126526E-1,1.898716693E0
1.357013754E1,-1.847308502E0,8.936416626E-2,1.315763855E-1,1.854143199E0
1.358016954E1,-1.852248230E0,1.523831177E-1,-8.143066406E-2,1.860288976E0
1.359020254E1,-1.820214844E0,2.348616028E-1,-3.088078308E-1,1.861102986E0
1.360023454E1,-1.497785339E0,1.895059204E-1,-4.565505981E-1,1.577248194E0
1.361026754E1,-1.209784241E0,9.445358276E-2,-5.523513794E-1,1.333263453E0
1.362029954E1,-9.277706909E-1,1.990859985E-2,-7.575746155E-1,1.197945786E0
1.363033254E1,-6.001020813E-1,-2.903961182E-2,-8.831634521E-1,1.068149564E0
1.364036454E1,-2.766247559E-1,-8.921447754E-2,-8.312214661E-1,8.805734519E-1
1.365039754E1,1.169068909E-1,-1.866618347E-1,-6.743476868E-1,7.094044434E-1
1.366042954E1,4.119433594E-1,-3.480262756E-1,-5.049000549E-1,7.387446686E-1
1.367046254E1,5.617817688E-1,-4.596940613E-1,-3.396437073E-1,8.014207594E-1
1.368049454E1,4.158352661E-1,-5.493576050E-1,-2.122586060E-1,7.209483078E-1
1.369052754E1,2.835104370E-1,-6.026467896E-1,4.745132446E-2,6.676922562E-1
1.370056054E1,2.038760376E-1,-6.738986206E-1,2.380050659E-1,7.432033376E-1
1.371059254E1,-1.372645569E-1,-7.268884277E-1,3.116519165E-1,8.027049657E-1
1.372062554E1,-2.595602417E-1,-8.295748901E-1,4.719685364E-1,9.891007617E-1
1.373065754E1,-1.782792664E-1,-1.035845947E0,5.662724304E-1,1.193911550E0
1.374069054E1,-2.781216431E-1,-1.287622375E0,7.050338745E-1,1.494120408E0
1.375072254E1,-8.674461365E-1,-1.838327179E0,1.155596924E0,2.338228788E0
1.376075554E1,-2.787503357E0,-2.121687927E0,2.273322601E0,4.176090310E0
1.377078754E1,-6.003266144E0,-2.221679993E0,3.577560425E0,7.333076092E0
1.378082054E1,-9.619745636E0,-1.729204102E0,4.653672638E0,1.082526314E1
1.379085254E1,-1.336825058E1,-3.562591553E-1,4.715194702E0,1.417991908E1
1.380088554E1,-1.494462250E1,8.613088989E-1,3.717369690E0,1.542408610E1
1.381091754E1,-1.593900467E1,2.219734039E0,4.797523499E-1,1.609997675E1
1.382095054E1,-2.159005325E1,4.320615234E0,-3.358266449E0,2.227276519E1
1.383098254E1,-3.087030487E1,5.059628448E0,-4.799170074E0,3.164818472E1
1.384101554E1,-3.833767639E1,3.474574585E0,-3.078198853E0,3.861768258E1
1.385104754E1,-4.255740143E1,1.476379852E0,-1.599723358E0,4.261304059E1
1.386108054E1,-4.433974503E1,-5.604345703E-1,-9.991722107E-1,4.435454228E1
1.387111254E1,-4.533382782E1,-3.232378235E0,-1.873054962E0,4.548749882E1
1.388114554E1,-4.577002075E1,-4.910987549E0,-3.488645325E0,4.616474027E1
1.389117754E1,-3.934582993E1,-3.536096649E0,5.869294739E-1,3.950876862E1
1.390121054E1,-3.023008621E1,-1.791773987E0,2.706521759E0,3.040384559E1
1.391124254E1,-2.344439713E1,-1.603914642E0,1.218466187E0,2.353076621E1
1.392127554E1,-1.869417526E1,-1.098565521E0,-1.924996948E-1,1.872741549E1
1.393130754E1,-1.551882843E1,-3.841012573E-1,-1.044527893E0,1.555868273E1
1.394134054E1,-1.289268951E1,1.523831177E-1,-1.245559845E0,1.295361273E1
1.395137254E1,-1.050156189E1,2.411485291E-1,-1.091380463E0,1.056087430E1
1.396140554E1,-9.164841614E0,7.710466003E-1,-7.789801025E-1,9.230148681E0
1.397143854E1,-9.500743103E0,1.492246857E0,-3.965254211E-1,9.625391036E0
1.398147054E1,-1.031819321E1,1.224603424E0,4.150868225E-1,1.039889714E1
1.399150354E1,-1.151255951E1,7.182064819E-1,1.315165100E0,1.160967296E1
1.400153554E1,-1.267399429E1,2.432441711E-1,2.144290924E0,1.285641018E1
1.401156854E1,-1.356164841E1,-2.993774414E-1,2.480192413E0,1.378982555E1
1.402160054E1,-1.374935806E1,-5.185217285E-1,2.703677673E0,1.402225320E1
1.403163354E1,-1.282802399E1,-3.646417236E-1,3.097508698E0,1.320173182E1
1.404166554E1,-1.158141632E1,-1.222956848E-1,2.866988068E0,1.193162943E1
1.405169854E1,-9.870324554E0,8.981323242E-4,2.441872101E0,1.016789295E1
1.406173054E1,-7.866291962E0,-1.067280579E-1,2.060465240E0,8.132370940E0
1.407176354E1,-6.232589264E0,-4.002676392E-1,1.608704681E0,6.449287857E0
1.408179554E1,-5.191204834E0,-7.349716187E-1,1.314266968E0,5.405190891E0
1.409182854E1,-4.261637878E0,-8.140072632E-1,1.256038055E0,4.516834824E0
1.410186054E1,-3.256478119E0,-6.887178040E-1,1.139131165E0,3.518039477E0
1.411189354E1,-2.464774475E0,-4.870870972E-1,1.099912720E0,2.742658390E0
1.412192554E1,-1.662143555E0,-1.799258423E-1,1.114282837E0,2.009159214E0
1.413195854E1,-8.246351624E-1,2.719844055E-1,1.034049683E0,1.350280495E0
1.414199054E1,1.496887207E-3,6.224057007E-1,8.092172241E-1,1.020893536E0
1.415202354E1,4.962181091E-1,8.720864868E-1,6.487509155E-1,1.194840995E0
1.416205554E1,9.038204956E-1,1.171164551E0,5.267546082E-1,1.570346557E0
1.417208854E1,1.463656311E0,1.333576813E0,4.876858521E-1,2.039253393E0
1.418212117E1,1.882036285E0,1.236728210E0,5.831872559E-1,2.326298481E0
1.419215417E1,1.960772552E0,1.038240967E0,7.933502197E-1,2.356263542E0
1.420218617E1,1.903441772E0,9.178912354E-1,1.084644470E0,2.375303881E0
1.421221917E1,1.720821533E0,8.608598328E-1,1.331331482E0,2.339818351E0
1.422225217E1,1.271006927E0,8.146060181E-1,1.368753662E0,2.037775297E0
1.423228417E1,9.675878906E-1,7.765850830E-1,1.245859222E0,1.758259344E0
1.424231717E1,8.090675354E-1,8.207432556E-1,9.222322083E-1,1.476049462E0
1.425234917E1,5.421725464E-1,8.815168762E-1,3.852987671E-1,1.104299875E0
1.426238217E1,2.137554932E-1,8.991801453E-1,-5.822891235E-2,9.260707050E-1
1.427241417E1,-4.008663940E-1,1.057401123E0,-4.095483398E-1,1.202713949E0
1.428244717E1,-1.526974640E0,1.402433624E0,-5.643264771E-1,2.148705656E0
1.429247917E1,-3.419638824E0,1.651815033E0,-8.348139954E-1,3.888359165E0
1.430251217E1,-5.782924347E0,1.663341064E0,-1.069974976E0,6.111772570E0
1.431254417E1,-7.902516632E0,9.297166443E-1,-1.069675598E0,8.028595646E0
1.432257717E1,-8.985813904E0,-1.148112488E0,-1.181343384E0,9.135567086E0
1.433260917E1,-9.458081818E0,-3.869154053E0,-1.026265869E0,1.027029145E1
1.434264217E1,-1.019245468E1,-5.719156952E0,7.182064819E-1,1.170942822E1
1.435267417E1,-1.263791931E1,-6.073170776E0,3.730242920E0,1.450913919E1
1.436270717E1,-2.039179504E1,-3.400478668E0,7.442373505E0,2.197219797E1
1.437273917E1,-3.203338623E1,6.554869080E-1,1.075348801E1,3.379652350E1
1.438277217E1,-4.036176727E1,9.213340759E-1,1.360236374E1,4.260217616E1
1.439280417E1,-4.482279053E1,-2.189945984E0,1.370789429E1,4.692317956E1
1.440283717E1,-4.596311920E1,-3.817810822E0,1.195878159E1,4.764657871E1
1.441286917E1,-4.345418655E1,-3.327430573E0,1.029169830E1,4.478009800E1
1.442290217E1,-3.943639160E1,-2.820285187E0,8.609646149E0,4.046367504E1
1.443293417E1,-3.465967484E1,-3.233426056E0,7.506739655E0,3.561038113E1
1.444296717E1,-3.021362045E1,-4.795727234E0,5.901777191E0,3.115594381E1
1.445299917E1,-2.656585602E1,-6.193819885E0,4.027674408E0,2.757408696E1
1.446303217E1,-2.504995834E1,-6.457721100E0,2.264790344E0,2.596790038E1
1.447306417E1,-2.584136261E1,-5.694009247E0,1.426982574E0,2.649969891E1
1.448309717E1,-2.762041306E1,-4.276307373E0,1.347048798E0,2.798193279E1
1.449313017E1,-2.881178558E1,-3.377276917E0,1.460961914E0,2.904581549E1
1.450316217E1,-2.927073120E1,-2.735411682E0,2.110910339E0,2.947395672E1
1.451319517E1,-2.894006882E1,-2.391876068E0,2.996917877E0,2.919298154E1
1.452322717E1,-2.743599655E1,-2.244432678E0,3.144510956E0,2.770666588E1
1.453326017E1,-2.499143005E1,-1.789828033E0,2.613115997E0,2.519133652E1
1.454329217E1,-2.218177277E1,-1.060843964E0,2.108215942E0,2.230697217E1
1.455332517E1,-1.942600342E1,-4.116439819E-1,1.677711182E0,1.950266070E1
1.456335717E1,-1.678848816E1,9.969268799E-2,6.273454285E-1,1.680050105E1
1.457339017E1,-1.363709152E1,7.783813477E-3,-1.147364044E0,1.368527566E1
1.458342217E1,-9.665400696E0,9.624984741E-2,-1.836381226E0,9.838776888E0
1.459345517E1,-5.962101746E0,2.125579834E-2,-1.304686890E0,6.103221847E0
1.460348717E1,-2.301613770E0,-4.610412598E-2,8.741821289E-2,2.303734681E0
1.461352017E1,9.313632202E-1,-1.910028076E-1,1.497635651E0,1.773931245E0
1.462355217E1,3.231779480E0,-5.439688110E-1,2.516716461E0,4.132089353E0
1.463358517E1,4.694837036E0,-8.421487427E-1,3.719764709E0,6.048748531E0
1.464361717E1,5.773194580E0,-9.283694458E-1,5.829178162E0,8.256570930E0
1.465365017E1,5.748346252E0,-1.062191162E0,7.563321991E0,9.559057184E0
1.466368217E1,5.024601288E0,-1.578018494E0,8.092172241E0,9.655051116E0
1.467371517E1,4.250111847E0,-2.096240845E0,6.784042511E0,8.275319280E0
1.468374717E1,4.047433319E0,-1.980531464E0,5.413941650E0,7.043790567E0
1.469378017E1,3.640279999E0,-1.496737518E0,4.193828888E0,5.751526963E0
1.470381217E1,3.693120117E0,-9.425898743E-1,2.862048340E0,4.766438143E0
1.471384517E1,4.632267151E0,-4.114942932E-1,1.918859711E0,5.030829862E0
1.472387817E1,6.046825562E0,2.136058044E-1,1.710942078E0,6.287849362E0
1.473391017E1,7.296277313E0,7.048841858E-1,1.955234070E0,7.586531791E0
1.474394317E1,7.494764557E0,5.318440247E-1,2.065704346E0,7.792399391E0
1.475397517E1,7.555837555E0,9.145980835E-2,3.236120453E0,8.220189879E0
1.476400817E1,6.889423370E0,-8.110134888E-1,4.336931305E0,8.181128920E0
1.477404017E1,5.492378540E0,-1.361119537E0,3.752696228E0,6.789815712E0
1.478407317E1,4.738097076E0,-1.246008911E0,2.330653381E0,5.425315410E0
1.479410517E1,4.305197296E0,-7.619155884E-1,1.339863739E0,4.572797170E0
1.480413817E1,3.951033783E0,-2.606080627E-1,8.204438782E-1,4.043725099E0
1.481417017E1,3.572920074E0,1.621128845E-1,4.854405212E-1,3.609389276E0
1.482420317E1,2.978506165E0,3.745211792E-1,1.854643250E-1,3.007683843E0
1.483423517E1,2.437830505E0,3.475772095E-1,-1.808239746E-1,2.469114173E0
1.484426817E1,2.005230103E0,1.869612122E-1,-5.803431702E-1,2.095877013E0
1.485430017E1,1.728605347E0,4.385879517E-2,-8.138575745E-1,1.911115954E0
1.486433317E1,1.686243439E0,-9.714797974E-2,-9.315129089E-1,1.928878162E0
1.487436517E1,1.671274567E0,-3.071612549E-1,-9.583071899E-1,1.950861190E0
1.488439817E1,1.546583862E0,-5.028044128E-1,-9.063652039E-1,1.861781889E0
1.489443017E1,1.512454834E0,-4.875361633E-1,-8.943901062E-1,1.823497957E0
1.490446317E1,1.716929626E0,-3.820056152E-1,-7.671546936E-1,1.918932504E0
1.491449517E1,1.968556366E0,-3.454815674E-1,-4.592449951E-1,2.050726126E0
1.492452817E1,2.043849792E0,-3.597019958E-1,-2.124082947E-1,2.086102774E0
1.493456017E1,2.017654266E0,-4.098477173E-1,7.125183105E-2,2.060092404E0
1.494459317E1,1.851350098E0,-4.561015320E-1,4.339476013E-1,1.955463196E0
1.495462617E1,1.439406738E0,-6.077362061E-1,8.324189758E-1,1.770354881E0
1.496465817E1,8.247848511E-1,-6.730004883E-1,1.125060425E0,1.548857859E0
1.497469117E1,1.829196167E-1,-6.515950012E-1,1.355581055E0,1.515135515E0
1.498472317E1,-5.037025452E-1,-6.508465576E-1,1.663640442E0,1.856075703E0
1.499475617E1,-1.303040314E0,-7.625143433E-1,1.852248230E0,2.389595298E0
1.500478817E1,-2.234253845E0,-1.002315674E0,1.886377258E0,3.091107587E0
1.501482117E1,-2.832260284E0,-1.369502106E0,2.077679443E0,3.770144056E0
1.502485317E1,-3.747457123E0,-1.621128845E0,2.164498901E0,4.621314652E0
1.503488617E1,-5.535339203E0,-2.080822906E0,2.023043060E0,6.250000583E0
1.504491817E1,-7.391329651E0,-2.757565613E0,2.046394501E0,8.150070709E0
1.505495117E1,-9.375303955E0,-3.293151855E0,2.597548370E0,1.027075610E1
1.506498317E1,-1.209320206E1,-4.221072235E0,3.052452393E0,1.316740113E1
1.507501617E1,-1.383363281E1,-5.468578033E0,2.875220947E0,1.515063160E1
1.508504817E1,-1.607582016E1,-5.857918396E0,-1.332229614E-2,1.710986205E1
1.509508117E1,-2.083592148E1,-3.492986298E0,-6.556216278E0,2.212059106E1
1.510511317E1,-2.914903427E1,1.056053925E0,-1.160057648E1,3.139036195E1
1.511514617E1,-4.053046646E1,3.475772095E-1,-1.126153152E1,4.206734617E1
1.512517817E1,-5.126389618E1,-1.659898224E0,-8.526269531E0,5.199461112E1
1.513521117E1,-5.732434341E1,-3.736679535E0,-8.331973572E0,5.804709214E1
1.514524317E1,-5.795438324E1,-6.053860931E0,-1.128263763E1,5.935198127E1
1.515527617E1,-5.231665695E1,-3.727997589E0,-1.383423157E1,5.424312421E1
1.516530817E1,-3.903447739E1,-3.442840576E-1,-9.836195526E0,4.025617591E1
1.517534117E1,-2.717478973E1,-1.357976074E0,-7.407795410E0,2.819909092E1
1.518537387E1,-1.886018005E1,-2.877316589E0,-6.638096008E0,2.020023913E1
1.519540588E1,-1.405532181E1,-4.102518768E0,-5.628595276E0,1.568642139E1
1.520543888E1,-1.141062149E1,-4.737498322E0,-4.364024963E0,1.310308693E1
1.521547087E1,-1.034932846E1,-4.512216797E0,-3.896247711E0,1.194359436E1
1.522550388E1,-1.014635056E1,-3.927981720E0,-4.142485657E0,1.164206414E1
1.523553587E1,-1.021760239E1,-2.904559937E0,-4.634213104E0,1.158929670E1
1.524556888E1,-1.000489471E1,-1.886976013E0,-4.532724152E0,1.114469313E1
1.525560087E1,-9.658814392E0,-1.385069733E0,-3.711232452E0,1.043955746E1
1.526563387E1,-9.955048370E0,-1.139729919E0,-3.318598938E0,1.055533378E1
1.527566588E1,-1.024768982E1,-9.589059448E-1,-2.850971375E0,1.068001334E1
1.528569887E1,-1.030966095E1,-5.930667114E-1,-1.957778778E0,1.051064864E1
1.529573088E1,-1.032298325E1,1.761836243E-1,-9.340576172E-1,1.036665266E1
1.530576387E1,-9.880353699E0,1.005908203E0,7.753875732E-2,9.931729597E0
1.531579588E1,-9.009165344E0,1.495989075E0,8.840615845E-1,9.175217076E0
1.532582888E1,-7.803123322E0,1.558259583E0,1.387913818E0,8.077326988E0
1.533586087E1,-6.412215729E0,1.537602539E0,1.597777405E0,6.784808380E0
1.534589388E1,-5.204227753E0,1.599274292E0,1.648222504E0,5.688435829E0
1.535592587E1,-4.168381805E0,1.507365417E0,1.695524139E0,4.745772802E0
1.536595888E1,-3.178340607E0,1.401834869E0,2.084565125E0,4.051222256E0
1.537599087E1,-2.569107513E0,1.382375336E0,2.641107788E0,3.935317691E0
1.538602387E1,-2.526595917E0,1.024619293E0,2.857707367E0,3.949686445E0
1.539605688E1,-2.777623901E0,4.737648010E-1,2.752027130E0,3.938692797E0
1.540608887E1,-2.804118805E0,1.809736633E-1,2.637814636E0,3.854075738E0
1.541612188E1,-2.552342377E0,1.478924561E-1,2.489323425E0,3.568340637E0
1.542615387E1,-2.182461548E0,3.838018799E-1,2.276915131E0,3.177229108E0
1.543618687E1,-1.556014252E0,7.348219299E-1,1.965263214E0,2.612164451E0
1.544621888E1,-9.169931030E-1,1.062789917E0,1.503473511E0,2.056898480E0
1.545625187E1,-6.063890076E-1,1.203796692E0,1.180145874E0,1.791529622E0
1.546628388E1,-3.802093506E-1,1.344504089E0,9.386979675E-1,1.683271894E0
1.547631687E1,-1.841171265E-1,1.417701874E0,7.604187012E-1,1.619263512E0
1.548634888E1,-1.522334290E-1,1.212179260E0,8.053253174E-1,1.463250642E0
1.549638188E1,-2.808160400E-1,9.711804199E-1,1.043929138E0,1.453216124E0
1.550641387E1,-4.105961609E-1,8.009843445E-1,1.173409882E0,1.478869797E0
1.551644688E1,-4.104464722E-1,5.647755432E-1,1.236728210E0,1.420188152E0
1.552647887E1,-4.302053833E-1,2.544708252E-1,1.138831787E0,1.243692049E0
1.553651188E1,-5.740562439E-1,-6.691085815E-2,8.785231018E-1,1.051579990E0
1.554654387E1,-7.743397522E-1,-3.894900513E-1,4.713697815E-1,9.866580070E-1
1.555657687E1,-1.090182953E0,-7.294331360E-1,9.086105347E-2,1.314848775E0
1.556660888E1,-1.484612732E0,-1.121168518E0,-1.760339355E-1,1.868711255E0
1.557664187E1,-2.502196655E0,-1.756896515E0,-2.163002014E-1,3.065038212E0
1.558667388E1,-4.262985077E0,-2.268981628E0,1.761836243E-1,4.832427968E0
1.559670687E1,-6.605164490E0,-2.582729187E0,1.050515442E0,7.169537690E0
1.560673888E1,-9.409133606E0,-2.595602417E0,2.281705170E0,1.002372813E1
1.561677188E1,-1.215607132E1,-2.059417419E0,2.739303589E0,1.262992693E1
1.562680487E1,-1.460258377E1,-1.570384369E0,2.294129333E0,1.486487771E1
1.563683688E1,-1.665945648E1,-1.664089508E0,1.976340179E0,1.685860625E1
1.564686987E1,-1.832294724E1,-1.973496094E0,2.095193024E0,1.854763910E1
1.565690188E1,-1.951372101E1,-2.606978760E0,2.538421326E0,1.985006873E1
1.566693488E1,-2.064372116E1,-3.998185730E0,2.728226624E0,2.120358302E1
1.567696687E1,-2.200124817E1,-5.099445648E0,2.135159912E0,2.268519726E1
1.568699988E1,-2.279310150E1,-5.258115692E0,2.543061676E0,2.352956479E1
1.569703187E1,-2.301449112E1,-4.962181091E0,4.301155701E0,2.393303121E1
1.570706488E1,-2.345307907E1,-5.166506195E0,4.642895050E0,2.446009359E1
1.571709687E1,-2.419044571E1,-5.676046600E0,4.030069427E0,2.517213992E1
1.572712987E1,-2.527988022E1,-5.997877350E0,3.024310913E0,2.615708954E1
1.573716188E1,-2.619238266E1,-6.473737793E0,2.633174286E0,2.710874024E1
1.574719487E1,-2.663381470E1,-7.094796295E0,3.112028503E0,2.773771694E1
1.575722688E1,-2.764720734E1,-7.422913971E0,3.677402802E0,2.886158375E1
1.576725987E1,-2.877331558E1,-7.240593109E0,3.969595184E0,2.993472171E1
1.577729188E1,-2.983775208E1,-7.152127075E0,3.726650391E0,3.090845020E1
1.578732488E1,-3.069142685E1,-7.198680267E0,3.418890381E0,3.170920199E1
1.579735687E1,-3.110232239E1,-6.843169556E0,3.450474701E0,3.203262717E1
1.580738988E1,-3.039878540E1,-6.114185486E0,3.655997314E0,3.122235953E1
1.581742187E1,-2.904125839E1,-5.585484924E0,3.350632324E0,2.976271271E1
1.582745488E1,-2.706267288E1,-5.612578583E0,3.298989716E0,2.783473792E1
1.583748788E1,-2.556728256E1,-5.636977844E0,3.830384674E0,2.646003219E1
1.584751987E1,-2.456451782E1,-5.867947540E0,3.874093781E0,2.555106547E1
1.585755288E1,-2.391636566E1,-6.966662750E0,3.314108276E0,2.512986769E1
1.586758487E1,-2.358151199E1,-7.696095886E0,2.506986694E0,2.493195905E1
1.587761788E1,-2.374108017E1,-7.080575867E0,1.772015076E0,2.483774305E1
1.588764987E1,-2.347119141E1,-5.831722870E0,8.381071472E-1,2.419934382E1
1.589768288E1,-2.171249863E1,-4.337080994E0,-2.731819153E-1,2.214311398E1
1.590771488E1,-1.879536484E1,-2.936144257E0,-9.828561401E-1,1.904869257E1
1.591774787E1,-1.475975693E1,-1.913919983E0,-1.590742035E0,1.496809856E1
1.592777988E1,-1.023047562E1,-1.463506622E0,-2.045646057E0,1.053513886E1
1.593781287E1,-5.932912445E0,-1.284029846E0,-2.177970886E0,6.449165830E0
1.594784488E1,-2.466870117E0,-1.180445251E0,-1.599723358E0,3.168282498E0
1.595787788E1,-1.354682922E-1,-1.159638519E0,-5.532495117E-1,1.291974526E0
1.596790987E1,1.161135406E0,-1.204694824E0,4.517605591E-1,1.733093377E0
1.597794288E1,2.132914581E0,-7.830216980E-1,1.642085266E0,2.803371472E0
1.598797487E1,3.145858154E0,9.864486694E-2,2.859054565E0,4.252099169E0
1.599800788E1,4.394711151E0,8.464897156E-1,3.550317078E0,5.712686084E0
1.600803987E1,5.331313477E0,9.831555176E-1,3.757635956E0,6.596159954E0
1.601807287E1,6.037095795E0,9.116043091E-1,3.835474091E0,7.210298853E0
1.602810588E1,6.688391418E0,1.090931396E0,4.024680634E0,7.881799622E0
1.603813787E1,6.854845276E0,1.349892883E0,4.272714844E0,8.189457045E0
1.604817088E1,6.391708374E0,1.478325806E0,4.222718811E0,7.801970090E0
1.605820287E1,5.231022034E0,1.481020203E0,4.758305054E0,7.224851510E0
1.606823588E1,3.749552765E0,1.411714325E0,5.121000824E0,6.502056037E0
1.607826788E1,2.675386505E0,1.604064331E0,5.250032501E0,6.106845061E0
1.608830087E1,2.393223267E0,1.605261841E0,5.377118225E0,6.100637966E0
1.609833288E1,2.430196381E0,1.544488220E0,5.090614014E0,5.848559596E0
1.610836587E1,2.060016174E0,1.569037170E0,3.745361481E0,4.553380821E0
1.611839788E1,1.834435272E0,1.723515930E0,1.815724182E0,3.103629204E0
1.612843088E1,2.047891388E0,2.145787811E0,4.607418823E-1,3.001757410E0
1.613846287E1,2.106868744E0,2.370620270E0,-7.634124756E-2,3.172469756E0
1.614849588E1,1.897454224E0,2.316283264E0,-3.118016052E-1,3.010435339E0
1.615852787E1,1.533261566E0,2.078727264E0,-3.227288818E-1,2.603104301E0
1.616856088E1,9.651928711E-1,1.701960754E0,-2.002835083E-1,1.966820066E0
1.617859287E1,3.357518005E-1,1.383572845E0,-2.993774414E-2,1.424043314E0
1.618862550E1,-1.767823792E-1,1.149759064E0,2.062710571E-1,1.181416803E0
1.619865750E1,-6.918612671E-1,9.123527527E-1,4.164340210E-1,1.218391092E0
1.620869050E1,-1.263672180E0,7.068301392E-1,5.090913391E-1,1.534812763E0
1.621872250E1,-1.525328064E0,5.694158936E-1,4.593946838E-1,1.691716181E0
1.622875550E1,-1.636546783E0,3.740721130E-1,2.574645996E-1,1.698382566E0
1.623878850E1,-1.730850677E0,2.375559998E-1,-4.056564331E-2,1.747547565E0
1.624882050E1,-1.588496704E0,2.918930054E-1,-3.040177917E-1,1.643456760E0
1.625885350E1,-1.154549103E0,4.147874451E-1,-5.580395508E-1,1.347753833E0
1.626888550E1,-6.554869080E-1,4.697232056E-1,-8.342152405E-1,1.160266368E0
1.627891850E1,-2.600093079E-1,4.788542175E-1,-9.687854004E-1,1.111508594E0
1.628895050E1,1.646575928E-3,4.797523499E-1,-8.550219727E-1,9.804221551E-1
1.629898350E1,1.428030396E-1,4.468208313E-1,-6.881190491E-1,8.327961270E-1
1.630901550E1,2.023791504E-1,3.817062378E-1,-5.053491211E-1,6.648569069E-1
1.631904850E1,2.245330811E-1,2.935395813E-1,-2.496807861E-1,4.460057009E-1
1.632908050E1,2.074685669E-1,1.956431580E-1,7.619155884E-2,2.951687740E-1
1.633911350E1,1.703457642E-1,1.043330383E-1,3.719764709E-1,4.222197973E-1
1.634914550E1,2.881507874E-1,-1.422042847E-2,6.864724731E-1,7.446324954E-1
1.635917850E1,4.569996643E-1,-1.805245972E-1,1.053509216E0,1.162462684E0
1.636921050E1,3.748205566E-1,-3.845503235E-1,1.385818176E0,1.486223879E0
1.637924350E1,3.824546814E-1,-6.168672180E-1,1.652413788E0,1.804790313E0
1.638927550E1,3.149450684E-1,-9.608518982E-1,1.811981964E0,2.075019375E0
1.639930850E1,-1.481918335E-1,-1.356179810E0,2.229014740E0,2.613367790E0
1.640934050E1,-9.620494080E-1,-1.976938934E0,2.540217590E0,3.359543424E0
1.641937350E1,-2.495760040E0,-2.571053467E0,2.974015503E0,4.656597719E0
1.642940650E1,-6.111491089E0,-2.605182495E0,3.763324127E0,7.635437620E0
1.643943850E1,-1.211071564E1,-2.339185638E0,5.226082306E0,1.339601280E1
1.644947150E1,-1.906405609E1,-1.876797180E0,6.523733826E0,2.023659322E1
1.645950350E1,-2.366428986E1,-2.678080902E0,4.800517273E0,2.429435527E1
1.646953650E1,-2.143796951E1,-4.874762878E0,8.901988220E-1,2.200323394E1
1.647956850E1,-1.563828003E1,-5.794899445E0,-4.001329193E0,1.715072293E1
1.648960150E1,-1.416938461E1,-4.894970856E0,-9.955946503E0,1.799591817E1
1.649963350E1,-1.993958542E1,-3.648812256E0,-1.381776581E1,2.453225529E1
1.650966650E1,-2.938778778E1,-2.360291748E0,-1.267070114E1,3.208986935E1
1.651969850E1,-3.718686951E1,-2.885699158E0,-9.804910583E0,3.856587604E1
