"Time (s)","Acceleration x (m/s^2)","Acceleration y (m/s^2)","Acceleration z (m/s^2)","Absolute acceleration (m/s^2)"
9.738750014E-4,-3.265459442E0,5.442382507E0,6.881789246E0,9.361718643E0
1.100687500E-2,-2.631827087E0,5.339246979E0,7.866291962E0,9.864715979E0
2.103987500E-2,-2.497107239E0,5.278173981E0,8.539292450E0,1.034476586E1
3.107187500E-2,-2.591111755E0,5.364394684E0,8.682095490E0,1.052945262E1
4.110487500E-2,-2.768792267E0,5.447322235E0,8.459358673E0,1.043552966E1
5.113787500E-2,-2.999761963E0,5.479954376E0,8.118966522E0,1.024431985E1
6.116987500E-2,-3.331472168E0,5.490432587E0,7.862100677E0,1.015165917E1
7.120287500E-2,-3.435356140E0,5.330864410E0,7.788603516E0,1.004400975E1
8.123587500E-2,-3.223696289E0,5.200036469E0,7.831264801E0,9.937872278E0
9.126887500E-2,-2.740650787E0,5.216651917E0,8.310867462E0,1.018799008E1
1.013008750E-1,-1.687590637E0,5.420677643E0,9.255103912E0,1.085765429E1
1.113338750E-1,-1.281036072E0,5.555696869E0,9.273066559E0,1.088561365E1
1.213668750E-1,-1.448537750E0,5.677842865E0,8.912316742E0,1.066609352E1
1.313988750E-1,-1.687440948E0,5.849236450E0,8.483907623E0,1.044211246E1
1.414318750E-1,-2.082020416E0,5.964347076E0,7.982899475E0,1.018012422E1
1.514648750E-1,-2.455942841E0,6.014193420E0,7.622299347E0,1.001506990E1
1.614968750E-1,-2.681673431E0,6.015241241E0,7.292086029E0,9.825935998E0
1.715298750E-1,-2.661166077E0,6.036796417E0,7.099436646E0,9.691579673E0
1.815628750E-1,-2.285447388E0,6.138135681E0,7.242539063E0,9.764955273E0
1.915958750E-1,-2.007026367E0,6.215375061E0,7.412585449E0,9.879547815E0
2.016278750E-1,-1.813478851E0,6.098318481E0,7.521708527E0,9.851613726E0
2.116608750E-1,-1.735041962E0,5.903573456E0,7.763605499E0,9.906367675E0
2.216938750E-1,-1.749711456E0,5.949976959E0,7.925568695E0,1.006371478E1
2.317258750E-1,-1.761686554E0,6.220464478E0,7.989036713E0,1.027727714E1
2.417588750E-1,-1.643582153E0,6.505920868E0,8.173004150E0,1.057479860E1
2.517918750E-1,-1.495989075E0,6.828350372E0,8.318052521E0,1.086528186E1
2.618238750E-1,-1.389710083E0,7.188052368E0,8.319699097E0,1.108227341E1
2.718568750E-1,-1.248254242E0,7.561226349E0,8.273744659E0,1.127763864E1
2.818898750E-1,-1.282383270E0,7.836204529E0,8.420589294E0,1.157397651E1
2.919220000E-1,-1.250499573E0,8.117319946E0,8.803043976E0,1.203944415E1
3.019550000E-1,-1.189426575E0,8.204139404E0,9.099727020E0,1.230965762E1
3.119880000E-1,-1.581311646E0,7.880961456E0,9.426347809E0,1.238814486E1
3.220210000E-1,-2.074086914E0,7.536228333E0,9.770332489E0,1.251223285E1
3.320530000E-1,-2.009421387E0,7.489076385E0,9.815089417E0,1.250839797E1
3.420860000E-1,-1.583257599E0,7.707172852E0,9.399852905E0,1.225824019E1
3.521190000E-1,-1.469194794E0,8.031548309E0,8.721164246E0,1.194667349E1
3.621510000E-1,-1.695973206E0,8.396489410E0,7.754773865E0,1.155482052E1
3.721840000E-1,-2.378703461E0,8.473728790E0,6.721921692E0,1.107458988E1
3.822170000E-1,-1.939217377E0,8.261021118E0,6.422843628E0,1.064227204E1
3.922490000E-1,-1.451381836E0,8.040829010E0,6.906487885E0,1.069864549E1
4.022820000E-1,-1.596130829E0,8.215815125E0,6.635401611E0,1.068062762E1
4.123150000E-1,-1.474882965E0,8.163424072E0,7.021299133E0,1.086809155E1
4.223480000E-1,-1.066681824E0,8.015381927E0,7.257208557E0,1.086513845E1
4.323800000E-1,-4.851411438E-1,8.016429749E0,7.199728088E0,1.078585149E1
4.424130000E-1,6.900650024E-2,7.875422974E0,6.856791229E0,1.044234815E1
4.524460000E-1,3.382965088E-2,7.849676514E0,6.788233795E0,1.037779764E1
4.624780000E-1,-2.421963501E-1,7.987390137E0,7.157066803E0,1.072756568E1
4.725110000E-1,9.804611206E-2,7.797435150E0,6.745871887E0,1.031098421E1
4.825440000E-1,7.926017761E-1,7.088209991E0,5.393434296E0,8.942039586E0
4.925760000E-1,9.517208862E-1,6.750212860E0,4.556824036E0,8.199743386E0
5.026090000E-1,7.059320068E-1,6.799610138E0,4.031865692E0,7.936559644E0
5.126420000E-1,4.171824646E-1,6.735842743E0,3.639980621E0,7.667794832E0
5.226740000E-1,6.556365967E-1,6.691684570E0,3.383713531E0,7.527152117E0
5.327070000E-1,1.590143280E0,6.779102783E0,2.952011261E0,7.563012672E0
5.427400000E-1,1.659449158E0,6.732250214E0,2.016157379E0,7.220931728E0
5.527730000E-1,7.634124756E-2,6.868167572E0,1.198557587E0,6.972380804E0
5.628050000E-1,-2.626887360E0,7.292235718E0,8.412506104E-1,7.796469814E0
5.728380000E-1,-7.369774475E0,8.374036102E0,-4.748126221E-1,1.116528116E1
5.828710000E-1,-1.420755524E1,9.853858795E0,-2.239343262E0,1.743467284E1
5.929030000E-1,-1.176583282E1,8.293653259E0,2.417323151E0,1.459667625E1
6.029360000E-1,-3.158282318E0,6.063291321E0,2.182611237E0,7.176492225E0
6.129690000E-1,1.714684296E0,6.286477203E0,6.174659729E-1,6.545319098E0
6.230010000E-1,2.841091919E0,7.742050323E0,1.389111328E0,8.363060252E0
6.330340000E-1,2.204914856E-1,8.694220276E0,2.560724945E0,9.066167600E0
6.430670000E-1,-2.176623688E0,8.674910431E0,2.706372070E0,9.344314391E0
6.531000000E-1,-2.456541595E0,7.978408813E0,-5.119354248E-2,8.348186904E0
6.631320000E-1,-2.677631836E0,7.353458405E0,-1.954785004E0,8.066241204E0
6.731650000E-1,-3.446732483E0,7.127578125E0,-1.445693665E0,8.048128038E0
6.831980000E-1,-4.943619690E0,7.102131042E0,-5.472619629E-1,8.670590328E0
6.932300000E-1,-5.203479309E0,6.978039093E0,-7.327262878E-1,8.735337104E0
7.032630000E-1,-3.915407867E0,7.142247620E0,-1.951342163E0,8.375551090E0
7.132960000E-1,-3.109184418E0,7.749684448E0,-3.348087616E0,8.996350787E0
7.233280000E-1,-3.201392670E0,8.538244629E0,-3.439248047E0,9.745715135E0
7.333610000E-1,-3.917353821E0,9.247020721E0,-3.195854187E0,1.053881099E1
7.433940000E-1,-4.167633362E0,9.308842163E0,-2.848276978E0,1.058944720E1
7.534270000E-1,-4.326153717E0,9.135352936E0,-2.690654755E0,1.045991885E1
7.634590000E-1,-4.571044464E0,9.097781067E0,-2.239043884E0,1.042484462E1
7.734920000E-1,-4.795876923E0,8.561147003E0,-1.598675537E0,9.942305414E0
7.835250000E-1,-5.069956970E0,7.579338684E0,-1.677262115E0,9.271679825E0
7.935570000E-1,-4.095184021E0,7.000791779E0,-9.990225220E-1,8.171882506E0
8.035900000E-1,-3.697311401E0,7.271878052E0,-8.550219727E-1,8.202523061E0
8.136230000E-1,-3.922293549E0,7.487130432E0,-5.403762817E-1,8.469564057E0
8.236550000E-1,-4.615052948E0,7.299570465E0,-2.345622253E-1,8.639297548E0
8.336880000E-1,-3.741918640E0,6.540049896E0,4.863386536E-1,7.550545215E0
8.437210000E-1,-3.442990265E0,6.350543976E0,-1.052760773E0,7.300129862E0
8.537530000E-1,-4.238286438E0,6.159092102E0,-1.860930176E0,7.704579714E0
8.637860000E-1,-4.229604492E0,5.970783691E0,-2.507585449E0,7.734843039E0
8.738190000E-1,-5.931415558E0,5.978866882E0,-3.549868011E0,9.139480435E0
8.838520000E-1,-7.908953247E0,6.095624084E0,-3.855083313E0,1.070373027E1
8.938840000E-1,-8.289611664E0,5.792953491E0,-3.767515411E0,1.079213343E1
9.039170000E-1,-6.607260132E0,5.421875153E0,-3.692970428E0,9.310781235E0
9.139500000E-1,-5.054688721E0,5.772895203E0,-5.453010406E0,9.413369194E0
9.239820000E-1,-8.168363800E0,6.735842743E0,-6.806944885E0,1.258682817E1
9.340150000E-1,-7.716453552E0,6.866221619E0,-5.419629822E0,1.166452066E1
9.440480000E-1,-5.713768158E0,6.518794098E0,-5.562133484E0,1.029947338E1
9.540810000E-1,-5.927972717E0,6.992858276E0,-5.851781158E0,1.087585721E1
9.641130000E-1,-7.305108948E0,7.793543243E0,-3.869752808E0,1.136129041E1
9.741460000E-1,-5.704038391E0,8.006699982E0,-1.820514221E0,9.997878305E0
9.841790000E-1,-3.320694580E0,7.762707367E0,-1.863325195E0,8.646306665E0
9.942110000E-1,-4.022584991E0,8.146958313E0,-1.685345306E0,9.240914921E0
1.004244000E0,-5.110522614E0,8.028255157E0,-1.397493896E0,9.618903859E0
1.014277000E0,-6.044879608E0,7.153474274E0,-1.461710358E0,9.478890274E0
1.024309000E0,-7.078629913E0,6.443949738E0,-1.324146423E0,9.663583881E0
1.034342000E0,-7.883506165E0,5.850134583E0,-1.367705841E0,9.911829465E0
1.044375000E0,-8.341104584E0,5.619464264E0,-1.477277985E0,1.016537036E1
1.054407000E0,-8.093220062E0,5.657634888E0,-1.562001801E0,9.997444330E0
1.064440000E0,-7.901917877E0,6.099216614E0,-1.893412628E0,1.016000791E1
1.074473000E0,-7.496710510E0,6.193819885E0,-1.984722748E0,9.924877714E0
1.084506000E0,-7.038663025E0,5.850433960E0,-2.140997772E0,9.399692876E0
1.094538000E0,-6.787185974E0,5.482050018E0,-2.470163269E0,9.067550520E0
1.104571000E0,-6.978188782E0,5.417384491E0,-3.143313446E0,9.376758119E0
1.114604000E0,-7.313042450E0,5.219496002E0,-3.582500153E0,9.672540294E0
1.124636000E0,-7.465425568E0,4.866679688E0,-3.418441315E0,9.544783450E0
1.134669000E0,-7.986042938E0,4.734205170E0,-3.059787140E0,9.775064079E0
1.144702000E0,-8.981921997E0,4.790338440E0,-2.765499115E0,1.054847148E1
1.154734000E0,-8.180488586E0,4.605622559E0,-3.082539825E0,9.881002198E0
1.164767000E0,-8.523874512E0,4.767885132E0,-3.093018036E0,1.024479994E1
1.174800000E0,-8.354576569E0,4.576882324E0,-2.843636627E0,9.941482320E0
1.184832000E0,-7.951913910E0,4.338428192E0,-2.393971710E0,9.369418048E0
1.194865000E0,-7.956105194E0,4.364474030E0,-2.108964386E0,9.316435702E0
1.204898000E0,-8.422086182E0,4.397405548E0,-1.968256989E0,9.702718525E0
1.214931000E0,-8.764723663E0,4.415817261E0,-2.011517029E0,1.001828447E1
1.224963000E0,-8.523275757E0,4.543052673E0,-2.240091705E0,9.914815584E0
1.234996000E0,-5.719007263E0,5.409600677E0,-2.089205475E0,8.144667156E0
1.245029000E0,-5.592220917E0,3.462300110E0,-1.575174408E0,6.763255965E0
1.255061000E0,-6.379882965E0,2.843337250E0,-1.157093811E0,7.079995724E0
1.265094000E0,-6.513554993E0,2.602039032E0,-1.383722534E0,7.149244283E0
1.275127000E0,-6.733747101E0,1.936373291E0,-9.006770325E-1,7.064284157E0
1.285160000E0,-6.769822083E0,1.494641876E0,-8.442443848E-2,6.933366632E0
1.295192167E0,-6.158792725E0,1.006956024E0,3.811074829E-1,6.252194109E0
1.305225167E0,-5.610482941E0,7.631130981E-1,8.080197144E-1,5.719506647E0
1.315258167E0,-5.246739349E0,6.846762085E-1,1.791923676E0,5.586416183E0
1.325290167E0,-8.361162872E0,1.370100861E0,2.756068726E0,8.909665300E0
1.335323167E0,-7.341932373E0,1.227447510E0,2.386038208E0,7.816890474E0
1.345356167E0,-5.452860718E0,1.444795532E0,2.899620209E0,6.342627334E0
1.355388167E0,-5.052593079E0,1.570384369E0,2.441572723E0,5.827184676E0
1.365421167E0,-5.204377441E0,2.205363922E0,2.998564453E0,6.398481332E0
1.375454167E0,-4.922513580E0,3.234773254E0,3.830234985E0,7.026065613E0
1.385486167E0,-4.819827118E0,4.168681183E0,4.835993500E0,7.999716831E0
1.395519167E0,-4.753964081E0,5.259911957E0,5.621709595E0,9.048230050E0
1.405552167E0,-4.268224182E0,5.544919281E0,6.234834595E0,9.372141160E0
1.415585167E0,-3.548820190E0,4.907544708E0,6.789580994E0,9.098160796E0
1.425617167E0,-3.271147614E0,4.762945404E0,7.098688202E0,9.153001137E0
1.435650167E0,-3.375181274E0,4.882247314E0,6.959328003E0,9.146607772E0
1.445683167E0,-4.431983643E0,4.885540466E0,6.277346191E0,9.105825600E0
1.455715167E0,-5.581593018E0,4.694537659E0,5.298831024E0,9.015013847E0
1.465748167E0,-6.406976624E0,4.806055756E0,4.565356293E0,9.219002086E0
1.475781167E0,-6.708150330E0,5.458099823E0,4.482129364E0,9.740616929E0
1.485813167E0,-6.735842743E0,6.596033478E0,5.270240479E0,1.080067914E1
1.495846167E0,-7.698191528E0,8.060438232E0,5.800587616E0,1.256501628E1
1.505879167E0,-9.242380371E0,8.898096313E0,6.205495605E0,1.425152233E1
1.515911167E0,-1.126871658E1,8.993298340E0,6.228697357E0,1.570541497E1
1.525944167E0,-1.310988785E1,9.285640411E0,5.092110901E0,1.685294843E1
1.535977167E0,-1.412792084E1,9.991871796E0,4.099375305E0,1.778315290E1
1.546010167E0,-1.474957809E1,1.105975113E1,3.198698273E0,1.871095454E1
1.556042167E0,-1.476903763E1,1.239632172E1,2.836601257E0,1.948947334E1
1.566075167E0,-1.470347397E1,1.355491241E1,2.879861298E0,2.020448956E1
1.576108167E0,-1.545895294E1,1.396161667E1,3.295097809E0,2.108941999E1
1.586140167E0,-1.681019302E1,1.384680542E1,3.525468750E0,2.206231039E1
1.596173167E0,-1.811038925E1,1.190758804E1,4.092489624E-1,2.167819957E1
1.606206167E0,-1.913949921E1,1.054422318E1,-1.872306519E0,2.193186276E1
1.616238167E0,-2.031919601E1,9.671537933E0,-3.951333160E0,2.284778778E1
1.626271167E0,-2.085702759E1,9.569450226E0,-5.101541290E0,2.350777958E1
1.636304167E0,-2.048894302E1,9.780960388E0,-4.306245117E0,2.310860704E1
1.646337167E0,-1.934636902E1,9.514514465E0,-3.638334045E0,2.186425060E1
1.656369167E0,-1.833626953E1,9.039402466E0,-3.281176758E0,2.070496796E1
1.666402167E0,-1.745550110E1,8.351133728E0,-3.500321045E0,1.966438915E1
1.676435167E0,-1.662083679E1,7.337890778E0,-3.964206390E0,1.859601541E1
1.686467167E0,-1.555071213E1,6.214476929E0,-4.490511932E0,1.733808146E1
1.696500167E0,-1.418749695E1,5.187911682E0,-4.951702881E0,1.589713366E1
1.706533167E0,-1.306617874E1,4.570894775E0,-4.978946228E0,1.471081274E1
1.716565167E0,-1.221085739E1,3.961062927E0,-4.558620300E0,1.362263105E1
1.726598167E0,-1.189142166E1,3.579955444E0,-3.653901672E0,1.294499855E1
1.736631167E0,-1.206595871E1,3.245999908E0,-3.108585663E0,1.287583705E1
1.746664167E0,-1.208422073E1,2.671045532E0,-3.116668854E0,1.276230777E1
1.756696167E0,-1.168230652E1,1.974843292E0,-3.013233948E0,1.222521454E1
1.766729167E0,-1.085303101E1,1.422940979E0,-2.860850830E0,1.131359848E1
1.776762167E0,-9.893077240E0,7.737409973E-1,-2.813249817E0,1.031436023E1
1.786794167E0,-8.627608795E0,3.068618774E-2,-2.652035065E0,9.026065873E0
1.796827167E0,-7.356452179E0,-5.525010681E-1,-2.105820923E0,7.671839926E0
1.806860167E0,-6.397097168E0,-8.171507263E-1,-1.346150665E0,6.588073246E0
1.816892167E0,-6.096222839E0,-7.830216980E-1,-6.283932495E-1,6.178343950E0
1.826925167E0,-6.743925934E0,-3.474275208E-1,-2.116598511E-1,6.756185520E0
1.836958167E0,-7.596103821E0,6.271957397E-2,1.278341675E-1,7.597438290E0
1.846990167E0,-8.079299011E0,2.712359619E-1,6.183641052E-1,8.107466659E0
1.857023167E0,-8.483009491E0,6.616241455E-1,8.750802612E-1,8.553651968E0
1.867056167E0,-8.726103973E0,1.128952332E0,7.045848083E-1,8.826996300E0
1.877089167E0,-8.680149536E0,1.166224823E0,6.150709534E-1,8.779714607E0
1.887121167E0,-8.687334595E0,1.202449493E0,9.328601074E-1,8.819631235E0
1.897154167E0,-9.333241425E0,2.152224426E0,1.313069458E0,9.667761730E0
1.907187167E0,-1.005234604E1,3.531605988E0,1.985920258E0,1.083816317E1
1.917219167E0,-1.077639038E1,5.089865570E0,2.462379456E0,1.216966038E1
1.927252167E0,-1.014859589E1,5.203628998E0,3.072360992E0,1.181148404E1
1.937285167E0,-9.008267212E0,5.391787720E0,4.173022156E0,1.129753809E1
1.947317167E0,-7.686665497E0,7.076534271E0,4.551884308E0,1.139657030E1
1.957350167E0,-6.354884949E0,8.657396851E0,4.804109802E0,1.176497148E1
1.967383167E0,-5.352419586E0,9.248816986E0,4.825664978E0,1.172501827E1
1.977416167E0,-4.671485596E0,9.317673798E0,5.092260590E0,1.160055777E1
1.987448167E0,-4.573140106E0,9.506281586E0,5.334906006E0,1.182134604E1
1.997481167E0,-4.540657654E0,9.723479919E0,5.287454681E0,1.196331102E1
2.007514167E0,-4.455933838E0,9.216783600E0,4.115691376E0,1.103373744E1
2.017546167E0,-5.241500244E0,8.355774078E0,2.269730072E0,1.012146036E1
2.027579167E0,-6.826404419E0,8.231981506E0,6.753955078E-1,1.071547833E1
2.037612167E0,-8.653205566E0,8.577463074E0,-1.405577087E-1,1.218485108E1
2.047644167E0,-9.313482513E0,7.901768188E0,-4.555027771E-1,1.222237210E1
2.057677167E0,-8.998687134E0,6.871610413E0,-3.990701294E-1,1.132937142E1
2.067710167E0,-7.929759979E0,6.368057556E0,-7.753875732E-1,1.019972922E1
2.077742167E0,-8.015232239E0,6.414610748E0,-4.267625427E-1,1.027488711E1
2.087775167E0,-7.762108612E0,6.670578461E0,1.701960754E-1,1.023601064E1
2.097808167E0,-7.396119690E0,6.971003723E0,4.728666687E-1,1.017453106E1
2.107841167E0,-7.188950500E0,7.343279572E0,-5.209167480E-2,1.027654989E1
2.117873167E0,-6.955735474E0,7.800428925E0,-4.794529724E-1,1.046225705E1
2.127906167E0,-6.810387726E0,7.829468536E0,-3.245251465E-1,1.038206507E1
2.137939167E0,-6.479126587E0,7.156917114E0,2.266287231E-1,9.656702568E0
2.147971167E0,-6.092181244E0,6.217321014E0,8.027806091E-1,8.741522156E0
2.158004167E0,-5.558840332E0,5.626499634E0,9.806108093E-1,7.969931087E0
2.168037167E0,-5.304818573E0,5.885012054E0,5.551954651E-1,7.942462400E0
2.178069167E0,-5.966143341E0,7.372319183E0,8.846603394E-2,9.484396805E0
2.188102167E0,-6.758146362E0,7.953859863E0,3.938310242E-1,1.044468917E1
2.198135167E0,-7.289391632E0,7.702233124E0,8.791218567E-1,1.064107517E1
2.208168167E0,-7.375911713E0,6.870712280E0,1.556163940E0,1.019962779E1
2.218200167E0,-7.735164642E0,6.796915741E0,1.257385254E0,1.037361332E1
2.228233167E0,-8.221652985E0,7.054380341E0,-1.140628052E-1,1.083387604E1
2.238266167E0,-8.068371735E0,6.867718506E0,-1.053359528E0,1.064771084E1
2.248298167E0,-7.648644562E0,6.866670685E0,-8.969348145E-1,1.031782060E1
2.258331167E0,-6.870712280E0,6.523135071E0,4.087998962E-1,9.482884358E0
2.268364167E0,-6.376290436E0,6.199058990E0,1.988165588E0,9.112530631E0
2.278396167E0,-6.330934753E0,6.560557251E0,2.506837006E0,9.455468157E0
2.288429167E0,-7.328161011E0,7.204967194E0,1.361867981E0,1.036668609E1
2.298461167E0,-8.415350189E0,7.321275330E0,1.194515991E-1,1.115497467E1
2.308493167E0,-8.769064636E0,6.951843567E0,-1.419049072E-1,1.119128056E1
2.318526167E0,-8.819809113E0,7.043153687E0,2.420466614E-1,1.128953645E1
2.328559167E0,-8.318052521E0,7.272177429E0,4.543052673E-1,1.105807196E1
2.338592167E0,-7.453300781E0,6.705306244E0,8.523275757E-1,1.006177353E1
2.348624167E0,-7.270081787E0,6.150559845E0,1.195563812E0,9.597543875E0
2.358657167E0,-7.047494659E0,5.775439911E0,1.354533234E0,9.211821070E0
2.368690167E0,-6.879394226E0,5.851182404E0,1.512155457E0,9.156910754E0
2.378722167E0,-6.653364258E0,6.275849304E0,1.340312805E0,9.243915775E0
2.388755167E0,-7.148235168E0,7.259304199E0,5.568420410E-1,1.020317777E1
2.398788167E0,-7.857460327E0,8.102800140E0,-1.419049072E-1,1.128783371E1
2.408820167E0,-8.129145355E0,8.128546600E0,-2.594105530E-1,1.149885072E1
2.418853167E0,-8.213270416E0,7.577841797E0,2.103126526E-1,1.117701788E1
2.428886167E0,-8.284522247E0,7.054080963E0,9.705816650E-1,1.092407414E1
2.438919167E0,-8.161328430E0,6.713090057E0,1.515747986E0,1.067568976E1
2.448951167E0,-8.277337189E0,6.697372742E0,1.524878998E0,1.075613167E1
2.458984167E0,-8.640032959E0,6.528972931E0,8.898994446E-1,1.086598261E1
2.469017167E0,-8.754395142E0,6.555467834E0,1.432521057E-1,1.093773807E1
2.479049167E0,-9.075028381E0,6.944059753E0,-3.706292725E-1,1.143299926E1
2.489082167E0,-9.387428741E0,7.535629578E0,-9.361532593E-1,1.207418380E1
2.499115167E0,-9.046587524E0,7.870782623E0,-1.376238098E0,1.206996256E1
2.509147167E0,-8.522377625E0,7.934999084E0,-1.020577698E0,1.168917062E1
2.519180167E0,-8.386460266E0,7.763006744E0,-6.008505249E-1,1.144368869E1
2.529213167E0,-8.518485718E0,7.691754913E0,-7.964936829E-1,1.150487265E1
2.539245167E0,-8.870254211E0,7.533084869E0,-9.032217407E-1,1.167238566E1
2.549278167E0,-9.238638153E0,7.238946533E0,-9.645941162E-1,1.177646907E1
2.559311167E0,-8.822653198E0,6.637048187E0,-1.901196442E0,1.120286419E1
2.569344167E0,-8.087980957E0,5.726192322E0,-2.740950165E0,1.028190266E1
2.579376167E0,-7.785460052E0,5.046306152E0,-2.580483856E0,9.630030682E0
2.589409167E0,-7.563621368E0,4.561314697E0,-2.188748474E0,9.099702185E0
2.599442167E0,-7.556735687E0,4.426594849E0,-1.788929901E0,8.938638956E0
2.609474167E0,-7.553891602E0,4.496798859E0,-1.406475220E0,8.902845098E0
2.619507167E0,-7.714657288E0,4.802163849E0,-1.737137604E0,9.251722097E0
2.629540167E0,-8.273894348E0,5.392835541E0,-2.213596802E0,1.012126542E1
2.639572167E0,-8.706345062E0,5.810916138E0,-2.057172089E0,1.066766833E1
2.649605167E0,-7.578739929E0,5.306914215E0,-1.905986481E0,9.446344365E0
2.659638167E0,-6.856940918E0,4.758604431E0,-1.409319305E0,8.464522183E0
2.669670167E0,-6.163732452E0,3.969744873E0,-1.616638184E0,7.507595562E0
2.679703167E0,-5.182522888E0,3.164718933E0,-1.567091217E0,6.271344696E0
2.689736167E0,-4.804858246E0,3.021766205E0,-8.861572266E-1,5.744824487E0
2.699769167E0,-4.677772522E0,3.338956604E0,-4.724176025E-1,5.766573104E0
2.709801167E0,-5.011278992E0,4.359085236E0,-5.186714172E-1,6.662098863E0
2.719834167E0,-5.106930084E0,5.503006439E0,-7.791297913E-1,7.547904212E0
2.729867167E0,-4.973856812E0,5.942791901E0,-7.450007629E-1,7.785310096E0
2.739899167E0,-4.673132172E0,5.780529327E0,-4.787045288E-1,7.448613403E0
2.749932167E0,-4.514312439E0,5.558840332E0,-2.588117981E-1,7.165661601E0
2.759965167E0,-5.169949036E0,5.667364655E0,-5.716612244E-1,7.692476306E0
2.769997167E0,-6.185137939E0,5.708079987E0,-1.134790192E0,8.492694345E0
2.780030167E0,-6.809489594E0,5.344935150E0,-1.643432465E0,8.811262710E0
2.790063167E0,-7.597451019E0,5.682034149E0,-2.363435211E0,9.777146826E0
2.800095167E0,-7.928263092E0,5.874533844E0,-2.436782684E0,1.016392707E1
2.810128167E0,-9.065148926E0,6.811734924E0,-1.607207794E0,1.145250080E1
2.820161167E0,-1.076755875E1,8.324189758E0,-2.112107849E0,1.377292475E1
2.830194167E0,-1.071471863E1,7.894583130E0,-3.024759979E0,1.364839958E1
2.840226167E0,-9.884395294E0,6.932533722E0,-3.050656128E0,1.245262209E1
2.850259167E0,-8.886869659E0,5.556145935E0,-1.712139587E0,1.061972843E1
2.860292167E0,-8.076155548E0,4.166585541E0,-5.051994324E-1,9.101645454E0
2.870324167E0,-7.593858490E0,3.696862335E0,-5.138813782E-1,8.461533665E0
2.880357167E0,-6.828799438E0,3.018173676E0,-4.558021545E-1,7.479948510E0
2.890390167E0,-6.261030121E0,2.899470520E0,4.767585754E-1,6.916265337E0
2.900422167E0,-5.691913605E0,3.172802124E0,7.843688965E-1,6.563519511E0
2.910455167E0,-5.564378815E0,3.367098083E0,1.301094360E0,6.632684798E0
2.920488167E0,-5.309608612E0,4.722230072E0,1.052760773E0,7.183293514E0
2.930521167E0,-5.179678802E0,5.985453186E0,1.653461609E0,8.086325348E0
2.940553167E0,-4.962630157E0,6.880591736E0,2.195933533E0,8.763125287E0
2.950586167E0,-4.798271942E0,7.890541534E0,1.724563751E0,9.394582453E0
2.960619167E0,-5.576952667E0,8.927734680E0,2.372566223E0,1.079054763E1
2.970651167E0,-6.150410156E0,9.721833344E0,3.187471619E0,1.193740189E1
2.980684167E0,-6.796017609E0,9.914782104E0,2.954406281E0,1.237809662E1
2.990717167E0,-7.635022888E0,9.606722717E0,2.142344971E0,1.245681893E1
3.000749167E0,-7.691904602E0,9.208101654E0,5.641767883E-1,1.201136245E1
3.010782167E0,-7.013665009E0,9.127569122E0,-1.334175568E0,1.158809904E1
3.020815167E0,-6.666387177E0,8.777297516E0,-1.775906982E0,1.116402774E1
3.030847167E0,-6.397995300E0,8.333470459E0,-1.764830017E0,1.065343601E1
3.040880167E0,-6.407725067E0,8.037236481E0,-1.866618347E0,1.044702708E1
3.050913167E0,-6.435866547E0,7.926466827E0,-2.050136719E0,1.041404413E1
3.060946167E0,-6.178102570E0,7.392527161E0,-1.946103058E0,9.828821206E0
3.070978167E0,-5.667963409E0,6.956932983E0,-1.898951111E0,9.172281127E0
3.081011167E0,-5.730233917E0,7.408094788E0,-1.348395996E0,9.462220717E0
3.091044167E0,-6.207441559E0,7.797435150E0,-3.733236694E-1,9.973549829E0
3.101076167E0,-6.762786713E0,7.636819153E0,2.165995789E-1,1.020309788E1
3.111109167E0,-7.128326569E0,6.708000641E0,1.809736633E-1,9.789947075E0
3.121142167E0,-7.183861084E0,5.119803314E0,1.257385254E-1,8.822474496E0
3.131174167E0,-7.085216217E0,3.573069763E0,-3.143463135E-3,7.935182812E0
3.141207167E0,-7.593559113E0,2.483485565E0,-4.689747620E-1,8.003110513E0
3.151240167E0,-8.638536072E0,2.020498352E0,-9.982740784E-1,8.927668799E0
3.161272167E0,-9.009913788E0,2.461181946E0,-7.467970276E-1,9.369827578E0
3.171305167E0,-9.227411499E0,3.489393768E0,-1.252894592E-1,9.865935804E0
3.181338167E0,-9.506880341E0,4.277205505E0,3.043171692E-1,1.042918356E1
3.191371167E0,-8.894952850E0,5.124743042E0,6.867718506E-1,1.028857779E1
3.201403167E0,-7.574698334E0,5.901028748E0,1.777703247E0,9.765163796E0
3.211436167E0,-6.079308014E0,7.055278473E0,2.883753204E0,9.749408844E0
3.221469167E0,-5.273982697E0,7.612719269E0,1.750459900E0,9.425099363E0
3.231501167E0,-4.840184784E0,6.965016174E0,1.570084991E0,8.625775671E0
3.241534167E0,-5.470074921E0,1.105091949E1,3.809877319E0,1.290580127E1
3.251567167E0,-5.001399536E0,1.310569656E1,3.608396301E0,1.448426055E1
3.261599167E0,-4.184997253E0,1.280721725E1,2.298170929E0,1.366823344E1
3.271632167E0,-3.687132568E0,1.143532013E1,1.125808868E0,1.206768158E1
3.281665167E0,-3.767964478E0,9.136101379E0,7.466473389E-1,9.910771260E0
3.291697167E0,-5.763165436E0,8.461903381E0,1.131497040E0,1.030039661E1
3.301731250E0,-5.689219208E0,7.842641144E0,2.145189056E0,9.923511042E0
3.311764250E0,-6.245911560E0,8.234077148E0,2.570604401E0,1.064985656E1
3.321797250E0,-6.699169006E0,8.089178467E0,2.894081726E0,1.089446569E1
3.331829250E0,-7.184310150E0,7.191195831E0,3.186124420E0,1.065265219E1
3.341862250E0,-7.667205963E0,6.878645782E0,2.694396973E0,1.064714000E1
3.351895250E0,-7.301965485E0,6.259233856E0,6.304888916E-1,9.638165004E0
3.361927250E0,-6.482569427E0,6.258485413E0,-1.246907043E0,9.096544576E0
3.371960250E0,-6.680457916E0,7.860154724E0,-2.313139801E0,1.057171538E1
3.381993250E0,-7.765551453E0,9.246421967E0,-3.183579712E0,1.248740519E1
3.392025250E0,-8.677604828E0,9.575437775E0,-3.128643951E0,1.329579810E1
3.402058250E0,-8.228688354E0,9.477990417E0,-2.955154724E0,1.289482663E1
3.412091250E0,-7.276219025E0,8.984017639E0,-3.310964813E0,1.202574007E1
3.422123250E0,-6.671925659E0,8.416697388E0,-3.366499329E0,1.125560770E1
3.432156250E0,-6.504124603E0,7.870782623E0,-2.756517792E0,1.057597496E1
3.442189250E0,-5.988746338E0,7.658973083E0,-1.903591461E0,9.906998125E0
3.452222250E0,-5.467530212E0,7.473658447E0,-9.042695618E-1,9.304147497E0
3.462254250E0,-5.253924408E0,7.547604675E0,-1.953437805E-1,9.198272512E0
3.472287250E0,-5.293292542E0,7.732021179E0,1.796264648E-2,9.370347918E0
3.482320250E0,-5.139562225E0,7.986342316E0,6.855743408E-2,9.497445108E0
3.492352250E0,-4.094136200E0,7.607480164E0,3.291654968E-1,8.645464452E0
3.502385250E0,-3.244053955E0,7.744145966E0,8.138575745E-1,8.435522921E0
3.512418250E0,-2.934797058E0,8.183482361E0,9.668394470E-1,8.747410808E0
3.522450250E0,-3.198099518E0,8.311615906E0,8.704399109E-1,8.948098409E0
3.532483250E0,-4.089795227E0,8.190966797E0,5.206173706E-1,9.170027509E0
3.542516250E0,-5.183870087E0,8.200846252E0,-1.357676697E-1,9.702825423E0
3.552548250E0,-6.036646729E0,8.295000458E0,-1.126108246E0,1.032067130E1
3.562581250E0,-6.427334290E0,8.323291626E0,-2.174378357E0,1.073851623E1
3.572614250E0,-6.585405579E0,8.302933960E0,-2.935844879E0,1.099661148E1
3.582647250E0,-6.551276550E0,8.091723175E0,-3.132535858E0,1.087234976E1
3.592679250E0,-6.224805450E0,8.061935120E0,-2.755170593E0,1.055149116E1
3.602712250E0,-5.716013489E0,8.347690887E0,-1.987566833E0,1.031053710E1
3.612745250E0,-4.947661285E0,8.344397736E0,-1.293609924E0,9.786815233E0
3.622777250E0,-4.062402191E0,8.158334656E0,-9.253756714E-1,9.160668974E0
3.632810250E0,-3.913461914E0,8.471483459E0,-9.096583557E-1,9.375963656E0
3.642843250E0,-4.402944031E0,8.471333771E0,-1.355281677E0,9.642935259E0
3.652875250E0,-4.838837585E0,7.994425507E0,-1.465901642E0,9.459072681E0
3.662908250E0,-5.731730804E0,8.212072906E0,-9.523196411E-1,1.005971133E1
3.672941250E0,-6.165379028E0,8.316555634E0,-1.000070343E0,1.040082385E1
3.682973250E0,-5.486840057E0,8.187823334E0,-1.107696533E0,9.918309149E0
3.693006250E0,-4.567751312E0,7.558531952E0,-8.580157471E-1,8.873102521E0
3.703039250E0,-4.310735779E0,6.817273407E0,-6.985972595E-1,8.096029755E0
3.713072250E0,-4.407434692E0,6.459966431E0,-7.653584290E-1,7.857634528E0
3.723104250E0,-3.636388092E0,6.665039978E0,-7.575746155E-1,7.630202852E0
3.733137250E0,-2.521506500E0,7.536827087E0,-4.837939453E-1,7.962148840E0
3.743170250E0,-1.826950836E0,9.059011688E0,-6.321354675E-1,9.262992895E0
3.753202250E0,-2.015408936E0,9.725725250E0,-1.497935028E0,1.004467093E1
3.763235250E0,-2.334994354E0,9.752070465E0,-2.101629639E0,1.024558071E1
3.773268250E0,-4.574487305E-1,9.114845581E0,2.647993469E-1,9.130158159E0
3.783300250E0,-5.161267090E-1,1.020338196E1,4.610412598E-2,1.021653149E1
3.793333250E0,-2.037113800E0,1.105600891E1,-1.322948914E0,1.131968902E1
3.803366250E0,-3.124452667E0,1.079914307E1,-2.129471741E0,1.144195549E1
3.813399250E0,-3.367996216E0,1.000669098E1,-2.844834137E0,1.093482255E1
3.823431250E0,-2.903362427E0,9.695937195E0,-3.180436249E0,1.060923589E1
3.833464250E0,-2.558329926E0,9.665101318E0,-3.010389862E0,1.044134487E1
3.843497250E0,-2.697390747E0,9.569300537E0,-2.050286407E0,1.015140896E1
3.853529250E0,-2.819985809E0,9.461374969E0,-1.057251434E0,9.929134749E0
3.863562250E0,-2.787203979E0,1.009590546E1,-3.555107117E-1,1.047960881E1
3.873595250E0,-3.317700806E0,1.091260712E1,-1.260379028E-1,1.140649018E1
3.883627250E0,-3.901935883E0,1.101753891E1,-2.748284912E-1,1.169131293E1
3.893660250E0,-3.885170746E0,1.044198578E1,-6.159690857E-1,1.115836174E1
3.903693250E0,-3.274141388E0,1.026445496E1,-8.457412720E-1,1.080714188E1
3.913725250E0,-2.615660706E0,1.010623398E1,-6.011499023E-1,1.045653037E1
3.923758250E0,-1.935924225E0,9.882898407E0,-4.908293152E-1,1.008267806E1
3.933791250E0,-1.421444092E0,9.616153107E0,-9.767189026E-1,9.769589740E0
3.943824250E0,-1.773212585E0,9.461524658E0,-2.034718781E0,9.838943655E0
3.953856250E0,-4.244423676E0,9.504934387E0,-4.173770599E0,1.121513580E1
3.963889250E0,-6.926246796E0,9.419462128E0,-4.829257507E0,1.264993634E1
3.973922250E0,-4.891228638E0,9.070088654E0,-3.175945587E0,1.078319323E1
3.983954250E0,-2.678979034E0,8.750054169E0,-1.849254456E0,9.335958369E0
3.993987250E0,-1.807191925E0,8.291557617E0,-1.052012329E0,8.551175376E0
4.004020250E0,-2.121837616E0,8.496331787E0,-8.741821289E-2,8.757710354E0
4.014052250E0,-2.318528595E0,8.649014282E0,5.095404053E-1,8.968871408E0
4.024085250E0,-2.430346069E0,8.599766693E0,6.334826660E-1,8.959010519E0
4.034118250E0,-1.990560608E0,8.352331238E0,2.405497742E-1,8.589623556E0
4.044150250E0,-2.310146027E0,8.152047729E0,-6.861730957E-1,8.500793514E0
4.054183250E0,-3.286715240E0,7.924820251E0,-1.337169342E0,8.682931241E0
4.064216250E0,-3.929478607E0,7.811505890E0,-1.936073914E0,8.955937058E0
4.074249250E0,-4.466861115E0,7.585924988E0,-2.388283539E0,9.121568089E0
4.084281250E0,-3.870800629E0,7.387288055E0,-2.081721039E0,8.595852768E0
4.094314250E0,-2.602039032E0,7.972720642E0,-1.202599182E0,8.472374304E0
4.104347250E0,-1.027313690E0,9.259594574E0,-2.905458069E-1,9.320937826E0
4.114379250E0,6.331832886E-1,1.078402451E1,-1.153201904E0,1.086397626E1
4.124412250E0,1.159189453E0,1.136481674E1,-7.050338745E-1,1.144551670E1
4.134445250E0,7.520361328E-1,1.130179779E1,-8.711883545E-1,1.136024475E1
4.144477250E0,4.439767456E-1,1.136796021E1,-1.240171051E0,1.144402284E1
4.154510250E0,-2.966830444E-1,1.116468292E1,-1.074166260E0,1.122016037E1
4.164543250E0,-2.342628479E-1,1.132709518E1,-7.298822021E-1,1.135300367E1
4.174575250E0,2.155517578E-1,1.072355026E1,-5.502557373E-1,1.073982189E1
4.184608250E0,4.933740234E-1,1.018257523E1,-4.016148376E-1,1.020242866E1
4.194641250E0,6.968009949E-1,9.767039337E0,-3.531156921E-1,9.798228398E0
4.204673250E0,8.096662903E-1,9.348210297E0,-1.743873596E-1,9.384828512E0
4.214706250E0,1.281335449E-1,9.179361420E0,-6.167175293E-1,9.200947494E0
4.224739250E0,-1.447639618E0,9.190139008E0,-1.451082458E0,9.415941575E0
4.234772250E0,-2.541864166E0,9.041498108E0,-1.919009399E0,9.586050206E0
4.244804250E0,-2.102527771E0,9.003477173E0,-2.402054901E0,9.552648427E0
4.254837250E0,-6.077362061E-1,9.442214813E0,-2.450703735E0,9.773981414E0
4.264870250E0,7.240443420E-1,9.625733185E0,-1.328637085E0,9.743934321E0
4.274902250E0,8.961863708E-1,1.017239639E1,-4.326004028E-2,1.021188865E1
4.284935250E0,4.373904419E-1,1.076636124E1,7.649093628E-2,1.077551370E1
4.294968250E0,-8.487350464E-2,1.117516113E1,-4.704716492E-1,1.118538213E1
4.305000167E0,-3.818559265E-1,1.141705811E1,-7.988887024E-1,1.145134284E1
4.315033167E0,-1.213975525E-1,1.068912186E1,-1.167871399E0,1.075341746E1
4.325066167E0,1.669029236E-1,1.054601944E1,-1.708397369E0,1.068480249E1
4.335098167E0,1.009201355E0,1.050455566E1,-1.459914093E0,1.065342791E1
4.345131167E0,1.896406403E0,1.044018951E1,-2.260299683E-1,1.061343507E1
4.355164167E0,2.380350037E0,9.538015594E0,6.156697083E-1,9.849815073E0
4.365197167E0,1.013392639E0,8.835376740E0,1.055754547E0,8.955750356E0
4.375229167E0,-1.422042847E-2,8.569080505E0,4.300556946E-1,8.579877087E0
4.385262167E0,1.806742859E-1,7.936945038E0,-6.445596313E-1,7.965123781E0
4.395295167E0,2.255809021E-1,7.646399231E0,-1.519490204E0,7.799176778E0
4.405327167E0,3.174897766E-1,7.770640869E0,-1.860331421E0,7.996530014E0
4.415360167E0,1.382674713E0,7.889194336E0,-1.652563477E0,8.178150321E0
4.425393167E0,2.566562805E0,7.908504181E0,-1.479373627E0,8.445130511E0
4.435425167E0,3.097808075E0,8.410410461E0,-1.900897064E0,9.162141052E0
4.445458167E0,2.424208832E0,9.038953400E0,-3.038381653E0,9.839269795E0
4.455491167E0,9.114546204E-1,9.221573639E0,-2.003733215E0,9.480670688E0
4.465524167E0,8.170010376E-1,8.902736664E0,-6.081852722E-1,8.960809122E0
4.475556167E0,1.069076843E0,8.835376740E0,-9.901908875E-1,8.954735363E0
4.485589167E0,1.405726776E0,8.974587250E0,-1.019380188E-1,9.084584494E0
4.495622167E0,2.534529419E0,9.298962708E0,5.498066711E-1,9.653850744E0
4.505654167E0,3.508104858E0,9.783205719E0,1.080752563E-1,1.039372859E1
4.515687167E0,2.444117432E0,1.047731232E1,-1.846410370E0,1.091590650E1
4.525720167E0,-6.093827820E-1,1.099074463E1,-1.450932770E0,1.110283841E1
4.535752167E0,-9.539662170E-1,1.082923050E1,-4.584965515E-1,1.088083195E1
4.545785167E0,4.415817261E-2,1.129176865E1,-6.204597473E-1,1.130888851E1
4.555818167E0,1.332379303E0,1.187330933E1,-3.273692322E-1,1.195231691E1
4.565850167E0,1.396745453E0,1.122545654E1,-9.602531433E-1,1.135270270E1
4.575883167E0,1.289119263E0,1.027882507E1,-2.224224701E0,1.059543529E1
4.585916167E0,1.769021301E0,9.252259827E0,-2.725382538E0,9.806194891E0
4.595948167E0,2.199675751E0,8.121810608E0,-2.944077759E0,8.914593362E0
4.605981167E0,2.134561157E0,7.535330200E0,-2.700085144E0,8.284202577E0
4.616014167E0,2.175725555E0,7.487579498E0,-2.065105591E0,8.066119856E0
4.626047167E0,1.063388672E0,8.065527649E0,-1.838476868E0,8.340475341E0
4.636079167E0,7.673043823E-1,8.672365723E0,-1.695224762E0,8.869750292E0
4.646112167E0,1.371448059E0,9.003327484E0,-1.820663910E0,9.287388903E0
4.656145167E0,2.096240845E0,9.289532318E0,-2.488874359E0,9.842973735E0
4.666177167E0,1.975142670E0,9.733808441E0,-1.988015900E0,1.012918667E1
4.676210167E0,1.950444031E0,1.033465897E1,-2.359094238E-1,1.051974625E1
4.686243167E0,1.649120636E0,1.065244812E1,7.631130981E-1,1.080632183E1
4.696275167E0,1.656305695E0,9.979297943E0,8.728349304E-1,1.015340223E1
4.706308167E0,1.958826599E0,9.409882050E0,9.373507690E-1,9.657199817E0
4.716341167E0,2.083217926E0,8.903185730E0,3.327580261E-1,9.149712617E0
4.726373167E0,2.231709137E0,8.746162262E0,-1.639091492E-1,9.027887139E0
4.736406167E0,1.972597961E0,8.762478333E0,-1.333726501E-1,8.982758903E0
4.746439167E0,2.260299683E0,8.284821625E0,-5.251080322E-1,8.603659829E0
4.756472167E0,2.961441650E0,8.427924042E0,-1.322200470E0,9.030407210E0
4.766504167E0,2.642305298E0,9.137747955E0,-1.751507721E0,9.672021210E0
4.776537167E0,1.424288177E0,1.054407349E1,-2.307751007E0,1.088723092E1
4.786570167E0,7.147636414E-1,1.223675354E1,-2.909050598E0,1.259807920E1
4.796602167E0,3.614982605E-1,1.313383804E1,-3.084336090E0,1.349598132E1
4.806635167E0,7.455995178E-1,1.275542496E1,-3.295397186E0,1.319531838E1
4.816668167E0,1.996398468E0,1.107756409E1,-3.561992798E0,1.180617744E1
4.826700167E0,2.565365295E0,9.025930481E0,-2.440225525E0,9.695525811E0
4.836733167E0,2.208208008E0,8.515491943E0,-1.124311981E0,8.868701318E0
4.846766167E0,1.880389709E0,9.144633636E0,-2.616558838E-1,9.339628130E0
4.856798167E0,1.517394562E0,9.217681732E0,4.775070190E-1,9.353937980E0
4.866831167E0,1.404529266E0,9.046138458E0,1.098715210E-1,9.155184062E0
4.876864167E0,1.456171875E0,9.698332214E0,-6.822811890E-1,9.830747270E0
4.886897167E0,1.170865173E0,1.029005173E1,-1.002016296E0,1.040481266E1
4.896929167E0,1.210832062E0,1.058389069E1,-1.216071167E0,1.072211199E1
4.906962167E0,1.603016510E0,1.015278717E1,-1.165476379E0,1.034442287E1
4.916995167E0,1.722617798E0,9.961185608E0,-8.303233337E-1,1.014307979E1
4.927027167E0,1.708996124E0,9.943372650E0,-7.358697510E-1,1.011596914E1
4.937060167E0,1.854942627E0,1.004935226E1,-1.026116180E0,1.027050181E1
4.947093167E0,1.822310486E0,1.040815613E1,-1.411864014E0,1.066038881E1
4.957125167E0,1.358275452E0,1.042402313E1,-1.497485962E0,1.061826891E1
4.967158167E0,6.002517700E-2,1.123668320E1,-1.565294952E0,1.134534268E1
4.977191167E0,-1.010847931E0,9.617949371E0,-1.749262390E0,9.827852388E0
4.987223167E0,1.046174469E0,9.311087494E0,-9.153465271E-1,9.414281205E0
4.997256167E0,2.280507660E0,1.001986359E1,-4.517605591E-1,1.028603272E1
5.007289167E0,3.278632050E0,9.730664978E0,-1.104702759E-1,1.026876199E1
5.017322167E0,3.511248322E0,9.266330566E0,-3.894900513E-1,9.916927419E0
5.027354167E0,2.616259460E0,9.196875000E0,-4.983137512E-1,9.574739679E0
5.037387167E0,1.247356110E0,9.186696167E0,-5.767506409E-1,9.288914093E0
5.047420167E0,2.284249878E-1,9.220675507E0,-1.293460236E0,9.313757252E0
5.057452167E0,1.932182007E0,9.168284454E0,-1.442250824E0,9.480023976E0
5.067485167E0,2.055974579E0,9.348958740E0,-1.776206360E0,9.735757291E0
5.077518167E0,1.264869690E0,9.761650543E0,-2.035766602E0,1.005157014E1
5.087550167E0,3.980073395E0,9.474547577E0,-1.341660004E0,1.036378732E1
5.097583167E0,5.445975037E0,9.197623444E0,-1.025667114E0,1.073810571E1
5.107616167E0,2.594255219E0,9.235045624E0,-1.698218536E0,9.741672034E0
5.117648167E0,1.882635040E0,9.017098846E0,-2.102378082E0,9.448406210E0
5.127681167E0,1.820214844E0,9.115594025E0,-2.038610687E0,9.516468359E0
5.137714167E0,-4.954696655E-2,9.959838409E0,-2.296075287E0,1.022119356E1
5.147747167E0,9.160949707E-2,9.642198944E0,-2.962489471E0,1.008745442E1
5.157779167E0,7.274871826E-2,9.197922821E0,-1.947001190E0,9.402015222E0
5.167812167E0,1.530567169E0,9.462123413E0,-8.384065247E-1,9.621711950E0
5.177845167E0,1.066083069E0,9.961634674E0,-2.839595032E-1,1.002254117E1
5.187877167E0,3.290158081E0,9.780960388E0,-1.122366028E0,1.038036761E1
5.197910167E0,4.017196198E0,9.884994049E0,-5.306465149E-1,1.068328406E1
5.207943167E0,2.916235657E0,9.697434082E0,-1.811682587E0,1.028721789E1
5.217975167E0,2.815046082E0,9.339079285E0,-2.640209656E0,1.010512708E1
5.228008167E0,2.577939148E0,9.212442627E0,-2.566562805E0,9.904651132E0
5.238041167E0,2.399061127E0,9.321565704E0,-2.282154236E0,9.892184260E0
5.248073167E0,2.368225250E0,9.217082977E0,-1.705553284E0,9.668092958E0
5.258106167E0,2.126477966E0,9.023984528E0,-1.567839661E0,9.402782912E0
5.268139167E0,1.987716522E0,8.895701294E0,-1.381776581E0,9.219209565E0
5.278172167E0,1.857337646E0,8.749605103E0,-1.514999542E0,9.071963194E0
5.288204167E0,2.105371857E0,7.994575195E0,-1.934277649E0,8.490421263E0
5.298236542E0,2.353106689E0,7.105274506E0,-1.685045929E0,7.672119438E0
5.308269542E0,1.106049957E0,6.856491852E0,-1.545536041E0,7.115019935E0
5.318301542E0,-3.293151855E-2,8.396489410E0,-1.626817017E0,8.552698551E0
5.328334542E0,1.040486298E0,9.647887115E0,-2.101479950E0,9.928774119E0
5.338367542E0,1.590143280E0,9.820178833E0,-2.923869781E0,1.036887084E1
5.348399542E0,2.405946808E0,9.149423676E0,-2.932551727E0,9.904564265E0
5.358432542E0,2.402054901E0,8.558302917E0,-2.883453827E0,9.344983817E0
5.368465542E0,2.296075287E0,8.329428864E0,-2.336491241E0,8.950449052E0
5.378497542E0,2.119292908E0,8.046217804E0,-1.778451691E0,8.508578835E0
5.388530542E0,1.441053314E0,7.911497955E0,-1.822310486E0,8.245559415E0
5.398563542E0,1.651365967E0,8.371341705E0,-2.162852325E0,8.802516781E0
5.408596542E0,1.524729309E0,8.644074554E0,-2.530487823E0,9.134998248E0
5.418628542E0,6.538403320E-1,9.075477448E0,-1.865121460E0,9.288190143E0
5.428661542E0,9.099577332E-1,8.803792419E0,-1.646725616E0,9.002582368E0
5.438694542E0,1.390458527E0,8.221353607E0,-2.961142273E0,8.848298910E0
5.448726542E0,1.178349609E0,8.727900238E0,-2.676434326E0,9.204784140E0
5.458759542E0,4.034111023E-1,9.660460968E0,-2.663112030E0,1.002892877E1
5.468792542E0,1.800755310E-1,1.016536102E1,-3.061882782E0,1.061800914E1
5.478824542E0,3.387455750E-1,1.059526703E1,-4.344415741E0,1.145636854E1
5.488857542E0,5.929170227E-1,1.122186401E1,-4.702770538E0,1.218186493E1
5.498890542E0,5.162763977E-1,1.105765549E1,-3.510948944E0,1.161314121E1
5.508922542E0,7.551795959E-1,1.048569489E1,-2.801424408E0,1.087970919E1
5.518955542E0,7.479945374E-1,1.057416092E1,-2.434387665E0,1.087651683E1
5.528988542E0,1.107546844E0,1.015308655E1,-2.292482758E0,1.046744017E1
5.539021542E0,9.439370728E-1,9.676028595E0,-2.180216217E0,9.963427589E0
5.549053542E0,4.300556946E-1,9.803713074E0,-2.851420441E0,1.021901837E1
5.559086542E0,-5.493576050E-2,1.096320190E1,-3.398083649E0,1.147788249E1
5.569119542E0,-3.641926575E-1,1.215008377E1,-3.541186066E0,1.266085189E1
5.579151542E0,-2.035766602E-2,1.301229080E1,-3.203787689E0,1.340090974E1
5.589184542E0,1.611848145E0,1.133592682E1,-2.620899811E0,1.174608050E1
5.599217542E0,1.372046814E0,9.619446259E0,-1.917662201E0,9.904225719E0
5.609249542E0,9.521699524E-1,9.835896149E0,-1.937870178E0,1.007009541E1
5.619282542E0,8.978329468E-1,9.871522064E0,-2.323168945E0,1.018087255E1
5.629315542E0,1.543290710E0,9.301956482E0,-2.787353668E0,9.832470752E0
5.639347542E0,7.839198303E-1,8.169561310E0,-3.445085907E0,8.900835871E0
5.649380542E0,2.161505127E-1,8.554560699E0,-2.482737122E0,8.910174713E0
5.659413542E0,9.410929871E-1,9.713600464E0,-2.209854584E0,1.000615547E1
5.669445542E0,1.414109344E0,1.030771500E1,-1.430575104E0,1.050215401E1
5.679478542E0,1.415306854E0,1.015787659E1,-1.424886932E0,1.035450883E1
5.689511542E0,7.749385071E-1,9.762848053E0,-2.269879761E0,1.005316298E1
5.699544542E0,6.595285034E-1,9.630972290E0,-2.882705383E0,1.007475039E1
5.709576542E0,7.418572998E-1,9.474846954E0,-2.901715851E0,9.936952850E0
5.719609542E0,8.003855896E-1,9.198521576E0,-3.342848511E0,9.819778635E0
5.729642542E0,8.518785095E-1,8.746012573E0,-3.758983154E0,9.557635025E0
5.739674542E0,8.912466431E-1,8.447383575E0,-3.467239838E0,9.174658683E0
5.749707542E0,6.562353516E-1,8.466843109E0,-2.613265686E0,8.885225637E0
5.759740542E0,8.732839966E-1,8.338859253E0,-2.395468597E0,8.719946581E0
5.769772542E0,1.247954865E0,7.981701965E0,-2.934647369E0,8.595179625E0
5.779805542E0,1.777703247E0,7.339237976E0,-3.453318787E0,8.303616895E0
5.789838542E0,3.127895508E0,5.604944458E0,-3.011287994E0,7.089921584E0
5.799870542E0,1.710343323E0,6.858138428E0,-2.268981628E0,7.423450317E0
5.809903542E0,-3.362008667E-1,9.066346436E0,-2.217039642E0,9.339536042E0
5.819936542E0,-1.114731903E0,1.048943710E1,-2.792143707E0,1.091178191E1
5.829969542E0,-9.286688232E-1,1.069974976E1,-2.871029663E0,1.111709863E1
5.840001542E0,3.821553040E-1,9.800569611E0,-2.560575256E0,1.013675259E1
5.850034542E0,5.622308350E-1,9.317374420E0,-2.918630676E0,9.779978253E0
5.860067542E0,4.981640625E-1,9.236991577E0,-2.645149384E0,9.621174361E0
5.870099542E0,4.171824646E-1,9.014554138E0,-2.558479614E0,9.379874490E0
5.880132542E0,4.806504822E-1,8.868308258E0,-2.489772491E0,9.223713098E0
5.890165542E0,7.598199463E-1,8.516090698E0,-1.829495544E0,8.743465050E0
5.900197542E0,6.659651184E-1,8.449329529E0,-8.999285889E-1,8.523177253E0
5.910230542E0,5.703140259E-2,9.268276520E0,-3.341052246E-1,9.274471873E0
5.920263542E0,-7.785310364E-1,9.949060822E0,-1.352587280E0,1.007072064E1
5.930295542E0,-1.115180969E-1,9.853409729E0,-2.555785217E0,1.018008633E1
5.940328542E0,1.173858948E0,9.584568787E0,-3.006947021E0,1.011353717E1
5.950361542E0,1.019080811E0,9.651180267E0,-3.546125793E0,1.033241571E1
5.960394542E0,1.917512512E-1,9.735005951E0,-3.652704163E0,1.039948831E1
5.970426542E0,-1.571731567E-1,9.721833344E0,-2.669698334E0,1.008295771E1
5.980459542E0,-1.309776306E-1,9.398356018E0,-2.047891388E0,9.619777031E0
5.990492542E0,-3.522175598E-1,9.341923370E0,-1.615740051E0,9.487160027E0
6.000524542E0,-7.524851990E-1,9.904902649E0,-2.358944550E0,1.020969881E1
6.010557542E0,-3.782633972E-1,1.071217392E1,-3.746109924E0,1.135460668E1
6.020590542E0,4.939727783E-3,1.109118576E1,-4.677473145E0,1.203715834E1
6.030622542E0,5.054988098E-1,1.082414108E1,-4.463418274E0,1.171920057E1
6.040655542E0,8.382568359E-1,1.022269180E1,-3.024460602E0,1.069361792E1
6.050688542E0,9.238787842E-1,9.430090027E0,-1.161135406E0,9.546118863E0
6.060720542E0,1.032552795E0,8.972790985E0,-2.526745605E-1,9.035540259E0
6.070753542E0,1.297202454E0,8.844208374E0,-4.706213379E-1,8.951214466E0
6.080786542E0,1.993255005E0,8.468938751E0,-4.059558105E-1,8.709809941E0
6.090818542E0,-5.523513794E-2,7.937094727E0,-9.327104187E-1,7.991900421E0
6.100851542E0,-2.856509857E0,9.903405762E0,-2.420616302E0,1.058756240E1
6.110884542E0,-1.686692505E0,1.117067047E1,-2.821183319E0,1.164422113E1
6.120917542E0,-1.096320190E0,1.118593872E1,-4.209995270E0,1.200213328E1
6.130949542E0,-5.071453857E-1,1.140942398E1,-3.559448090E0,1.196251741E1
6.140982542E0,3.812571716E-1,1.158740387E1,-3.394491119E0,1.208039136E1
6.151015542E0,2.358196106E0,1.133682495E1,-4.852010193E0,1.255494690E1
6.161047542E0,2.540816345E0,1.031445099E1,-5.071603546E0,1.177135546E1
6.171080542E0,9.547146606E-1,9.344019012E0,-3.683390350E0,1.008908003E1
6.181113542E0,-1.550176392E0,9.188193054E0,-2.993924103E0,9.787212064E0
6.191145542E0,-2.180814972E0,9.922416229E0,-3.017724609E0,1.059796960E1
6.201178542E0,-9.880952454E-1,9.425150299E0,-2.859204254E0,9.898729178E0
6.211211542E0,7.673043823E-1,9.950707397E0,-1.931134186E0,1.016536340E1
6.221243542E0,3.745062103E0,8.289162598E0,-5.688171387E-3,9.095918815E0
6.231276542E0,2.194586334E0,7.594606934E0,8.060737610E-1,7.946321071E0
6.241309542E0,1.647024994E0,8.056097260E0,-1.368603973E0,8.335854559E0
6.251341542E0,1.451980591E0,8.625662842E0,-2.503543854E0,9.098243727E0
6.261374542E0,7.249424744E-1,9.066945190E0,-2.628234558E0,9.467980438E0
6.271407542E0,8.369096375E-1,9.017847290E0,-2.491868134E0,9.393156779E0
6.281440542E0,1.069226532E0,8.357720032E0,-2.448757782E0,8.774459766E0
6.291472542E0,2.258802795E-1,8.408464508E0,-3.651356964E0,9.169825787E0
6.301505750E0,-3.255729675E-1,8.898844757E0,-4.532873840E0,9.992115943E0
6.311538750E0,-1.428030396E-1,9.288035431E0,-3.931873627E0,1.008700278E1
6.321570750E0,2.209405518E-1,9.013656006E0,-3.181484070E0,9.561205479E0
6.331603750E0,4.159849548E-1,8.865164795E0,-2.888094177E0,9.333020856E0
6.341636750E0,6.486012268E-1,8.891060944E0,-2.387684784E0,9.228904967E0
6.351668750E0,6.764433289E-1,9.272767181E0,-1.885329437E0,9.486635540E0
6.361701750E0,6.984475708E-1,9.618248749E0,-1.904040527E0,9.829746097E0
6.371734750E0,9.416917419E-1,9.911788330E0,-2.290087738E0,1.021640020E1
6.381766750E0,9.087602234E-1,9.657916260E0,-2.793790283E0,1.009487275E1
6.391799750E0,5.763015747E-1,9.132508850E0,-2.840044098E0,9.581267760E0
6.401832750E0,5.240602112E-1,9.307345276E0,-2.433190155E0,9.634403434E0
6.411865750E0,5.435197449E-1,9.765093384E0,-2.307900696E0,1.004882422E1
6.421897750E0,5.828878784E-1,1.013587234E1,-2.292183380E0,1.040815887E1
6.431930750E0,2.251318359E-1,1.005099884E1,-2.412084045E0,1.033883028E1
6.441963750E0,-6.571334839E-2,1.031190628E1,-2.527943115E0,1.061744912E1
6.451995750E0,-1.616638184E-2,1.047237259E1,-2.814746704E0,1.084406049E1
6.462028750E0,3.709286499E-1,1.068358337E1,-2.847378845E0,1.106273511E1
6.472061750E0,4.680766296E-1,1.037223083E1,-2.697390747E0,1.072745007E1
6.482093750E0,4.969665527E-1,9.804311829E0,-2.544259186E0,1.014124060E1
6.492126750E0,5.195695496E-1,9.717791748E0,-2.394420776E0,1.002190999E1
6.502159750E0,7.473957825E-1,9.554331665E0,-2.179018707E0,9.828121720E0
6.512191750E0,4.394860840E-1,9.359736328E0,-2.520907745E0,9.703235956E0
6.522224750E0,3.284170532E-1,9.142537994E0,-2.697989502E0,9.537977044E0
6.532257750E0,3.360511780E-1,9.013656006E0,-2.533780975E0,9.369043228E0
6.542289750E0,3.342549133E-1,9.012159119E0,-2.337389374E0,9.316336588E0
6.552322750E0,3.068618774E-1,8.786278839E0,-2.213746490E0,9.066064944E0
6.562355750E0,4.432283020E-1,9.031319275E0,-2.262095947E0,9.320850672E0
6.572388750E0,9.803114319E-1,8.794511719E0,-2.732567596E0,9.261283526E0
6.582420750E0,3.489244080E-1,9.751771088E0,-3.266357574E0,1.029018364E1
6.592453750E0,6.010002136E-1,9.394763489E0,-3.668271790E0,1.010341527E1
6.602486750E0,9.190887451E-1,9.400002594E0,-2.969674530E0,9.900693900E0
6.612518750E0,6.246510315E-1,9.706864471E0,-2.354304199E0,1.000780471E1
6.622551750E0,3.595523071E-1,9.268126831E0,-2.793790283E0,9.686728909E0
6.632584750E0,8.262817383E-2,8.983718262E0,-2.946023712E0,9.454791216E0
6.642616750E0,8.187973022E-2,9.610315247E0,-2.517315216E0,9.934874902E0
6.652649750E0,1.833686829E-1,9.603878632E0,-2.911295929E0,1.003711875E1
6.662682750E0,1.981878662E-1,9.408684540E0,-3.076552277E0,9.900898803E0
6.672714750E0,3.177891541E-1,9.389075317E0,-2.858306122E0,9.819655755E0
6.682747750E0,2.163002014E-1,9.454040222E0,-2.724783783E0,9.841245295E0
6.692780750E0,4.866380310E-1,9.415570221E0,-2.501298523E0,9.754295129E0
6.702812750E0,2.386038208E-1,9.357191620E0,-2.836152191E0,9.780476780E0
6.712845750E0,3.603007507E-1,9.463470612E0,-3.000510406E0,9.934291890E0
6.722878750E0,5.989045715E-1,8.759933624E0,-3.016078033E0,9.283956618E0
6.732911750E0,6.837780762E-1,9.194629669E0,-2.441123657E0,9.537706848E0
6.742943750E0,4.408332825E-1,9.344468079E0,-2.749183044E0,9.750457685E0
6.752976750E0,2.661465454E-1,8.885821838E0,-3.163671112E0,9.435967287E0
6.763009750E0,3.652404785E-1,9.255253601E0,-3.019820251E0,9.742301277E0
6.773041750E0,3.763174438E-1,9.214987335E0,-3.142864380E0,9.743469758E0
6.783074750E0,1.294807434E-1,9.250463562E0,-3.506907349E0,9.893747547E0
6.793107750E0,4.742138672E-1,9.776170349E0,-3.600612488E0,1.042894030E1
6.803139750E0,8.382568359E-1,9.194030914E0,-3.525319061E0,9.882345544E0
6.813172750E0,4.561015320E-1,9.506880341E0,-3.250041504E0,1.005741379E1
6.823205750E0,3.766168213E-1,9.366172943E0,-3.321892090E0,9.944948612E0
6.833237750E0,4.908293152E-1,9.013356628E0,-3.450774078E0,9.663816682E0
6.843270750E0,3.860472107E-1,8.995094604E0,-3.212469635E0,9.559326365E0
6.853303750E0,1.655557251E-1,8.818312225E0,-3.479514313E0,9.481405964E0
6.863335750E0,5.360353088E-1,9.498946838E0,-3.562292175E0,1.015909693E1
6.873368750E0,8.144563293E-1,9.080866241E0,-3.418890381E0,9.737262564E0
6.883401750E0,8.469387817E-1,8.877588959E0,-2.823428650E0,9.354177696E0
6.893434750E0,2.764750671E-1,9.388775940E0,-3.329675903E0,9.965555365E0
6.903466750E0,3.273692322E-1,9.864486694E0,-3.197500763E0,1.037493516E1
6.913499750E0,4.909790039E-1,9.369915161E0,-3.609893188E0,1.005324323E1
6.923532750E0,3.094065857E-1,9.254505157E0,-3.935466156E0,1.006128680E1
6.933564750E0,3.903881836E-1,9.392967224E0,-3.628155212E0,1.007689171E1
6.943597750E0,3.918850708E-1,9.258097687E0,-3.470682678E0,9.895028294E0
6.953630750E0,4.031117249E-1,9.098080444E0,-3.379372559E0,9.713790492E0
6.963662750E0,3.444337463E-1,9.287736053E0,-3.391796722E0,9.893682864E0
6.973695750E0,3.718267822E-1,9.338779907E0,-3.591182098E0,1.001237505E1
6.983728750E0,4.308041382E-1,9.180858307E0,-3.809727631E0,9.949260077E0
6.993760750E0,4.840933228E-1,8.750652924E0,-3.797902222E0,9.551561873E0
7.003793750E0,4.090992737E-1,1.044976959E1,-3.048111420E0,1.089293487E1
7.013826750E0,2.757266235E-1,9.914632416E0,-3.915407867E0,1.066331936E1
7.023858750E0,5.010081482E-1,9.664352875E0,-3.968098297E0,1.045927960E1
7.033891750E0,4.393363953E-1,1.026819717E1,-3.472628632E0,1.084841183E1
7.043924750E0,5.933660889E-1,1.047057632E1,-3.976480865E0,1.121594632E1
7.053957750E0,9.472302246E-1,1.055829391E1,-4.057911530E0,1.135083528E1
7.063989750E0,1.160536652E0,1.059242294E1,-3.987108765E0,1.137731539E1
7.074022750E0,1.205443268E0,1.068792435E1,-4.044589233E0,1.149101921E1
7.084055750E0,1.106049957E0,1.069061874E1,-3.815715179E0,1.140492692E1
7.094087750E0,1.280437317E0,1.043240570E1,-3.400328979E0,1.104702881E1
7.104120750E0,1.393452301E0,1.023227188E1,-3.047063599E0,1.076687948E1
7.114153750E0,1.493594055E0,1.018826340E1,-2.831362152E0,1.067933265E1
7.124185750E0,1.733395386E-1,1.050710037E1,-1.515747986E0,1.061728293E1
7.134218750E0,-2.067201233E0,1.066083069E1,-2.320175171E-1,1.086188124E1
7.144251750E0,9.695338440E-1,7.662864990E0,-3.003504181E0,8.287371905E0
7.154283750E0,1.830094299E0,5.910309448E0,-4.029770050E0,7.383769334E0
7.164316750E0,1.745071106E0,5.020859070E0,-3.285667419E0,6.248992667E0
7.174349750E0,1.269360352E0,5.626948700E0,-2.060764618E0,6.125404328E0
7.184381750E0,1.369053040E0,7.113806763E0,-1.763482819E0,7.455898640E0
7.194414750E0,1.398242340E0,8.307274933E0,-2.336491241E0,8.742144461E0
7.204447750E0,1.216370544E0,9.014404449E0,-2.479893036E0,9.428091766E0
7.214480750E0,1.257834320E0,9.474996643E0,-2.219284973E0,9.812386782E0
7.224512750E0,1.264570312E0,9.749525757E0,-2.252815247E0,1.008600848E1
7.234545750E0,1.120270386E0,1.003483246E1,-2.301464081E0,1.035613852E1
7.244578750E0,9.840536499E-1,1.024394760E1,-2.211351471E0,1.052601061E1
7.254610750E0,8.675958252E-1,1.035112473E1,-2.159409485E0,1.060950305E1
7.264643750E0,7.691006470E-1,1.010638367E1,-2.171683960E0,1.036565086E1
7.274676750E0,6.842271423E-1,9.757010193E0,-2.178569641E0,1.002065768E1
7.284708750E0,7.637118530E-1,9.620494080E0,-2.105072479E0,9.877676461E0
7.294741750E0,5.020559692E-1,9.454339600E0,-1.862277374E0,9.649076354E0
7.304774500E0,4.739144897E-1,9.317973175E0,-1.819765778E0,9.505828029E0
7.314806500E0,3.962260437E-1,9.353898468E0,-1.854343872E0,9.544160666E0
7.324839500E0,3.664379883E-1,9.454189911E0,-1.800006866E0,9.630992077E0
7.334872500E0,3.619473267E-1,9.583820343E0,-1.728156281E0,9.745108638E0
7.344904500E0,2.957849121E-1,9.810748444E0,-1.742227020E0,9.968632240E0
7.354937500E0,2.661465454E-1,1.014395554E1,-1.770069122E0,1.030067049E1
7.364970500E0,2.951861572E-1,1.051099228E1,-1.763782196E0,1.066203645E1
7.375003500E0,3.122506714E-1,1.082982925E1,-1.746867371E0,1.097425386E1
7.385035500E0,3.010240173E-1,1.104403381E1,-1.718576202E0,1.118100186E1
7.395068500E0,2.866539001E-1,1.111678253E1,-1.761536865E0,1.125913125E1
7.405101500E0,3.736230469E-1,1.104642883E1,-1.904938660E0,1.121570218E1
7.415133500E0,5.682183838E-1,1.083866089E1,-2.113604736E0,1.105743040E1
7.425166500E0,8.446934509E-1,1.049213150E1,-2.422711945E0,1.080128990E1
7.435199500E0,1.131646729E0,1.001657043E1,-2.859503632E0,1.047802790E1
7.445231500E0,1.343007202E0,9.385632477E0,-3.322490845E0,1.004652730E1
7.455264500E0,1.376687164E0,8.557105408E0,-3.818858643E0,9.471166868E0
7.465297500E0,1.209335175E0,7.444169769E0,-4.304149475E0,8.683539475E0
7.475329500E0,7.409591675E-1,6.364614716E0,-4.712649994E0,7.954018540E0
7.485362500E0,-1.901046753E-2,6.275998993E0,-5.423821106E0,8.294959924E0
7.495395500E0,-9.723779297E-1,6.667285309E0,-5.722450104E0,8.839946121E0
7.505427500E0,-2.145937500E0,6.764882355E0,-5.155279541E0,8.771863438E0
7.515460500E0,-2.679577789E0,7.171736298E0,-4.972210236E0,9.128899894E0
7.525493500E0,-2.523153076E0,7.623796234E0,-4.916526031E0,9.415986336E0
7.535526500E0,-2.889291687E0,8.455317078E0,-4.318070526E0,9.924017654E0
7.545558500E0,-3.122057648E0,9.803264008E0,-3.633843384E0,1.091128072E1
7.555591500E0,-2.778821411E0,1.083387085E1,-2.915038147E0,1.155820286E1
7.565624500E0,-2.255359955E0,1.143067978E1,-2.251917114E0,1.186668528E1
7.575656500E0,-2.254910889E0,1.170760391E1,-1.772314453E0,1.205378409E1
7.585689500E0,-1.757345581E0,1.150986511E1,-1.529369659E0,1.174326317E1
7.595722500E0,-1.081351318E0,1.103834564E1,-1.638941803E0,1.121162457E1
7.605754500E0,-7.494914246E-1,1.044063858E1,-2.088606720E0,1.067384417E1
7.615787500E0,-4.837939453E-1,9.759405212E0,-2.490670624E0,1.008382303E1
7.625820500E0,-3.727249146E-1,9.148525543E0,-2.656825104E0,9.533790595E0
7.635852500E0,-1.953437805E-1,8.712482300E0,-3.037633209E0,9.228906898E0
7.645885500E0,-8.966354370E-2,8.249046021E0,-3.367547150E0,8.910396939E0
7.655918500E0,1.586700439E-2,7.875722351E0,-3.400478668E0,8.578491096E0
7.665950500E0,7.559280396E-2,7.792794800E0,-3.207230530E0,8.427318241E0
7.675983500E0,2.499801636E-2,7.927963715E0,-3.150648193E0,8.531108814E0
7.686016500E0,-3.547622681E-2,8.101003876E0,-3.046165466E0,8.654862587E0
7.696049500E0,-1.207987976E-1,8.262518005E0,-2.820584564E0,8.731522973E0
7.706081500E0,-6.915618896E-2,8.483009491E0,-2.494712219E0,8.842500871E0
7.716114500E0,-9.145980835E-2,8.884025574E0,-2.098935242E0,9.129063722E0
7.726147500E0,-1.862127686E-1,9.368717651E0,-1.832339630E0,9.548037188E0
7.736179500E0,-3.049159241E-1,9.799671478E0,-1.664688263E0,9.944733371E0
7.746212500E0,-5.849835205E-1,1.003198837E1,-1.473386078E0,1.015646902E1
7.756245500E0,-1.071771240E0,1.010503647E1,-1.294957123E0,1.024389426E1
7.766277500E0,-1.235979767E0,9.924811249E0,-1.366807709E0,1.009443845E1
7.776310500E0,-1.344953156E0,9.797426147E0,-1.639091492E0,1.002422461E1
7.786343500E0,-1.190324707E0,9.542206879E0,-2.022893372E0,9.826631295E0
7.796375500E0,-8.723858643E-1,9.265133057E0,-2.349963226E0,9.598232901E0
7.806408500E0,-5.944139099E-1,9.283245392E0,-2.627635803E0,9.666252780E0
7.816441500E0,-2.186952209E-1,9.489666138E0,-2.705174561E0,9.870134772E0
7.826473500E0,6.092330933E-2,9.753118286E0,-2.591261444E0,1.009166309E1
7.836506500E0,3.110531616E-1,1.002824615E1,-2.563868408E0,1.035547663E1
7.846539500E0,5.846841431E-1,1.027598099E1,-2.583926697E0,1.061198935E1
7.856572500E0,7.801776123E-1,1.063448547E1,-2.548151093E0,1.096330390E1
7.866604500E0,6.722520447E-1,1.140777740E1,-2.544259186E0,1.170737216E1
7.876637500E0,8.415499878E-1,1.203632034E1,-2.386487274E0,1.229945264E1
7.886670500E0,9.166937256E-1,1.257924133E1,-2.267185364E0,1.281474812E1
7.896702500E0,2.935395813E-1,1.270363266E1,-2.468516693E0,1.294457504E1
7.906735500E0,-7.044351196E-1,1.208945984E1,-2.840044098E0,1.243853362E1
7.916768500E0,-9.138496399E-1,1.101155136E1,-2.885399780E0,1.141993505E1
7.926800500E0,-7.231462097E-1,9.880503387E0,-2.757715302E0,1.028359282E1
7.936833500E0,-5.289999390E-1,8.845106506E0,-3.142115936E0,9.401523419E0
7.946866500E0,2.490820312E-1,7.957452393E0,-3.655548248E0,8.760486484E0
7.956898500E0,1.394350433E0,7.531737671E0,-4.034560089E0,8.657306774E0
7.966931500E0,2.511926422E0,7.708070984E0,-4.406686249E0,9.227297347E0
7.976964500E0,3.760779419E0,7.777676239E0,-4.689448242E0,9.829884757E0
7.986996500E0,4.794829102E0,7.793842621E0,-5.216651917E0,1.053317740E1
7.997029500E0,5.266797638E0,7.983947296E0,-6.054309998E0,1.131977214E1
8.007062500E0,5.261408844E0,7.918084259E0,-6.523135071E0,1.152951744E1
8.017095500E0,4.671635284E0,7.661667480E0,-6.578370209E0,1.112655739E1
8.027127500E0,3.704197083E0,7.864795074E0,-6.522985382E0,1.086855169E1
8.037160500E0,3.221301270E0,8.205037537E0,-5.662724304E0,1.047692080E1
8.047193500E0,2.777025146E0,8.426726532E0,-4.006867676E0,9.735326254E0
8.057225500E0,2.413131866E0,8.541687469E0,-2.919229431E0,9.343742864E0
8.067258500E0,2.309098206E0,8.686286774E0,-2.528841248E0,9.336945458E0
8.077291500E0,2.435884552E0,8.722511444E0,-2.182162170E0,9.315447986E0
8.087323500E0,2.647245026E0,8.997789001E0,-2.117047577E0,9.615092490E0
8.097356500E0,2.526296539E0,9.263636169E0,-2.161056061E0,9.842118298E0
8.107389500E0,2.497107239E0,9.303453369E0,-2.239792328E0,9.889714800E0
8.117421500E0,2.490221558E0,9.250762939E0,-2.307900696E0,9.854147553E0
8.127454500E0,2.427801361E0,9.108109589E0,-2.359393616E0,9.716924306E0
8.137487500E0,2.336491241E0,8.866511993E0,-2.299518127E0,9.453148146E0
8.147519500E0,2.233655090E0,8.441396027E0,-2.149679718E0,8.992636145E0
8.157552500E0,1.990560608E0,7.961643677E0,-2.061812439E0,8.461747580E0
8.167585500E0,1.829046478E0,7.600893860E0,-1.870360565E0,8.038485376E0
8.177618500E0,1.927541656E0,7.059469757E0,-1.578766937E0,7.486256416E0
8.187650500E0,1.809437256E0,6.408623199E0,-1.346300354E0,6.793897198E0
8.197683500E0,1.506467285E0,5.554649048E0,-1.305135956E0,5.901436231E0
8.207716500E0,1.192570038E0,4.521647186E0,-1.301543427E0,4.854022236E0
8.217748500E0,1.125659180E0,4.026476898E0,-1.368304596E0,4.399077434E0
8.227781500E0,9.379495239E-1,3.978426819E0,-1.624721375E0,4.398562130E0
8.237814500E0,8.821156311E-1,4.351600800E0,-1.780996399E0,4.783984289E0
8.247846500E0,1.210832062E0,5.213957520E0,-1.743125153E0,5.629382968E0
8.257879500E0,1.372645569E0,5.690117340E0,-1.835183716E0,6.134288098E0
8.267912500E0,1.742825775E0,6.130202179E0,-2.277513885E0,6.767857116E0
8.277944500E0,1.414109344E0,6.081553345E0,-3.155138855E0,6.995705648E0
8.287977500E0,7.194039917E-1,6.490353241E0,-3.241658936E0,7.290444427E0
8.298010500E0,3.701802063E-1,6.743776245E0,-2.706222382E0,7.275932312E0
8.308042917E0,-1.544787598E-1,6.934779053E0,-2.073338470E0,7.239734568E0
8.318075917E0,-6.768923950E-1,7.257208557E0,-2.499801636E0,7.705469978E0
8.328108917E0,-1.436562653E0,7.982300720E0,-3.330873413E0,8.767870593E0
8.338141917E0,-2.194736023E0,8.702004089E0,-3.732937317E0,9.719905472E0
8.348173917E0,-2.310744781E0,8.927734680E0,-3.448079681E0,9.845468067E0
8.358206917E0,-1.212628326E0,8.712033234E0,-3.448229370E0,9.447765678E0
8.368239917E0,4.128414917E-1,8.056097260E0,-4.460723877E0,9.217873869E0
8.378271917E0,2.041155396E0,7.050638123E0,-5.432802429E0,9.131985300E0
8.388304917E0,4.291575623E0,6.691385193E0,-6.046675873E0,9.987719772E0
8.398337917E0,5.651647339E0,6.931635590E0,-6.985373840E0,1.134830989E1
8.408369917E0,5.968388672E0,7.710016937E0,-7.679480438E0,1.241130309E1
8.418402917E0,5.235363007E0,8.885223083E0,-7.742050323E0,1.289556351E1
8.428435917E0,4.822371826E0,1.103580093E1,-6.705755310E0,1.378445960E1
8.438467917E0,3.455713806E0,1.313279022E1,-6.973548431E0,1.526573007E1
8.448500917E0,1.406624908E0,1.515957550E1,-7.658524017E0,1.704242686E1
8.458533917E0,-1.895059204E-1,1.685060898E1,-7.975864105E0,1.864385539E1
8.468565917E0,-1.335672455E0,1.810799423E1,-9.001531219E0,2.026600701E1
8.478598917E0,-1.859582977E0,1.856589203E1,-1.025592270E1,2.129164968E1
8.488631917E0,-2.112257538E0,1.862442032E1,-1.143936172E1,2.195881738E1
8.498664917E0,-2.132914581E0,1.927915878E1,-1.280212784E1,2.324069201E1
8.508696917E0,-1.916015625E0,2.070883575E1,-1.358080856E1,2.483878732E1
8.518729917E0,-1.445244598E0,2.314307373E1,-1.434481979E1,2.726654449E1
8.528762917E0,-9.536668396E-1,2.577984055E1,-1.577120361E1,3.023641054E1
8.538794917E0,-1.115480347E0,2.713467316E1,-1.727048584E1,3.218391625E1
8.548827917E0,-1.211730194E0,2.872960648E1,-1.751133499E1,3.366757240E1
8.558860917E0,-1.907932434E0,2.922597427E1,-1.734907242E1,3.404097666E1
8.568892917E0,-1.982627106E0,2.906760361E1,-1.578347809E1,3.313569933E1
8.578925917E0,-1.262923737E0,2.799418579E1,-1.298923874E1,3.088672429E1
8.588958917E0,-1.865121460E-1,2.654385178E1,-9.922266541E0,2.833835258E1
8.598990917E0,6.496490479E-1,2.456646378E1,-6.678511963E0,2.546636425E1
8.609023917E0,1.040186920E0,2.175336365E1,-3.596271515E0,2.207315083E1
8.619056917E0,3.755690002E-1,1.837848175E1,-1.665137329E0,1.845758180E1
8.629088917E0,-1.117276611E0,1.459884155E1,-3.565585327E-1,1.464587367E1
8.639121917E0,-2.419269104E0,1.091530151E1,5.269042969E-1,1.119260016E1
8.649154917E0,-2.719544678E0,7.375762024E0,1.066382446E0,7.933155754E0
8.659187917E0,-2.542762299E0,4.233795776E0,1.156495056E0,5.072292144E0
8.669219917E0,-2.372266846E0,1.116977234E0,1.066382446E0,2.830628844E0
8.679252917E0,-2.017803955E0,-1.958227844E0,8.669970703E-1,2.942426382E0
8.689285917E0,-1.619631958E0,-4.740641785E0,5.754034424E-1,5.042616516E0
8.699317917E0,-1.466650085E0,-7.337292023E0,6.762936401E-1,7.512941487E0
8.709350917E0,-1.272803192E0,-9.472302246E0,1.545835419E0,9.681639580E0
8.719383917E0,-9.834548950E-1,-1.114178055E1,3.069367218E0,1.159859786E1
8.729415917E0,-3.821553040E-1,-1.216969299E1,6.936575317E0,1.401297782E1
8.739448917E0,9.216334534E-1,-1.182765427E1,1.012644196E1,1.559768061E1
8.749481917E0,2.986888733E0,-9.366622009E0,8.643625488E0,1.309073618E1
8.759513917E0,4.344415741E0,-6.351442108E0,5.823340302E0,9.650184312E0
8.769546917E0,4.406087494E0,-3.948638763E0,1.911974030E0,6.217797020E0
8.779579917E0,2.983146515E0,-1.982477417E0,-1.632954254E0,3.936485671E0
8.789611917E0,1.489103394E0,2.065704346E-2,-3.372486877E0,3.686668329E0
8.799644917E0,2.788700867E-1,2.157313843E0,-4.072431335E0,4.616976123E0
8.809677917E0,-6.195616150E-1,4.004023590E0,-3.839964752E0,5.582238870E0
8.819709917E0,-1.052012329E0,5.217250671E0,-3.041974182E0,6.130256229E0
8.829742917E0,-5.436694336E-1,5.316194916E0,-2.114502869E0,5.747053786E0
8.839775917E0,4.074526978E-1,4.719835052E0,-1.213077393E0,4.890236946E0
8.849808917E0,6.855743408E-1,4.815186768E0,-5.522016907E-1,4.894993615E0
8.859840917E0,1.016685791E0,4.477638702E0,2.429447937E-1,4.598034419E0
8.869873917E0,1.156195679E0,3.726201324E0,8.312214661E-1,3.989021670E0
8.879906917E0,6.081852722E-1,3.121907959E0,1.047222290E0,3.348562849E0
8.889938917E0,-3.263214111E-2,2.615061951E0,1.241069183E0,2.894799921E0
8.899971917E0,-6.304888916E-1,1.828148346E0,1.409918060E0,2.393222003E0
8.910004917E0,-1.119671631E0,1.203796692E0,1.359772339E0,2.133488188E0
8.920036917E0,-1.090482330E0,5.068460083E-1,1.133742371E0,1.652699716E0
8.930069917E0,-6.017486572E-1,-3.246748352E-1,1.034199371E0,1.239791730E0
8.940102917E0,5.613327026E-2,-1.357227631E0,1.011147308E0,1.693409775E0
8.950134917E0,8.069718933E-1,-2.466570740E0,8.680448914E-1,2.736544680E0
8.960167917E0,1.254990234E0,-3.510649567E0,7.795788574E-1,3.808858630E0
8.970200917E0,1.282832336E0,-4.256249084E0,7.005432129E-1,4.500230646E0
8.980232917E0,9.349557495E-1,-4.585863647E0,8.545729065E-1,4.757581581E0
8.990265917E0,6.454577637E-1,-4.721182251E0,1.074166260E0,4.884670995E0
9.000298917E0,1.118773499E0,-4.477788391E0,1.017434235E0,4.726247501E0
9.010331917E0,1.006357269E0,-4.381837921E0,1.524429932E0,4.747330317E0
9.020363917E0,7.918533325E-1,-4.153862000E0,2.158361664E0,4.747644288E0
9.030396917E0,1.072220306E0,-4.151616669E0,3.279530182E0,5.398230781E0
9.040429917E0,1.341210938E0,-4.577630768E0,4.727768555E0,6.716051350E0
9.050461917E0,1.373394012E0,-5.410798187E0,3.694167938E0,6.694014109E0
9.060494917E0,7.391629028E-1,-5.183720398E0,-1.676064606E0,5.497864269E0
9.070527917E0,-1.805695038E0,-3.149300995E0,-7.244035950E0,8.102758059E0
9.080559917E0,-5.573060760E0,3.863765259E0,-1.543500275E1,1.685903313E1
9.090592917E0,-7.896678772E0,1.566761902E1,-2.584959549E1,3.124153339E1
9.100625917E0,-6.265221405E0,3.030478088E1,-2.929004105E1,4.260914512E1
9.110657917E0,1.661544800E-1,6.221587143E1,-2.050121750E1,6.550681021E1
9.120690917E0,1.220442078E1,7.961823303E1,-9.382039948E0,8.109274685E1
9.130723917E0,4.951403503E0,5.849371170E1,5.295986938E-1,5.870529090E1
9.140755917E0,-1.756297760E0,2.084954315E1,-3.546874237E0,2.122188371E1
9.150788917E0,-4.800816650E0,7.372618561E0,-1.614797012E1,1.838913495E1
9.160821917E0,-8.049810333E0,7.822283478E0,-1.329011307E1,1.739582337E1
9.170854917E0,1.011895752E0,1.582119965E1,-1.021116577E1,1.885741758E1
9.180886917E0,3.300486603E0,2.339904144E1,-1.391850632E1,2.742504641E1
9.190919917E0,6.536906433E-1,2.404225388E1,-1.699176544E1,2.944787557E1
9.200952917E0,2.342628479E-1,1.979453705E1,-1.647608780E1,2.575538866E1
9.210984917E0,2.748284912E-1,1.574440933E1,-1.365999390E1,2.084604013E1
9.221017917E0,1.244811401E0,1.226339813E1,-1.189471481E1,1.712964476E1
9.231050917E0,1.435514832E0,1.140867554E1,-9.503287811E0,1.491747497E1
9.241082917E0,4.721182251E-1,1.280467255E1,-5.869893494E0,1.409390593E1
9.251115917E0,3.252735901E-1,1.323053696E1,-3.021017761E0,1.357495707E1
9.261148917E0,1.165626068E0,1.225890747E1,-2.282752991E0,1.252399528E1
9.271180917E0,1.948198700E0,1.037552399E1,-2.978206787E0,1.096889656E1
9.281213917E0,1.620230713E0,8.177045746E0,-3.744014282E0,9.138209214E0
9.291246917E0,9.267228699E-1,6.461014252E0,-4.070635071E0,7.692437216E0
9.301278500E0,9.012757874E-1,5.469326477E0,-3.232228546E0,6.416629297E0
9.311311500E0,5.557942200E-1,5.159021759E0,-1.880838776E0,5.519236109E0
9.321344500E0,-7.379653931E-2,5.294789429E0,-7.683522034E-1,5.350757529E0
9.331377500E0,-8.665480042E-1,5.811514893E0,3.891906738E-3,5.875765987E0
9.341409500E0,-1.389859772E0,6.253395996E0,8.352630615E-2,6.406531691E0
9.351442500E0,-1.430425415E0,6.587650909E0,-1.514849854E-1,6.742863566E0
9.361475500E0,-9.632469177E-1,6.650071106E0,-9.430389404E-1,6.785323337E0
9.371507500E0,-1.408570862E-1,6.030060425E0,-2.376907196E0,6.483144088E0
9.381540500E0,5.388793945E-1,5.022505646E0,-3.911815338E0,6.388916434E0
9.391573500E0,1.472338257E0,3.259022827E0,-4.467609558E0,5.722634437E0
9.401605500E0,2.217339020E0,1.350192261E0,-4.319118347E0,5.039285144E0
9.411638500E0,3.023712158E0,-2.399510193E-1,-4.123026123E0,5.118569734E0
9.421671500E0,2.926863556E0,-1.313967590E0,-4.303999786E0,5.368189198E0
9.431703500E0,2.268382874E0,-2.032623138E0,-4.318070526E0,5.284207675E0
9.441736500E0,1.270557861E0,-2.148931274E0,-3.734284515E0,4.491893113E0
9.451769500E0,4.122427368E-1,-1.870959320E0,-3.460054779E0,3.955048916E0
9.461801500E0,2.558180237E-1,-1.225052490E0,-3.916006622E0,4.111119596E0
9.471834500E0,1.332229614E-2,-1.519340515E-1,-4.502487030E0,4.505069466E0
9.481867500E0,-4.373904419E-1,1.272653503E0,-4.553830261E0,4.748507912E0
9.491899500E0,-8.593629456E-1,3.251987457E0,-3.973786469E0,5.206237220E0
9.501932500E0,-1.527723083E0,5.807173920E0,-3.336112518E0,6.869268774E0
9.511965500E0,-2.169139252E0,9.478140106E0,-3.709136810E0,1.040663254E1
9.521998500E0,-2.331850891E0,1.382225647E1,-5.832022247E0,1.518238407E1
9.532030500E0,-1.487756195E0,1.814332077E1,-1.005533981E1,2.079671527E1
9.542063500E0,6.462062073E-1,2.204929825E1,-1.404708893E1,2.615166999E1
9.552096500E0,3.168760529E0,2.425181808E1,-1.638313110E1,2.943804865E1
9.562128500E0,4.133204956E0,2.418550598E1,-1.640049500E1,2.951268065E1
9.572161500E0,4.233496399E0,2.413401306E1,-1.421129745E1,2.832550182E1
9.582194500E0,4.524640961E0,2.588462265E1,-1.244467117E1,2.907500484E1
9.592226500E0,4.497547302E0,2.890848450E1,-1.344159805E1,3.219635019E1
9.602259500E0,3.541934509E0,3.188729004E1,-1.567645065E1,3.570848178E1
9.612292500E0,1.961970062E0,3.321128677E1,-1.739397903E1,3.754183536E1
9.622324500E0,4.044589233E-1,3.270174637E1,-1.795546143E1,3.730906589E1
9.632357500E0,-7.406597900E-1,3.099604340E1,-1.652279068E1,3.513268983E1
9.642390500E0,-1.019679565E0,2.871493698E1,-1.384485947E1,3.189463099E1
9.652422500E0,-4.418811035E-1,2.644760193E1,-1.087353836E1,2.859903396E1
9.662455500E0,9.523196411E-1,2.415287384E1,-8.075407104E0,2.548490587E1
9.672488500E0,2.397264862E0,2.146461411E1,-5.448070679E0,2.227460463E1
9.682521500E0,2.792592773E0,1.766910690E1,-2.863844604E0,1.811622254E1
9.692553500E0,1.652713165E0,1.341136093E1,-1.020877075E0,1.355131923E1
9.702586500E0,-1.002914429E-2,9.434880066E0,-6.318360901E-1,9.456018152E0
9.712619500E0,-9.662406921E-1,5.739215240E0,-1.043929138E0,5.912867384E0
9.722651500E0,-1.254990234E0,2.119592285E0,-1.705253906E0,2.995924370E0
9.732684500E0,-1.939067688E0,-1.145418091E0,-2.246528320E0,3.181014869E0
9.742717500E0,-2.956352234E0,-4.035757599E0,-1.990859985E0,5.384318101E0
9.752749500E0,-3.441493378E0,-6.655160522E0,-5.502557373E-1,7.512510874E0
9.762782500E0,-3.609294434E0,-9.137598267E0,1.434766388E0,9.928809746E0
9.772815500E0,-3.387904816E0,-1.125823837E1,2.841091919E0,1.209535587E1
9.782847500E0,-2.977757721E0,-1.288655228E1,5.254822540E0,1.423177538E1
9.792880500E0,-2.765050049E0,-1.415052383E1,9.221573639E0,1.711491300E1
9.802913500E0,-6.357279968E-1,-1.299537598E1,1.092248657E1,1.698777972E1
9.812945500E0,2.648741913E0,-8.709638214E0,8.756191406E0,1.263109336E1
9.822978500E0,4.750072174E0,-5.592220917E0,3.505709839E0,8.131796967E0
9.833011500E0,4.304149475E0,-3.566483459E0,-8.689430237E-1,5.656904538E0
9.843043500E0,2.437531128E0,-1.235680389E0,-3.357218628E0,4.328900662E0
9.853076500E0,9.783654785E-1,8.943901062E-1,-4.063599701E0,4.274339154E0
9.863109500E0,8.083190918E-2,2.697540436E0,-3.416645050E0,4.353931740E0
9.873142500E0,-3.586541748E-1,4.638554077E0,-2.715353394E0,5.386832167E0
9.883174500E0,-4.725672913E-1,6.247857513E0,-2.228565674E0,6.650229193E0
9.893207500E0,1.585203552E-1,6.705006866E0,-1.604513397E0,6.896137254E0
9.903240500E0,1.301842804E0,6.929090881E0,-1.039438477E0,7.126536850E0
9.913272500E0,2.204316101E0,7.211403809E0,-2.203417969E-1,7.543997937E0
9.923305500E0,2.434537354E0,7.298522644E0,6.586303711E-1,7.721994488E0
9.933338500E0,2.033521271E0,6.959028625E0,1.122366028E0,7.336415587E0
9.943370500E0,9.412426758E-1,5.514083405E0,7.170089722E-1,5.639605964E0
9.953403500E0,1.841171265E-2,3.953578491E0,1.269360352E-1,3.955658559E0
9.963436500E0,-8.608598328E-1,2.548749847E0,-7.798782349E-2,2.691335642E0
9.973468500E0,-1.324296112E0,1.098266144E0,-1.772314453E-1,1.729554769E0
9.983501500E0,-1.066681824E0,-4.158352661E-1,3.547622681E-2,1.145420292E0
9.993534500E0,-6.342311096E-1,-1.750609589E0,4.819976807E-2,1.862580535E0
1.000356650E1,-2.829116821E-1,-2.745740204E0,4.005670166E-1,2.789190245E0
1.001359950E1,2.109114075E-1,-3.672313385E0,1.067130890E0,3.830031012E0
1.002363250E1,8.226892090E-1,-4.431684265E0,1.829794922E0,4.864647204E0
1.003366550E1,1.582808533E0,-4.950056305E0,2.334245911E0,5.697108411E0
1.004369750E1,2.058968353E0,-5.036576385E0,2.293530579E0,5.904806083E0
1.005373050E1,2.064656525E0,-4.747826843E0,2.139949951E0,5.602147097E0
1.006376350E1,1.692979431E0,-4.529580688E0,2.443219299E0,5.417804086E0
1.007379550E1,1.392105103E0,-3.844455414E0,2.467019806E0,4.775351376E0
1.008382850E1,9.166937256E-1,-3.293301544E0,2.545905762E0,4.262370068E0
1.009386150E1,-5.897735596E-2,-3.085383911E0,2.897973633E0,4.233358405E0
1.010389350E1,-7.077282715E-1,-2.947370911E0,3.222648468E0,4.424176504E0
1.011392650E1,-8.479866028E-1,-3.090323639E0,2.760559387E0,4.229641782E0
1.012395950E1,-1.270258484E0,-3.292702789E0,8.306227112E-1,3.625656129E0
1.013399150E1,-3.068169708E0,-1.833387451E0,-3.748654633E0,5.179516045E0
1.014402450E1,-5.873336334E0,2.345771942E0,-1.168395309E1,1.328583778E1
1.015405750E1,-9.259744263E0,1.034708313E1,-1.925939987E1,2.374298794E1
1.016408950E1,-9.558822327E0,2.046214874E1,-1.903711212E1,2.953781057E1
1.017412250E1,-2.385738831E0,3.877446808E1,-1.103295685E1,4.038412140E1
1.018415550E1,5.817951508E0,7.567558182E1,3.787124634E-1,7.589983970E1
1.019418850E1,6.417155457E0,6.766349304E1,-7.949069824E0,6.843037254E1
1.020422050E1,5.754932556E0,1.812146622E1,-1.401984558E1,2.362335405E1
1.021425350E1,2.148332520E0,-6.633156281E0,-9.848769379E0,1.206699437E1
1.022428650E1,3.874842224E0,-3.901486816E0,-9.745334473E0,1.118961776E1
1.023431850E1,8.358318787E0,7.453151093E0,-9.493857422E0,1.468142646E1
1.024435150E1,6.842421112E0,1.555250839E1,-1.619646927E1,2.347391873E1
1.025438450E1,1.103355560E0,1.898202667E1,-1.856304794E1,2.657294637E1
1.026441650E1,-3.973337402E0,1.905163193E1,-1.674073746E1,2.567108061E1
1.027444950E1,-8.115972748E0,1.786325317E1,-1.354458389E1,2.384157252E1
1.028448250E1,-8.918004913E0,1.674492874E1,-1.099239120E1,2.192615139E1
1.029451450E1,-5.927972717E0,1.601998627E1,-9.882149963E0,1.973417615E1
1.030454813E1,-4.899311829E-1,1.528935562E1,-9.334139557E0,1.792011688E1
1.031458112E1,3.966751099E0,1.498788254E1,-1.047791107E1,1.871251874E1
1.032461313E1,6.394253082E0,1.543320648E1,-1.209275299E1,2.062292437E1
1.033464613E1,6.428681488E0,1.583482132E1,-1.196192505E1,2.086042096E1
1.034467912E1,4.402794342E0,1.496183670E1,-1.181597855E1,1.956677041E1
1.035471213E1,2.903661804E0,1.508053986E1,-1.254945328E1,1.983286948E1
1.036474412E1,1.852996674E0,1.635977966E1,-1.273416916E1,2.081429921E1
1.037477713E1,8.690927124E-1,1.778212189E1,-1.207464066E1,2.151176720E1
1.038481013E1,2.915936279E-1,1.931807785E1,-1.115270782E1,2.230820590E1
1.039484212E1,-3.936813354E-2,2.093441666E1,-1.130898285E1,2.379379002E1
1.040487513E1,-2.469863892E-2,2.234583160E1,-1.254660919E1,2.562721605E1
1.041490812E1,7.574249268E-2,2.282812866E1,-1.356015152E1,2.655196611E1
1.042494013E1,-3.128494263E-2,2.260838562E1,-1.398137558E1,2.658230506E1
1.043497313E1,-7.396119690E-1,2.232712051E1,-1.338082443E1,2.604023423E1
1.044500612E1,-1.325044556E0,2.173629913E1,-1.172661438E1,2.473329594E1
1.045503813E1,-9.809101868E-1,2.086017105E1,-1.002435425E1,2.316455480E1
1.046507112E1,3.861968994E-2,2.003957748E1,-8.473579102E0,2.175747458E1
1.047510413E1,8.592132568E-1,1.896840500E1,-6.898554382E0,2.020219513E1
1.048513613E1,9.184899902E-1,1.736673569E1,-5.333409119E0,1.819044763E1
1.049516912E1,3.869453430E-1,1.517484375E1,-3.748504944E0,1.563575706E1
1.050520213E1,-2.544708252E-1,1.255633896E1,-2.543211365E0,1.281383344E1
1.051523512E1,-5.303471375E-1,9.457483063E0,-1.479822693E0,9.587237828E0
1.052526713E1,-7.658074951E-1,6.300098877E0,-8.783734131E-1,6.406968615E0
1.053530013E1,-1.287921753E0,3.295546875E0,-7.608677673E-1,3.619156173E0
1.054533312E1,-1.688189392E0,3.805087280E-1,-7.403604126E-1,1.882260305E0
1.055536513E1,-1.928888855E0,-2.461032257E0,-6.863227844E-1,3.201301446E0
1.056539812E1,-2.444865875E0,-4.946463776E0,7.170089722E-2,5.518153138E0
1.057543113E1,-2.868185577E0,-6.953190765E0,9.993218994E-1,7.587621141E0
1.058546313E1,-2.519710236E0,-8.436306610E0,2.078427887E0,9.046550247E0
1.059549612E1,-1.943408661E0,-9.399852905E0,3.614832916E0,1.025675821E1
1.060552913E1,-1.742676086E0,-9.612710266E0,5.570066986E0,1.124574430E1
1.061556112E1,-1.156644745E0,-8.654552765E0,7.543413391E0,1.153872594E1
1.062559413E1,1.252744904E0,-6.439010010E0,8.549770660E0,1.077630725E1
1.063562713E1,3.883673859E0,-4.171525269E0,6.543193359E0,8.677437700E0
1.064565912E1,4.324207764E0,-2.956352234E0,3.088527374E0,6.080936824E0
1.065569213E1,3.069367218E0,-1.840572510E0,2.859054565E-1,3.590329262E0
1.066572512E1,1.589843903E0,-4.956193542E-1,-1.362167358E0,2.151451159E0
1.067575713E1,7.191046143E-1,1.012045441E0,-1.833088074E0,2.213946545E0
1.068579013E1,6.750961304E-2,2.620450745E0,-1.703307953E0,3.126112224E0
1.069582312E1,1.107696533E-1,4.056714020E0,-1.557062073E0,4.346681591E0
1.070585613E1,1.037791901E0,4.735252991E0,-1.360670471E0,5.034983321E0
1.071588812E1,1.895358582E0,4.781955872E0,-1.156345367E0,5.272250062E0
1.072592113E1,2.091450806E0,4.700824585E0,-1.095721436E0,5.260468013E0
1.073595413E1,1.483115845E0,4.336332550E0,-1.082997894E0,4.709171587E0
1.074598612E1,3.519181824E-1,3.887715454E0,-1.135388947E0,4.065376479E0
1.075601913E1,-6.218069458E-1,3.467389526E0,-1.003962250E0,3.662973410E0
1.076605212E1,-1.338666229E0,2.736309814E0,-5.194198608E-1,3.090180523E0
1.077608413E1,-2.007625122E0,1.948348389E0,-2.100132751E-1,2.805481358E0
1.078611713E1,-2.174078979E0,1.189127197E0,-4.864883423E-2,2.478509554E0
1.079615012E1,-1.845811615E0,3.213816833E-1,3.064128113E-1,1.898471890E0
1.080618213E1,-1.483415222E0,-5.872288513E-1,9.142987061E-1,1.838831305E0
1.081621512E1,-1.118773499E0,-1.405128021E0,1.463356934E0,2.316776297E0
1.082624813E1,-4.101470947E-1,-2.312990112E0,1.859732666E0,2.996122409E0
1.083628013E1,4.604425049E-1,-3.288661194E0,2.017205200E0,3.885410733E0
1.084631312E1,1.150507507E0,-4.324357452E0,1.566043396E0,4.740909915E0
1.085634613E1,1.640738068E0,-4.925956421E0,7.884104919E-1,5.251538743E0
1.086637913E1,1.996398468E0,-5.210664368E0,6.592291260E-1,5.618826660E0
1.087641113E1,2.228116608E0,-5.176685028E0,1.044976959E0,5.731888724E0
1.088644413E1,2.040856018E0,-4.998555450E0,1.497036896E0,5.602835831E0
1.089647712E1,1.635349274E0,-4.578977966E0,1.679657135E0,5.144186481E0
1.090650913E1,8.547225952E-1,-4.063749390E0,1.957030334E0,4.590705561E0
1.091654212E1,-2.939886475E-1,-3.895199890E0,1.687141571E0,4.255050903E0
1.092657512E1,-1.330133972E0,-3.464545441E0,-4.355941772E-1,3.736585846E0
1.093660713E1,-2.227667542E0,-1.378633118E0,-4.904850311E0,5.560637421E0
1.094664012E1,-3.433709564E0,2.569107513E0,-1.075229050E1,1.157594168E1
1.095667313E1,-4.921166382E0,8.533753967E0,-1.485196518E1,1.782200059E1
1.096670512E1,-5.638025665E0,1.745909363E1,-1.674028839E1,2.483635519E1
1.097673813E1,-1.614991608E0,3.584730515E1,-1.892409714E1,4.056795455E1
1.098677113E1,1.920206909E0,7.420638702E1,-8.588540039E0,7.472642163E1
1.099680312E1,1.813778229E0,7.483118774E1,8.605454865E0,7.534620298E1
1.100683613E1,-9.626182251E0,3.386827057E1,5.179229736E-1,3.521351133E1
1.101686913E1,-1.218840408E1,2.136207733E0,-1.152633087E1,1.691085098E1
1.102690113E1,-4.345463562E-1,-6.811136169E0,-2.024045975E1,2.136016426E1
1.103693413E1,4.673581238E0,1.024918671E0,-1.574216400E1,1.645322301E1
1.104696712E1,7.054979095E0,1.027643005E1,-1.658281586E1,2.074530131E1
1.105700013E1,9.177565155E0,9.527387695E0,-2.046753754E1,2.437045160E1
1.106703212E1,6.309978333E0,9.131760406E0,-1.852203323E1,2.159329965E1
1.107706512E1,4.571343842E0,1.193438232E1,-1.376477600E1,1.878285719E1
1.108709813E1,3.320245514E0,1.614826950E1,-1.099508560E1,1.981621925E1
1.109713012E1,9.541159058E-1,2.137375305E1,-9.253756714E0,2.331050557E1
1.110716313E1,-1.314865723E0,2.779734512E1,-8.415350189E0,2.907300099E1
1.111719613E1,-2.783162384E0,3.123464722E1,-9.489067383E0,3.276265526E1
1.112722813E1,-8.427474976E-1,2.484009476E1,-1.203317688E1,2.761408837E1
1.113726113E1,1.027164001E0,1.711855179E1,-1.439272018E1,2.238861933E1
1.114729412E1,2.449506226E0,1.335941895E1,-1.574126587E1,2.079090201E1
1.115732613E1,2.412982178E0,1.323368042E1,-1.703622299E1,2.170681170E1
1.116735913E1,1.242566071E0,1.520014114E1,-1.735670654E1,2.310505406E1
1.117739212E1,3.480262756E-1,1.796803528E1,-1.596999023E1,2.404188017E1
1.118742413E1,-2.856060791E-1,2.096091156E1,-1.454240891E1,2.551319347E1
1.119745712E1,-1.081501007E0,2.331820953E1,-1.468700821E1,2.757928118E1
1.120749013E1,-1.838476868E0,2.313633774E1,-1.575024719E1,2.804889316E1
1.121752313E1,-1.625020752E0,2.120086258E1,-1.674358154E1,2.706408671E1
1.122755513E1,-7.135661316E-1,1.982387604E1,-1.627939682E1,2.566152760E1
1.123758813E1,6.024971008E-1,1.989916946E1,-1.438343948E1,2.456060422E1
1.124762112E1,1.983225861E0,2.066871918E1,-1.137439682E1,2.367500877E1
1.125765313E1,2.352807312E0,2.072545120E1,-8.236771545E0,2.242597680E1
1.126768613E1,1.774859161E0,1.950952972E1,-6.124214630E0,2.052505493E1
1.127771912E1,8.376580811E-1,1.724713440E1,-4.352648621E0,1.780760697E1
1.128775113E1,-1.745370483E-1,1.448867065E1,-2.422113190E0,1.469076829E1
1.129778412E1,-1.498084717E0,1.147902924E1,-1.175954590E0,1.163594600E1
1.130781692E1,-2.411036224E0,8.219856720E0,-1.119372253E0,8.638989201E0
1.131784892E1,-2.499053192E0,4.800367584E0,-1.762584686E0,5.691704541E0
1.132788192E1,-2.417622528E0,1.291214905E0,-2.563868408E0,3.753072852E0
1.133791492E1,-2.609523468E0,-2.229014740E0,-2.763553162E0,4.406284775E0
1.134794692E1,-2.786904602E0,-5.683680725E0,-1.958377533E0,6.626183397E0
1.135797992E1,-2.962639160E0,-8.779692535E0,-3.556604004E-1,9.272902789E0
1.136801292E1,-2.821482697E0,-1.151809799E1,1.156345367E0,1.191488483E1
1.137804492E1,-2.147434387E0,-1.368394409E1,2.729424133E0,1.411777449E1
1.138807792E1,-1.874102783E0,-1.522469009E1,5.281467133E0,1.622335800E1
1.139811092E1,-1.408870239E0,-1.555789719E1,1.011102402E1,1.860822095E1
1.140814392E1,1.902992706E0,-1.293819489E1,1.268836441E1,1.822122003E1
1.141817592E1,5.876330109E0,-8.182284851E0,8.408763885E0,1.312205590E1
1.142820892E1,7.304809570E0,-4.997956696E0,2.404749298E0,9.171839138E0
1.143824192E1,6.018684082E0,-2.117197266E0,-7.201524353E-1,6.420724404E0
1.144827392E1,3.762575684E0,5.063969421E-1,-1.951940918E0,4.268897631E0
1.145830692E1,2.064357147E0,2.896327057E0,-2.952310638E0,4.622382390E0
1.146833992E1,9.327104187E-1,5.165158997E0,-3.356919250E0,6.230387070E0
1.147837192E1,3.390449524E-1,6.690636749E0,-3.353925476E0,7.491888126E0
1.148840492E1,2.676434326E-1,6.324198761E0,-3.279380493E0,7.128917126E0
1.149843792E1,5.266049194E-1,5.180127869E0,-2.857108612E0,5.939200880E0
1.150846992E1,6.902146912E-1,4.198469238E0,-2.159259796E0,4.771367009E0
1.151850292E1,2.680924988E-1,3.877386932E0,-1.543590088E0,4.181946122E0
1.152853592E1,-3.405418396E-1,3.685935059E0,-1.207688599E0,3.893661227E0
1.153856792E1,-1.389111328E0,3.593427429E0,-1.013692017E0,3.983707127E0
1.154860092E1,-3.256927185E0,3.611839142E0,-4.730163574E-1,4.886379145E0
1.155863392E1,-4.512366486E0,2.871927795E0,3.628454590E-1,5.361070545E0
1.156866692E1,-4.377347260E0,1.670975189E0,9.491761780E-1,4.780613196E0
1.157869892E1,-4.039799194E0,7.444020081E-1,1.248703308E0,4.293410280E0
1.158873192E1,-3.607049103E0,-1.064286804E-1,1.609153748E0,3.951139845E0
1.159876492E1,-2.959046631E0,-8.771759033E-1,1.790426788E0,3.568055859E0
1.160879692E1,-1.888472900E0,-1.372346191E0,1.743424530E0,2.913621982E0
1.161882992E1,-6.415658569E-1,-1.925146637E0,2.035916290E0,2.874500211E0
1.162886292E1,2.984793091E-1,-2.308349762E0,2.361938324E0,3.316070139E0
1.163889492E1,9.526190186E-1,-2.161056061E0,2.539020081E0,3.467602812E0
1.164892792E1,1.617835693E0,-1.585203552E0,2.674338684E0,3.504618386E0
1.165896092E1,2.131567383E0,-1.130000153E0,3.195554810E0,4.004004295E0
1.166899292E1,2.499651947E0,-8.361611938E-1,3.688928833E0,4.533830757E0
1.167902592E1,2.831661530E0,-9.970765686E-1,3.456013184E0,4.577826540E0
1.168905892E1,2.577639771E0,-1.688488770E0,2.781964874E0,4.151451514E0
1.169909092E1,1.772464142E0,-2.537672882E0,1.741777954E0,3.551788737E0
1.170912392E1,9.168434143E-1,-3.482508087E0,-6.837780762E-1,3.665517273E0
1.171915692E1,-4.038601685E-1,-3.100053406E0,-4.719385986E0,5.660922031E0
1.172918992E1,-2.147135010E0,1.673519897E-1,-9.068292389E0,9.320521567E0
1.173922192E1,-2.257754974E0,5.188660126E0,-1.164263901E1,1.294490998E1
1.174925492E1,-7.484436035E-3,9.830507355E0,-1.282308426E1,1.615767374E1
1.175928792E1,2.177222443E0,1.709460159E1,-1.113863708E1,2.051913588E1
1.176931992E1,6.170468445E0,4.748799820E1,-5.184019775E0,4.816698781E1
1.177935292E1,8.665030975E0,7.951404968E1,-5.736520844E0,8.019023962E1
1.178938592E1,7.798183594E0,5.471347275E1,-2.502690628E1,6.066895257E1
1.179941792E1,-9.375902710E0,1.603480545E1,-2.232188141E1,2.903943744E1
1.180945092E1,-1.556867477E1,3.412753143E0,-9.156309357E0,1.838120016E1
1.181948392E1,-6.184988251E0,7.548951874E0,-7.262597351E0,1.216495271E1
1.182951592E1,6.454877014E0,1.473430984E1,-1.031445099E1,1.910898278E1
1.183954892E1,9.069489899E0,1.736733444E1,-1.351195175E1,2.380026875E1
1.184958192E1,6.239474945E0,1.454884552E1,-1.551134399E1,2.216307167E1
1.185961392E1,1.760938110E0,1.212059509E1,-1.458731552E1,1.904729646E1
1.186964692E1,-5.123844910E-1,1.151360733E1,-1.152213959E1,1.629679086E1
1.187967992E1,-2.254162445E0,1.136047577E1,-9.351952515E0,1.488625789E1
1.188971292E1,-3.136727142E0,1.248867966E1,-9.103918304E0,1.576982895E1
1.189974492E1,-2.067650299E0,1.366313736E1,-8.401129761E0,1.617205867E1
1.190977792E1,-8.271798706E-1,1.424153458E1,-6.719526672E0,1.576887987E1
1.191981092E1,3.664379883E-1,1.398721344E1,-7.179071045E0,1.572626712E1
1.192984292E1,1.595681763E0,1.239018448E1,-7.572453003E0,1.460838513E1
1.193987592E1,1.794468384E0,1.052416489E1,-7.681276703E0,1.315219279E1
1.194990892E1,9.511221313E-1,9.272767181E0,-7.815547485E0,1.216435888E1
1.195994092E1,1.549278259E-1,8.513545990E0,-7.507488098E0,1.135195338E1
1.196997392E1,-5.635780334E-1,8.038433990E0,-6.840924225E0,1.057034935E1
1.198000692E1,-1.268911285E0,7.804620209E0,-6.168223114E0,1.002842006E1
1.199003892E1,-1.730251923E0,7.814050598E0,-5.496719513E0,9.709123744E0
1.200007192E1,-1.706750793E0,8.095166016E0,-4.668192444E0,9.499301647E0
1.201010492E1,-1.250948639E0,8.423583069E0,-4.071682892E0,9.439291593E0
1.202013692E1,-6.511459351E-1,8.567134552E0,-3.835773468E0,9.409194629E0
1.203016992E1,-4.715194702E-2,8.427624664E0,-3.730691986E0,9.216568965E0
1.204020292E1,4.794529724E-1,8.185727692E0,-3.540587311E0,8.931504437E0
1.205023592E1,9.026229858E-1,7.958799591E0,-3.373235321E0,8.691141221E0
1.206026792E1,1.161734161E0,7.720195770E0,-3.285368042E0,8.470223856E0
1.207030092E1,1.341061249E0,7.466323700E0,-3.202590179E0,8.234137400E0
1.208033392E1,1.444496155E0,7.182813263E0,-2.971919861E0,7.906433024E0
1.209036592E1,1.458117828E0,6.775360565E0,-2.656226349E0,7.422072272E0
1.210039892E1,1.456770630E0,6.276597748E0,-2.384241943E0,6.870405345E0
1.211043192E1,1.558259583E0,5.632786560E0,-2.067949677E0,6.199425233E0
1.212046392E1,1.640438690E0,4.850363617E0,-1.735640717E0,5.406432743E0
1.213049692E1,1.399140472E0,4.276606750E0,-1.554068298E0,4.760471367E0
1.214052992E1,1.007704468E0,3.752247162E0,-1.538800049E0,4.178843458E0
1.215056192E1,5.915698242E-1,3.405867462E0,-1.478774872E0,3.759875417E0
1.216059492E1,2.448907471E-1,3.303480377E0,-1.667532349E0,3.708587091E0
1.217062792E1,-1.115180969E-1,3.521576843E0,-2.364483032E0,4.243196880E0
1.218065992E1,-4.837939453E-1,3.925886078E0,-3.274141388E0,5.134845656E0
1.219069292E1,-7.601193237E-1,4.373006287E0,-3.890409851E0,5.902224511E0
1.220072592E1,-8.045768738E-1,4.691992950E0,-4.104315033E0,6.285502659E0
1.221075792E1,-4.222718811E-1,4.828209686E0,-4.408033447E0,6.551387730E0
1.222079092E1,-2.710862732E-1,5.051096191E0,-4.459676056E0,6.743572571E0
1.223082392E1,-3.849993896E-1,5.362598419E0,-4.811594238E0,7.215062401E0
1.224085692E1,-4.174818420E-1,6.048322449E0,-5.437891846E0,8.144149020E0
1.225088892E1,-2.130070496E-1,7.052584076E0,-6.498436432E0,9.592392309E0
1.226092192E1,2.853067017E-1,8.480764160E0,-7.477550354E0,1.131010698E1
1.227095492E1,1.121467896E0,1.059676392E1,-8.160430298E0,1.342168836E1
1.228098692E1,2.022743683E0,1.364038467E1,-9.116941223E0,1.653088634E1
1.229101992E1,2.831661530E0,1.795635956E1,-1.032433044E1,2.090552450E1
1.230105292E1,3.499722290E0,2.414269501E1,-1.175580368E1,2.707982087E1
1.231108488E1,3.625161438E0,3.046524719E1,-1.369068008E1,3.359624686E1
1.232111787E1,1.842817841E0,3.240311737E1,-1.588242233E1,3.613321646E1
1.233115088E1,-1.394649811E0,2.900593185E1,-1.729488510E1,3.379944055E1
1.234118287E1,-3.402125244E0,2.586306747E1,-1.783810547E1,3.160175188E1
1.235121588E1,-3.459755402E0,2.492661484E1,-1.781550247E1,3.083339363E1
1.236124888E1,-2.268532562E0,2.512854492E1,-1.704715027E1,3.044988247E1
1.237128087E1,1.347198486E-3,2.542253357E1,-1.569052139E1,2.987469960E1
1.238131388E1,3.361110535E0,2.567401062E1,-1.381926270E1,2.935002397E1
1.239134687E1,5.923931122E0,2.517165527E1,-1.190234894E1,2.846701775E1
1.240137988E1,6.173013153E0,2.317031708E1,-1.006087830E1,2.600367199E1
1.241141188E1,4.810845795E0,2.050211563E1,-7.777825928E0,2.244939996E1
1.242144487E1,2.825374603E0,1.771805511E1,-5.373525696E0,1.872930851E1
1.243147788E1,8.328680420E-1,1.482187775E1,-3.292253723E0,1.520594172E1
1.244150987E1,-1.242416382E0,1.163575333E1,-2.061363373E0,1.188206939E1
1.245154288E1,-2.622097321E0,8.447383575E0,-1.416654053E0,8.957711333E0
1.246157588E1,-3.120710449E0,5.516628113E0,-9.803114319E-1,6.413503718E0
1.247160787E1,-3.254232788E0,2.869981842E0,-7.686515808E-1,4.406546501E0
1.248164088E1,-3.714525604E0,3.451821899E-1,-9.493258667E-1,3.849424738E0
1.249167387E1,-4.006119232E0,-2.189496918E0,-1.334025879E0,4.756312973E0
1.250170588E1,-4.236939240E0,-4.928650818E0,-7.824229431E-1,6.546406546E0
1.251173888E1,-4.250261536E0,-7.947423248E0,3.802093506E-1,9.020577507E0
1.252177187E1,-3.410358124E0,-1.055200699E1,1.767823792E0,1.122945212E1
1.253180388E1,-1.949545898E0,-1.243673767E1,3.770958252E0,1.314128225E1
1.254183687E1,-6.295907593E-1,-1.317455338E1,6.297105103E0,1.461570299E1
1.255186988E1,5.581892395E-1,-1.192809540E1,7.780520325E0,1.425228163E1
1.256190288E1,2.150727539E0,-7.526199188E0,7.104975128E0,1.057118606E1
1.257193487E1,3.605103149E0,-4.027524719E0,4.533472595E0,7.054792545E0
1.258196788E1,3.411705322E0,-2.070644073E0,1.538949738E0,4.277343379E0
1.259200087E1,1.642085266E0,-2.624043274E-1,-8.824150085E-1,1.882539853E0
1.260203288E1,6.536906433E-1,1.209784241E0,-2.162552948E0,2.562718209E0
1.261206588E1,-4.343966675E-1,2.684367828E0,-2.560724945E0,3.735216640E0
1.262209887E1,-1.035097504E0,4.198768616E0,-2.595003662E0,5.043325167E0
1.263213088E1,-7.532336426E-1,5.615422668E0,-2.500101013E0,6.192805321E0
1.264216387E1,2.014810181E-1,6.290219421E0,-1.885030060E0,6.569687458E0
1.265219688E1,1.245859222E0,6.348598022E0,-1.026714935E0,6.550649251E0
1.266222888E1,1.740430756E0,6.053561554E0,-3.986210632E-1,6.311386968E0
1.267226187E1,1.612147522E0,5.365741882E0,8.981323242E-4,5.602696350E0
1.268229488E1,7.984396362E-1,4.421355743E0,2.124082947E-1,4.497889477E0
1.269232687E1,1.332229614E-2,3.430416412E0,3.472778320E-2,3.430618059E0
1.270235988E1,-6.030958557E-1,2.370021515E0,4.266128540E-2,2.445924483E0
1.271239288E1,-1.239572296E0,1.296603699E0,1.556762695E-1,1.800543176E0
1.272242487E1,-1.644929352E0,3.613485718E-1,1.438508606E-1,1.690283536E0
1.273245788E1,-1.789828033E0,-4.616400146E-1,1.445993042E-1,1.854050930E0
1.274249087E1,-1.696571960E0,-1.324296112E0,3.517684937E-1,2.180792902E0
1.275252388E1,-1.414558411E0,-2.244432678E0,5.870791626E-1,2.717188894E0
1.276255588E1,-1.225800934E0,-2.915487213E0,6.816824341E-1,3.235327582E0
1.277258887E1,-7.879614258E-1,-3.508254547E0,8.919950867E-1,3.704644168E0
1.278262188E1,-4.550537109E-2,-4.121978302E0,1.128802643E0,4.273987748E0
1.279265387E1,7.475454712E-1,-4.457430725E0,1.255738678E0,4.690883982E0
1.280268688E1,1.274599457E0,-4.382586365E0,1.639989624E0,4.849869378E0
1.281271988E1,1.747765503E0,-4.118984528E0,2.677332458E0,5.214290641E0
1.282275187E1,2.307900696E0,-3.983815613E0,3.912114716E0,6.041674768E0
1.283278488E1,2.532733154E0,-3.868255920E0,4.822820892E0,6.681148289E0
1.284281788E1,3.125350800E0,-3.465892639E0,4.406536560E0,6.418550760E0
1.285284988E1,3.617677002E0,-2.955154724E0,1.847158813E-1,4.674895324E0
1.286288288E1,3.025807800E0,-1.388961639E0,-6.828200684E0,7.596647409E0
1.287291587E1,2.942880249E-1,1.136736145E0,-1.189516388E1,1.195297863E1
1.288294788E1,-3.140169983E0,4.695286102E0,-1.386806122E1,1.497429468E1
1.289298087E1,-5.384902039E0,1.084389999E1,-1.381656830E1,1.837076200E1
1.290301388E1,-3.931873627E0,1.984767654E1,-1.329190933E1,2.420877420E1
1.291304688E1,1.878743134E0,4.985742096E1,-1.476290039E1,5.203109963E1
1.292307887E1,1.618434448E0,7.966957626E1,-1.546643738E1,8.117309528E1
1.293311188E1,-1.647623749E0,6.442871979E1,-1.690300003E1,6.662946801E1
1.294314488E1,-1.657503204E0,2.391097687E1,-1.226699066E1,2.692510337E1
1.295317688E1,-2.007325745E0,7.530390472E0,-1.109627518E1,1.355962611E1
1.296320988E1,-5.515280914E0,9.755812683E0,-1.579889603E1,1.937006248E1
1.297324287E1,-4.066743164E0,1.843880630E1,-1.483744537E1,2.401411591E1
1.298327488E1,1.880389709E0,2.330668350E1,-1.333636688E1,2.691832170E1
1.299330788E1,4.291725311E0,2.281809952E1,-1.499761230E1,2.764078412E1
1.300334087E1,5.333109741E0,1.943782883E1,-1.408496017E1,2.458978146E1
1.301337288E1,4.163741455E0,1.565040482E1,-9.806856537E0,1.893267939E1
1.302340587E1,2.106269989E0,1.328801743E1,-6.453529816E0,1.492165632E1
1.303343888E1,1.167122955E0,1.191432404E1,-4.892875214E0,1.293265329E1
1.304347087E1,3.038681030E-1,1.213631241E1,-5.374872894E0,1.327673429E1
1.305350388E1,-7.328759766E-1,1.200204163E1,-6.261329498E0,1.355693024E1
1.306353688E1,-1.728305969E0,1.137589371E1,-6.175108795E0,1.305871233E1
1.307356987E1,-2.299368439E0,1.042971130E1,-5.438191223E0,1.198498631E1
1.308360188E1,-2.384691010E0,9.686207428E0,-4.830155640E0,1.108331038E1
1.309363488E1,-2.014810181E0,9.206155701E0,-3.970193939E0,1.022620178E1
1.310366787E1,-1.181942139E0,8.343649292E0,-2.785557404E0,8.875404260E0
1.311369988E1,-4.134402466E-1,7.210056610E0,-1.541943512E0,7.384675954E0
1.312373287E1,2.239343262E-1,6.252797241E0,-3.061134338E-1,6.264289693E0
1.313376588E1,8.791218567E-1,4.959187317E0,5.795947266E-1,5.069745963E0
1.314379788E1,1.118025055E0,4.155059509E0,1.399589539E0,4.524748659E0
1.315383087E1,1.178648987E0,3.249442749E0,1.673070831E0,3.840215830E0
1.316386388E1,1.044827271E0,2.236349487E0,1.600322113E0,2.941760344E0
1.317389587E1,5.795947266E-1,1.368753662E0,1.276994476E0,1.959625354E0
1.318392888E1,7.364685059E-2,9.086105347E-1,9.348060608E-1,1.305702621E0
1.319396188E1,-2.764750671E-1,9.822573853E-1,6.969506836E-1,1.235721768E0
1.320399388E1,-4.161346436E-1,1.556613007E0,3.170407104E-1,1.642171400E0
1.321402688E1,-2.951861572E-1,2.704875183E0,9.310638428E-2,2.722527029E0
1.322405987E1,-1.002914429E-2,3.780837708E0,4.236190796E-2,3.781088320E0
1.323409288E1,3.635939026E-1,4.233945465E0,4.531077576E-1,4.273616895E0
1.324412488E1,5.348377991E-1,4.457281036E0,8.093669128E-1,4.561631343E0
1.325415787E1,1.123114471E0,3.967948608E0,5.566923523E-1,4.161238836E0
1.326419088E1,1.495240631E0,3.195105743E0,-1.171613617E0,3.717139185E0
1.327422287E1,2.044747925E0,2.569855957E0,-3.518433380E0,4.812954100E0
1.328425588E1,2.315684509E0,2.139949951E0,-4.233047333E0,5.278301835E0
1.329428888E1,2.048639832E0,1.446442108E0,-3.808829498E0,4.560296271E0
1.330432087E1,1.387913818E0,1.346000977E0,-4.631967773E0,5.019277722E0
1.331435400E1,1.022823029E0,2.027833099E0,-6.961872711E0,7.322973827E0
1.332438700E1,1.016386414E0,3.032394104E0,-7.535180511E0,8.185804828E0
1.333441900E1,2.543211365E-1,4.161346436E0,-7.116950226E0,8.248179430E0
1.334445200E1,-5.141807556E-1,5.586383057E0,-7.060517578E0,9.017924704E0
1.335448500E1,-5.553451538E-1,6.980583801E0,-6.831493835E0,9.782957961E0
1.336451700E1,-7.123686218E-1,8.457263031E0,-7.377707977E0,1.124559212E1
1.337455000E1,-1.479373627E0,1.039438477E1,-8.178243256E0,1.330847263E1
1.338458300E1,-1.624571686E0,1.298160461E1,-8.985664215E0,1.587146663E1
1.339461600E1,5.942642212E-2,1.718396576E1,-1.055829391E1,2.016853443E1
1.340464800E1,1.949545898E0,2.389960052E1,-1.300750076E1,2.727978575E1
1.341468100E1,3.165317688E0,3.305710739E1,-1.557196793E1,3.667802844E1
1.342471400E1,3.634142761E0,3.844126099E1,-1.743723907E1,4.236737951E1
1.343474600E1,1.708247681E0,3.273602509E1,-1.884027145E1,3.780901053E1
1.344477900E1,-4.858895874E-1,2.617486908E1,-1.986818390E1,3.286494472E1
1.345481200E1,-2.181713104E0,2.498469406E1,-1.994018417E1,3.204068904E1
1.346484400E1,-3.388503571E0,2.637170975E1,-1.973900253E1,3.311460784E1
1.347487700E1,-3.920497284E0,2.830464020E1,-1.942839844E1,3.455409703E1
1.348491000E1,-3.959566040E0,2.963612137E1,-1.760309418E1,3.469649518E1
1.349494200E1,-3.900738373E0,2.965947281E1,-1.467398529E1,3.332005299E1
1.350497500E1,-2.694097595E0,2.770528656E1,-1.195893127E1,3.029615656E1
1.351500800E1,-5.427713013E-1,2.413371368E1,-9.464967499E0,2.592906374E1
1.352504000E1,8.331674194E-1,2.024435165E1,-6.918612671E0,2.141016448E1
1.353507300E1,1.202898560E0,1.670765625E1,-4.383035431E0,1.731484167E1
1.354510600E1,1.044078827E0,1.374875931E1,-2.228266296E0,1.396723501E1
1.355513900E1,6.119274902E-1,1.059182419E1,-1.113534393E0,1.066776236E1
1.356517100E1,5.373825073E-2,7.302863617E0,-5.999523926E-1,7.327663180E0
1.357520400E1,-5.489085388E-1,4.162543945E0,-2.752775574E-1,4.207594374E0
1.358523700E1,-1.275946655E0,1.063089294E0,-8.532257080E-3,1.660804478E0
1.359526900E1,-1.624421997E0,-2.029180298E0,6.822811890E-1,2.687345740E0
1.360530200E1,-1.279539185E0,-5.053790588E0,1.570683746E0,5.444728392E0
1.361533500E1,-4.203259277E-1,-7.725285187E0,2.372715912E0,8.092372081E0
1.362536700E1,7.755372620E-1,-9.679321747E0,3.447181549E0,1.030406658E1
1.363540000E1,1.680555267E0,-1.129116989E1,5.225782928E0,1.255482341E1
1.364543300E1,2.412682800E0,-1.202913528E1,7.909552002E0,1.459733355E1
1.365546500E1,3.932322693E0,-1.166075134E1,1.025068359E1,1.601601691E1
1.366549800E1,6.635401611E0,-1.022179367E1,7.604935455E0,1.436484123E1
1.367553100E1,7.089856567E0,-7.527396698E0,2.987188110E0,1.076341303E1
1.368556400E1,5.960455170E0,-5.290298767E0,7.074288940E-1,8.000921354E0
1.369559600E1,3.617377625E0,-3.453468475E0,-6.927593994E-1,5.048938599E0
1.370562900E1,2.025887146E0,-1.663041687E0,-1.608105927E0,3.075049764E0
1.371566200E1,1.064586182E0,3.619473267E-1,-1.763033752E0,2.091085273E0
1.372569400E1,9.520202637E-2,2.404300232E0,-1.683698730E0,2.936760877E0
1.373572700E1,-2.817141724E-1,3.670966187E0,-1.557062073E0,3.997473942E0
1.374576000E1,-1.119671631E-1,4.117637329E0,-1.528920593E0,4.393753748E0
1.375579200E1,2.059716797E-1,4.094734955E0,-1.402583313E0,4.333188045E0
1.376582500E1,2.270777893E-1,3.967649231E0,-1.295555878E0,4.179984423E0
1.377585800E1,-4.206253052E-2,4.004622345E0,-1.386566620E0,4.238081686E0
1.378589000E1,-4.147874451E-1,4.403393097E0,-1.308429108E0,4.612364483E0
1.379592300E1,-7.339237976E-1,4.632416840E0,-9.592053223E-1,4.787275297E0
1.380595600E1,-9.208850098E-1,4.138593750E0,-5.322930908E-1,4.273092950E0
1.381598800E1,-1.300794983E0,3.357667694E0,-2.320175171E-1,3.608300439E0
1.382602100E1,-1.560504913E0,2.526296539E0,1.815724182E-1,2.974948459E0
1.383605400E1,-1.729653168E0,1.528621216E0,5.998027039E-1,2.384983477E0
1.384608600E1,-1.759291534E0,3.661386108E-1,6.613247681E-1,1.914814517E0
1.385611900E1,-1.852248230E0,-6.887178040E-1,4.370910645E-1,2.023908179E0
1.386615200E1,-2.080822906E0,-1.511257324E0,3.177891541E-1,2.591276252E0
1.387618500E1,-2.164199524E0,-2.112856293E0,5.031037903E-1,3.066110682E0
1.388621700E1,-1.684596863E0,-2.670297089E0,6.851252747E-1,3.230750652E0
1.389625000E1,-1.276994476E0,-3.055745544E0,9.502239990E-1,3.445463884E0
1.390628300E1,-8.361611938E-1,-3.506907349E0,1.408121796E0,3.870448512E0
1.391631500E1,-6.170169067E-1,-3.526516571E0,1.829196167E0,4.020321829E0
1.392634800E1,-4.349954224E-1,-3.315904541E0,2.342179413E0,4.082921545E0
1.393638100E1,-4.490661621E-2,-2.952610016E0,3.259172516E0,4.397968622E0
1.394641300E1,4.073030090E-1,-2.293829956E0,4.318519592E0,4.906848589E0
1.395644600E1,9.937834167E-1,-1.684447174E0,5.123395844E0,5.483990585E0
1.396647900E1,1.447789307E0,-1.640887756E0,4.262985077E0,4.791831411E0
1.397651100E1,1.220561829E0,-1.587299194E0,2.406994629E-1,2.016736508E0
1.398654400E1,6.300398254E-1,-3.132984924E-1,-4.794978790E0,4.846331368E0
1.399657700E1,-6.908134460E-1,1.103654938E0,-7.535928955E0,7.647581491E0
1.400660900E1,-2.354154510E0,3.036585388E0,-8.754245453E0,9.560319437E0
1.401664200E1,-4.210294647E0,8.336314545E0,-1.166404449E1,1.494224398E1
1.402667500E1,-4.312082977E0,1.526884827E1,-1.629885635E1,2.274608770E1
1.403670800E1,-1.590292969E0,2.478470993E1,-1.852996674E1,3.098661881E1
1.404674000E1,3.813619537E0,4.996923843E1,-1.909100006E1,5.362774251E1
1.405677300E1,1.030636780E1,7.604606140E1,-9.026229858E0,7.727028858E1
1.406680600E1,7.486381989E0,5.006638641E1,-4.602329407E0,5.083178533E1
1.407683800E1,-7.874973907E0,2.238954071E1,-7.808661804E0,2.498563480E1
1.408687100E1,-1.305764648E1,1.090302704E1,-9.061706085E0,1.927414453E1
1.409690400E1,-7.988887024E0,8.031248932E0,-9.717642059E0,1.492500729E1
1.410693600E1,-1.814975739E0,1.300166290E1,-1.125734024E1,1.729349833E1
1.411696900E1,3.678600311E0,1.444645844E1,-1.330463287E1,1.998112903E1
1.412700200E1,6.657555542E0,1.057490936E1,-1.495075974E1,1.948530140E1
1.413703500E1,9.690548401E0,5.317392426E0,-1.535237457E1,1.891763187E1
1.414706700E1,8.014633484E0,1.442250824E0,-1.410831161E1,1.628984021E1
1.415710000E1,3.106490021E0,1.050814819E-1,-1.161734161E1,1.202596975E1
1.416713300E1,-1.088087311E0,2.131717072E0,-9.015901337E0,9.328163194E0
1.417716500E1,-4.698878632E0,6.634503479E0,-6.689738617E0,1.052847090E1
1.418719800E1,-6.448889465E0,1.190893524E1,-5.636379089E0,1.466900416E1
1.419723100E1,-5.822442169E0,1.582703751E1,-6.110143890E0,1.793682824E1
1.420726300E1,-3.932622070E0,1.847323471E1,-8.716224518E0,2.080140589E1
1.421729600E1,-1.578916626E0,2.093486572E1,-1.200698135E1,2.418530921E1
1.422732900E1,4.475692749E-1,2.180740128E1,-1.354817642E1,2.567715235E1
1.423736100E1,2.147135010E0,1.840258163E1,-1.282143768E1,2.253118869E1
1.424739400E1,2.798879700E0,1.377480515E1,-1.116812576E1,1.795288326E1
1.425742700E1,2.713856506E0,1.256187744E1,-1.032358200E1,1.648460273E1
1.426745900E1,1.460662537E0,1.369442230E1,-9.527836761E0,1.674665371E1
1.427749200E1,4.531077576E-1,1.466425552E1,-9.179361420E0,1.730625242E1
1.428752500E1,2.281256104E-1,1.492561203E1,-9.680668945E0,1.779160721E1
1.429755800E1,4.810995483E-1,1.518083130E1,-9.946516113E0,1.815550271E1
1.430758975E1,8.671467590E-1,1.541733948E1,-1.031714539E1,1.857120860E1
1.431762275E1,1.095571747E0,1.578796875E1,-1.055515045E1,1.902291870E1
1.432765575E1,1.061891785E0,1.640154282E1,-1.054616913E1,1.952843835E1
1.433768775E1,8.090675354E-1,1.703038513E1,-1.089599167E1,2.023391318E1
1.434772075E1,3.629951477E-1,1.723156677E1,-1.175176208E1,2.086055059E1
1.435775375E1,-2.095642090E-1,1.689042618E1,-1.265258881E1,2.110493822E1
1.436778575E1,-7.667056274E-1,1.627251114E1,-1.347961899E1,2.114432747E1
1.437781875E1,-1.088237000E0,1.557930267E1,-1.459465027E1,2.137528358E1
1.438785175E1,-1.102158051E0,1.536674469E1,-1.499910919E1,2.150174112E1
1.439788375E1,-8.369096375E-1,1.582359467E1,-1.406310562E1,2.118625747E1
1.440791675E1,-3.496728516E-1,1.674073746E1,-1.275737091E1,2.105053620E1
1.441794975E1,3.338058472E-2,1.810021042E1,-1.152303772E1,2.145691333E1
1.442798175E1,3.808081055E-1,1.951641541E1,-9.585915985E0,2.174684507E1
1.443801475E1,9.157955933E-1,2.034374496E1,-6.933132477E0,2.151220506E1
1.444804775E1,1.181792450E0,1.956251953E1,-4.380191345E0,2.008170511E1
1.445808075E1,8.870553589E-1,1.722108856E1,-2.595901794E0,1.743821850E1
1.446811275E1,4.098477173E-1,1.388931702E1,-1.416803741E0,1.396740617E1
1.447814575E1,9.295669556E-2,1.024619293E1,-6.152206421E-1,1.026506732E1
1.448817875E1,-3.481759644E-1,6.769971771E0,-7.795788574E-1,6.823597840E0
1.449821075E1,-8.674461365E-1,3.780987396E0,-1.480421448E0,4.152105027E0
1.450824375E1,-1.513951721E0,1.209634552E0,-1.728156281E0,2.596495656E0
1.451827675E1,-2.269879761E0,-1.012793884E0,-1.601070557E0,2.956608278E0
1.452830875E1,-2.992127838E0,-3.116668854E0,-1.043929138E0,4.444799409E0
1.453834175E1,-3.662882996E0,-5.240153046E0,2.550695801E-1,6.398513599E0
1.454837475E1,-3.678151245E0,-7.005132751E0,1.763183441E0,8.106139482E0
1.455840675E1,-2.950664062E0,-8.461604004E0,2.831661530E0,9.398056594E0
1.456843975E1,-2.105820923E0,-9.549691315E0,4.301604767E0,1.068339317E1
1.457847275E1,-1.551673279E0,-1.000714005E1,6.146069183E0,1.184587305E1
1.458850475E1,-8.590635681E-1,-9.153016205E0,7.995623016E0,1.218382876E1
1.459853775E1,4.632865906E-1,-6.051765289E0,8.331075439E0,1.030753683E1
1.460857075E1,2.330653381E0,-3.284469910E0,6.629713440E0,7.757112096E0
1.461860375E1,3.622017975E0,-2.045196991E0,4.237687683E0,5.937999818E0
1.462863575E1,3.226839752E0,-1.069825287E0,1.404080200E0,3.678105781E0
1.463866875E1,2.906954956E0,-1.146615601E-1,-1.064586182E0,3.097882846E0
1.464870175E1,2.503094788E0,9.964778137E-1,-2.693498840E0,3.809644019E0
1.465873375E1,1.795366516E0,2.339485016E0,-3.674409027E0,4.711455483E0
1.466876675E1,1.095122681E0,3.535946960E0,-4.084406433E0,5.512221921E0
1.467879975E1,5.192701721E-1,4.104764099E0,-4.041745148E0,5.783980780E0
1.468883175E1,8.517288208E-2,3.818858643E0,-3.739074554E0,5.345242209E0
1.469886475E1,-1.317260742E-2,3.089724884E0,-3.360661469E0,4.565152668E0
1.470889775E1,-1.649569702E-1,2.560724945E0,-2.708916779E0,3.731320565E0
1.471892975E1,-6.692582703E-1,2.327509918E0,-1.678309937E0,2.946512056E0
1.472896275E1,-9.602531433E-1,2.072889404E0,-4.306544495E-1,2.324740811E0
1.473899575E1,-1.076411591E0,1.625020752E0,2.685415649E-1,1.967604871E0
1.474902775E1,-1.379980316E0,1.122216339E0,4.881349182E-1,1.844448666E0
1.475906075E1,-1.408121796E0,5.671705627E-1,7.647596741E-1,1.699807871E0
1.476909375E1,-1.322200470E0,-1.219963074E-1,1.046773224E0,1.690807903E0
1.477912675E1,-1.366508331E0,-8.202941895E-1,1.174008636E0,1.979526169E0
1.478915875E1,-1.328337708E0,-1.417851562E0,1.309476929E0,2.342971179E0
1.479919175E1,-1.231189728E0,-1.741478577E0,1.378333740E0,2.539365999E0
1.480922475E1,-9.410929871E-1,-1.731748810E0,1.490749969E0,2.471223467E0
1.481925675E1,-5.355862427E-1,-1.492246857E0,1.758393402E0,2.367614973E0
1.482928975E1,-4.790039063E-2,-1.283580780E0,2.134261780E0,2.490973186E0
1.483932275E1,5.084925842E-1,-1.173110504E0,2.448308716E0,2.762058749E0
1.484935475E1,9.803114319E-1,-1.126557312E0,2.649789734E0,3.041632377E0
1.485938775E1,1.418899384E0,-1.104553070E0,2.703677673E0,3.247027241E0
1.486942075E1,1.724114685E0,-1.109792175E0,2.769091644E0,3.445588289E0
1.487945275E1,1.616937561E0,-1.048569489E0,3.184926910E0,3.722599156E0
1.488948575E1,1.875599670E0,-1.267713776E0,3.522924042E0,4.187596703E0
1.489951875E1,1.508263550E0,-2.222578125E0,2.160906372E0,3.447350984E0
1.490955075E1,5.824388123E-1,-2.750979309E0,-2.594255219E0,3.825870132E0
1.491958375E1,-1.029708710E0,-1.095571747E0,-9.636061707E0,9.752654136E0
1.492961675E1,-3.788172455E0,3.075654144E0,-1.406235718E1,1.488488456E1
1.493964975E1,-4.287234650E0,1.055679703E1,-1.538455765E1,1.914447592E1
1.494968175E1,-5.319937134E-1,2.249387375E1,-1.462907867E1,2.683779641E1
1.495971475E1,2.899769897E0,5.688800079E1,-7.301217041E0,5.742787712E1
1.496974775E1,2.409090271E0,7.933247726E1,-8.192463684E-1,7.937327528E1
1.497977975E1,-2.391876068E0,4.524146988E1,-1.582030151E1,4.798743177E1
1.498981275E1,-1.279015274E1,5.691614227E0,-1.652219193E1,2.165560679E1
1.499984575E1,-8.900641022E0,-4.272565155E0,-1.247909958E1,1.591238982E1
1.500987775E1,-2.711461487E0,5.164859619E0,-7.874824219E0,9.800033406E0
1.501991075E1,1.930834808E0,1.474763214E1,-1.207000031E1,1.915478228E1
1.502994375E1,3.915707245E0,1.536195465E1,-1.495779510E1,2.179582640E1
1.503997575E1,5.085973663E0,1.435574707E1,-1.490435623E1,2.130949171E1
1.505000875E1,6.245761871E0,1.573228455E1,-1.350312012E1,2.165291138E1
1.506004175E1,6.517147522E0,1.714654358E1,-1.168350403E1,2.174813635E1
1.507007375E1,5.595663757E0,1.701826035E1,-1.141062149E1,2.123993693E1
1.508010675E1,4.336931305E0,1.698263443E1,-1.255214767E1,2.155864691E1
1.509013975E1,3.224744110E0,1.698607727E1,-1.488504639E1,2.281425873E1
1.510017275E1,3.706292725E-1,1.662278275E1,-1.704101303E1,2.380862023E1
1.511020475E1,-3.150947571E0,1.826546677E1,-1.640543472E1,2.475265713E1
1.512023775E1,-5.886059875E0,2.054642349E1,-1.575279190E1,2.655092601E1
1.513027075E1,-5.662125549E0,2.006427612E1,-1.513787064E1,2.576412175E1
1.514030275E1,-3.856729889E0,1.817116287E1,-1.398182465E1,2.324988056E1
1.515033575E1,-1.757794647E0,1.722572891E1,-1.405577087E1,2.230202398E1
1.516036875E1,-3.909869385E-1,1.760204636E1,-1.464973572E1,2.290414075E1
1.517040075E1,3.143463135E-1,1.819660995E1,-1.557136917E1,2.395167980E1
1.518043375E1,9.380992126E-1,1.879641266E1,-1.647174683E1,2.501007002E1
1.519046675E1,1.847907257E0,1.981609222E1,-1.692470490E1,2.612542647E1
1.520049875E1,2.584974518E0,2.094923584E1,-1.647294434E1,2.677518386E1
1.521053175E1,2.540367279E0,2.159738800E1,-1.502111343E1,2.642980293E1
1.522056475E1,1.836081848E0,2.174947174E1,-1.257340347E1,2.518930711E1
1.523059775E1,1.279090118E0,2.147314636E1,-9.715546417E0,2.360347280E1
1.524062975E1,1.015338593E0,2.046379532E1,-6.712491302E0,2.156050488E1
1.525066275E1,-1.161584473E-1,1.883667892E1,-3.924688568E0,1.924154739E1
1.526069575E1,-1.283431091E0,1.673489960E1,-1.527124329E0,1.685337262E1
1.527072775E1,-1.663490753E0,1.382120865E1,1.812730408E-1,1.392213597E1
1.528076075E1,-1.601519623E0,1.040186920E1,6.023474121E-1,1.054165881E1
1.529079375E1,-1.425335999E0,7.176226959E0,3.040177917E-1,7.322721004E0
1.530082575E1,-1.183139648E0,4.175417175E0,1.492396545E-1,4.342372680E0
1.531085829E1,-1.142873383E0,1.284478912E0,-7.619155884E-2,1.721002847E0
1.532089129E1,-1.352736969E0,-1.551074524E0,9.400451660E-2,2.060234534E0
1.533092329E1,-1.654808807E0,-4.358785858E0,7.876620483E-1,4.728405423E0
1.534095629E1,-2.085463257E0,-6.996600494E0,1.866768036E0,7.535675044E0
1.535098929E1,-2.449506226E0,-9.210796051E0,3.055146790E0,1.000863460E1
1.536102229E1,-2.703827362E0,-1.068642746E1,4.049828339E0,1.174357372E1
1.537105429E1,-3.184627533E0,-1.156060959E1,4.665498047E0,1.286687291E1
1.538108729E1,-3.731739807E0,-1.091425369E1,5.016967163E0,1.257842499E1
1.539112029E1,-2.554288330E0,-7.044650574E0,5.138963470E0,9.086277353E0
1.540115229E1,-8.262817383E-2,-3.042123871E0,3.880380707E0,4.931399344E0
1.541118529E1,1.376387787E0,-1.102008362E0,1.972448273E0,2.645641313E0
1.542121829E1,1.736688538E0,6.795867920E-2,6.264472961E-1,1.847468991E0
1.543125029E1,1.621727600E0,1.039737854E0,-3.704795837E-1,1.961711074E0
1.544128329E1,1.705403595E0,1.721869354E0,-1.491199036E0,2.845506995E0
1.545131629E1,1.863175507E0,1.822909241E0,-1.961670685E0,3.262295656E0
1.546134829E1,1.662442932E0,1.631607056E0,-1.619631958E0,2.837087550E0
1.547138129E1,1.511556702E0,1.437161407E0,-1.483265533E0,2.559357970E0
1.548141429E1,1.170715485E0,1.484463043E0,-1.292262726E0,2.290010529E0
1.549144629E1,8.059240723E-1,1.615440674E0,-9.654922485E-1,2.047275620E0
1.550147929E1,5.433700562E-1,1.598974915E0,-5.357359314E-1,1.771718032E0
1.551151229E1,2.625540161E-1,1.179846497E0,-2.733316040E-1,1.239226586E0
1.552154529E1,3.712280273E-2,6.271957397E-1,-4.682263184E-1,7.835741724E-1
1.553157729E1,-7.559280396E-2,3.761677551E-1,-6.700067139E-1,7.720916064E-1
1.554161029E1,-1.589694214E-1,3.941304016E-1,-4.852908325E-1,6.450715019E-1
1.555164329E1,-3.303630066E-1,7.523355103E-1,-2.281256104E-1,8.527542027E-1
1.556167529E1,-6.099815369E-1,1.298849030E0,-6.885681152E-3,1.434968184E0
1.557170829E1,-8.023315430E-1,1.749412079E0,2.350112915E-1,1.938919502E0
1.558174129E1,-7.963439941E-1,1.724414063E0,4.951702881E-1,1.962896133E0
1.559177329E1,-5.619314575E-1,1.176104279E0,6.571334839E-1,1.459730336E0
1.560180629E1,-2.112107849E-1,3.149450684E-1,7.737409973E-1,8.616701937E-1
1.561183929E1,4.849914551E-2,-5.730084229E-1,1.122066650E0,1.260842729E0
1.562187129E1,2.254312134E-1,-1.253643036E0,1.526226196E0,1.987915113E0
1.563190429E1,4.608915710E-1,-1.611249390E0,1.973047028E0,2.588717870E0
1.564193729E1,6.959028625E-1,-1.713337097E0,2.522853699E0,3.128033821E0
1.565196929E1,9.207353210E-1,-1.636696472E0,3.210224304E0,3.719148956E0
1.566200229E1,1.303339691E0,-1.622176666E0,4.022435303E0,4.528811903E0
1.567203529E1,1.976340179E0,-1.853894806E0,4.890779572E0,5.591294240E0
1.568206829E1,2.637215881E0,-2.765648804E0,4.441414032E0,5.859170548E0
1.569210029E1,2.507286072E0,-3.897295532E0,1.364113312E0,4.830755742E0
1.570213329E1,1.250649261E0,-4.140090637E0,-3.622467041E0,5.641519434E0
1.571216629E1,-4.014651489E-1,-2.091301117E0,-8.232280884E0,8.503244274E0
1.572219829E1,-2.118993530E0,2.203717346E0,-1.122590561E1,1.163475227E1
1.573223129E1,-2.502196655E0,8.799152069E0,-1.437236252E1,1.703675056E1
1.574226429E1,-8.461903381E-1,1.647683624E1,-1.500554581E1,2.230176172E1
1.575229629E1,1.064286804E0,3.431763611E1,-1.205173828E1,3.638787229E1
1.576232929E1,9.777667236E-1,7.369879257E1,-6.953939209E0,7.403259637E1
1.577236229E1,1.777852936E0,7.227106155E1,-8.559949493E0,7.279793839E1
1.578239429E1,-6.805298309E0,3.240715897E1,-1.319086945E1,3.564456584E1
1.579242729E1,-1.415696045E1,6.850504303E0,-1.193228668E1,1.974154006E1
1.580246029E1,-6.966213684E0,9.653425598E-1,-1.499237320E1,1.655992976E1
1.581249329E1,1.600172424E0,9.782157898E0,-1.306019119E1,1.639572380E1
1.582252529E1,5.935756531E0,1.883488266E1,-1.405786652E1,2.424066050E1
1.583255829E1,5.883365479E0,1.903426804E1,-1.695524139E1,2.616099310E1
1.584259129E1,3.301235046E0,1.442086166E1,-1.617281845E1,2.191847304E1
1.585262329E1,2.340832214E0,1.244751526E1,-1.407014099E1,1.893116476E1
1.586265629E1,2.973267059E0,1.067714676E1,-1.295002029E1,1.704537490E1
1.587268929E1,1.776954803E0,9.906998291E0,-1.264465530E1,1.616148172E1
1.588272129E1,-8.695417786E-1,1.335148544E1,-1.097592545E1,1.730575644E1
1.589275429E1,-1.931882629E0,1.745355515E1,-8.528664551E0,1.952170271E1
1.590278729E1,-2.346071320E0,2.016651352E1,-6.820716248E0,2.141762098E1
1.591281929E1,-2.034269714E0,1.934367462E1,-6.608906708E0,2.054248400E1
1.592285229E1,-1.175355835E0,1.507964172E1,-8.318501587E0,1.726193861E1
1.593288529E1,-1.334624634E0,1.218391342E1,-9.144184570E0,1.529199400E1
1.594291729E1,-9.470805359E-1,1.064047302E1,-8.034242706E0,1.336658833E1
1.595295029E1,-6.415658569E-1,9.537416840E0,-6.744375000E0,1.169874014E1
1.596298329E1,-4.445755005E-1,8.751850433E0,-5.886508942E0,1.055668134E1
1.597301629E1,-1.757345581E-1,8.102201385E0,-5.307962036E0,9.687673142E0
1.598304829E1,5.837860107E-2,7.753875732E0,-4.893174591E0,9.168923302E0
1.599308129E1,1.306782532E-1,7.497309265E0,-4.458927612E0,8.724033383E0
1.600311429E1,2.139051819E-1,7.425159302E0,-4.182302856E0,8.524693734E0
1.601314629E1,3.285667419E-1,7.613916779E0,-4.057163086E0,8.633669968E0
1.602317929E1,3.885919189E-1,7.802973633E0,-3.668122101E0,8.630904990E0
1.603321229E1,3.248245239E-1,7.794441376E0,-3.266806641E0,8.457591440E0
1.604324429E1,2.954855347E-1,7.353009338E0,-2.831511841E0,7.884891714E0
1.605327729E1,1.990859985E-1,6.986571350E0,-1.673370209E0,7.186931356E0
1.606331029E1,2.905458069E-1,6.253695374E0,-1.132844238E0,6.362111187E0
1.607334229E1,2.538720703E-1,5.531147919E0,-9.059161377E-1,5.610591090E0
1.608337529E1,2.124082947E-1,5.017565918E0,-9.068142700E-1,5.103273180E0
1.609340829E1,1.737886047E-1,4.386328583E0,-6.836283875E-1,4.442682600E0
1.610344129E1,1.785786438E-1,3.854783936E0,-4.644841003E-1,3.886771797E0
1.611347329E1,1.839674377E-1,3.428769836E0,-4.879852295E-1,3.468203597E0
1.612350629E1,2.589614868E-1,3.003354492E0,-5.200186157E-1,3.059022494E0
1.613353929E1,2.421963501E-1,2.605032806E0,-7.149133301E-1,2.712186584E0
1.614357129E1,1.713935852E-1,2.370171204E0,-1.080303497E0,2.610391339E0
1.615360429E1,-1.097218323E-1,2.428100739E0,-1.478924561E0,2.845159035E0
1.616363729E1,-5.998027039E-1,2.898871765E0,-1.697021027E0,3.412198874E0
1.617366929E1,-9.467811584E-1,3.324736176E0,-1.848206635E0,3.919965939E0
1.618370229E1,-8.690927124E-1,3.185675354E0,-2.336790619E0,4.045298506E0
1.619373529E1,-1.041085052E0,3.307222595E0,-2.936293945E0,4.543501019E0
1.620376729E1,-9.949809265E-1,3.726949768E0,-3.486849060E0,5.199832496E0
1.621380029E1,-8.614585876E-1,4.155957642E0,-3.794609070E0,5.693255028E0
1.622383329E1,-6.024971008E-1,4.291875000E0,-4.016148376E0,5.908692034E0
1.623386529E1,-3.150947571E-1,4.201912079E0,-4.076323242E0,5.862743470E0
1.624389829E1,-3.911366272E-1,4.332889709E0,-4.271667023E0,6.097053407E0
1.625393129E1,-3.827540588E-1,4.869523773E0,-4.215084686E0,6.451798304E0
1.626396429E1,-4.749623108E-1,5.605692902E0,-4.230053558E0,7.038660044E0
1.627399629E1,-2.405497742E-1,6.113736420E0,-5.038073273E0,7.925769332E0
1.628402929E1,-6.077362061E-2,7.127129059E0,-6.143823853E0,9.409900828E0
1.629406229E1,1.704954529E-1,8.845705261E0,-6.967411194E0,1.126145590E1
1.630409429E1,4.924758911E-1,1.096844101E1,-7.842940521E0,1.349299621E1
1.631412750E1,8.833131409E-1,1.419453232E1,-8.928782501E0,1.679250270E1
1.632416050E1,1.409768372E0,1.926823151E1,-1.001447479E1,2.176101784E1
1.633419250E1,1.665885773E0,2.646182236E1,-1.235111572E1,2.924984235E1
1.634422550E1,1.411714325E0,3.340228958E1,-1.602747070E1,3.707540565E1
1.635425850E1,2.276765442E-1,3.341351624E1,-1.872755585E1,3.830451999E1
1.636429050E1,-1.620829468E0,2.752131912E1,-1.901121597E1,3.348845215E1
1.637432350E1,-2.264041901E0,2.382700150E1,-1.912453033E1,3.063657204E1
1.638435650E1,-2.188449097E0,2.371278900E1,-1.874821289E1,3.030810384E1
1.639438950E1,-1.721719666E0,2.578942062E1,-1.780038391E1,3.138331088E1
1.640442150E1,-4.052073669E-1,2.824745911E1,-1.687231384E1,3.290529005E1
1.641445450E1,1.212328949E0,2.982996826E1,-1.526809982E1,3.353224747E1
1.642448750E1,2.492616577E0,2.949646179E1,-1.274180328E1,3.222744089E1
1.643451950E1,2.743494873E0,2.696492615E1,-1.000459534E1,2.889162394E1
1.644455250E1,1.725461884E0,2.268712189E1,-7.501650238E0,2.395740960E1
1.645458550E1,2.956352234E-1,1.879805923E1,-4.987179108E0,1.945061404E1
1.646461750E1,-5.644761658E-1,1.544173874E1,-2.872077484E0,1.571670314E1
1.647465050E1,-1.446292419E0,1.181807419E1,-1.835932159E0,1.204696170E1
1.648468350E1,-1.981878662E0,8.361761627E0,-1.764380951E0,8.772681499E0
1.649471650E1,-1.828447723E0,5.154231720E0,-2.117796021E0,5.864672684E0
1.650474850E1,-1.733694763E0,2.256407776E0,-2.536774750E0,3.812125354E0
1.651478150E1,-1.866169281E0,-6.957531738E-1,-2.346819763E0,3.078022623E0
1.652481450E1,-2.469115448E0,-3.753145294E0,-1.397344208E0,4.704806216E0
1.653484650E1,-2.923869781E0,-6.582411804E0,1.719923401E-1,7.204633303E0
1.654487950E1,-2.729573822E0,-9.260792084E0,2.033970337E0,9.866604208E0
1.655491250E1,-1.805545349E0,-1.147259262E1,4.252057800E0,1.236771487E1
1.656494450E1,-1.063987427E0,-1.298684372E1,7.289541321E0,1.493075992E1
1.657497750E1,-7.056326294E-1,-1.302411621E1,1.055215668E1,1.677717292E1
1.658501050E1,1.295705566E0,-1.008318192E1,1.265213974E1,1.623040512E1
1.659504250E1,4.532125397E0,-5.362748108E0,1.030337402E1,1.246830959E1
1.660507550E1,6.367009735E0,-2.844834137E0,4.734654236E0,8.429047690E0
1.661510850E1,4.772675171E0,-1.609602814E0,-5.583389282E-2,5.037099059E0
1.662514050E1,2.533481598E0,-6.071374512E-1,-2.498903503E0,3.609939558E0
1.663517350E1,1.223256226E0,4.460723877E-1,-3.714974670E0,3.936543302E0
1.664520650E1,1.546284485E-1,1.860780487E0,-4.124373322E0,4.527346825E0
1.665523950E1,-7.897576904E-1,3.990401917E0,-3.956871643E0,5.674844303E0
1.666527150E1,-9.485774231E-1,4.942422180E0,-3.866759033E0,6.346586607E0
1.667530450E1,-4.477189636E-1,4.664599915E0,-3.279530182E0,5.719638349E0
1.668533750E1,1.287322998E-1,4.249213715E0,-1.923050995E0,4.665888375E0
