"Time (s)","Acceleration x (m/s^2)","Acceleration y (m/s^2)","Acceleration z (m/s^2)","Absolute acceleration (m/s^2)"
9.444999996E-4,-1.470392303E0,5.990392914E0,4.935087433E0,7.899490411E0
1.097750000E-2,-1.074914703E0,5.934858398E0,5.426066437E0,8.112963873E0
2.101050000E-2,-6.500981140E-1,5.858367462E0,5.951773224E0,8.376556655E0
3.104350000E-2,-3.475772095E-1,5.755830688E0,6.267766113E0,8.516765165E0
4.107650000E-2,-1.607656860E-1,5.641019440E0,6.298751678E0,8.457021854E0
5.110950000E-2,8.637039185E-2,5.606740723E0,6.043233032E0,8.244007937E0
6.114150000E-2,5.568420410E-2,5.579197998E0,5.437742157E0,7.790994211E0
7.117450000E-2,-1.562750244E-1,5.469176788E0,4.481829987E0,7.072702217E0
8.120750000E-2,-1.133143616E-1,5.299429779E0,3.484004974E0,6.343113336E0
9.124050000E-2,5.613327026E-2,5.159470825E0,2.838397522E0,5.888954970E0
1.012735000E-1,-2.522254944E-1,4.952601013E0,2.598446503E0,5.598553271E0
1.113065000E-1,-4.284091187E-1,4.607568512E0,2.435435486E0,5.229203378E0
1.213395000E-1,-3.544628906E-1,4.104913788E0,2.348915405E0,4.742717020E0
1.313725000E-1,-2.056723022E-1,3.730991364E0,2.495310974E0,4.493236529E0
1.414055000E-1,3.981719971E-2,3.560196533E0,2.753074951E0,4.500667334E0
1.514375000E-1,6.069877625E-1,3.536246338E0,3.072810059E0,4.723942629E0
1.614705000E-1,1.200802917E0,3.456761627E0,3.378175049E0,4.980280640E0
1.715035000E-1,1.853296051E0,3.366349640E0,3.463796997E0,5.173481013E0
1.815365000E-1,2.348466339E0,3.212469635E0,3.531007233E0,5.320081520E0
1.915695000E-1,2.769690399E0,3.128045197E0,3.610042877E0,5.521617628E0
2.016025000E-1,3.008144531E0,3.052153015E0,3.727698212E0,5.679815623E0
2.116355000E-1,3.045117645E0,2.869682465E0,3.856131134E0,5.690128842E0
2.216685000E-1,3.094215546E0,2.460283813E0,3.835773468E0,5.508205187E0
2.317015000E-1,3.102298737E0,1.924098816E0,4.013154602E0,5.425110466E0
2.417335000E-1,3.246748352E0,1.225651245E0,4.012406158E0,5.304997551E0
2.517665000E-1,3.368445282E0,4.601431274E-1,3.838916931E0,5.127907811E0
2.617995000E-1,3.337160339E0,-2.567161560E-1,3.723057861E0,5.006366163E0
2.718325000E-1,3.203937378E0,-8.599617004E-1,3.462449799E0,4.795133727E0
2.818655000E-1,3.328029327E0,-1.405577087E0,3.276087341E0,4.876902134E0
2.918985000E-1,3.866010590E0,-2.164947968E0,3.088527374E0,5.401114600E0
3.019315000E-1,4.258644104E0,-3.187920685E0,2.873274994E0,6.046039785E0
3.119645000E-1,4.301155701E0,-4.192032623E0,2.906655579E0,6.672460156E0
3.219975000E-1,4.291276245E0,-4.929848328E0,3.165617065E0,7.262202679E0
3.320305000E-1,4.700824585E0,-5.462291107E0,3.483256531E0,8.004214638E0
3.420625000E-1,5.400619354E0,-5.861361237E0,3.928281097E0,8.885585931E0
3.520955000E-1,6.264472961E0,-6.149661713E0,4.054319000E0,9.669512047E0
3.621285000E-1,7.228767700E0,-6.298452301E0,4.021088104E0,1.039686171E1
3.721615000E-1,8.268804932E0,-6.219865723E0,3.804488525E0,1.102424589E1
3.821945000E-1,9.575138397E0,-5.900579681E0,3.480412445E0,1.177341865E1
3.922275000E-1,1.093116852E1,-5.346282349E0,3.072660370E0,1.255047497E1
4.022605000E-1,1.233330276E1,-4.712949371E0,2.452350311E0,1.342893409E1
4.122935000E-1,1.360490845E1,-4.004173279E0,1.694176941E0,1.428275789E1
4.223265000E-1,1.417222870E1,-3.356769562E0,8.346643066E-1,1.458823611E1
4.323595000E-1,1.394140869E1,-2.885998535E0,1.094224548E-1,1.423740978E1
4.423915000E-1,1.304162979E1,-2.487676849E0,-1.754351807E-1,1.327792985E1
4.524245000E-1,1.185729263E1,-2.153721313E0,5.281018066E-1,1.206286846E1
4.624575000E-1,1.115240845E1,-1.887574768E0,2.109712830E0,1.150608712E1
4.724905000E-1,1.044303360E1,-1.744771729E0,3.536994781E0,1.116295262E1
4.825235000E-1,9.789342957E0,-1.670675812E0,4.563709717E0,1.092931103E1
4.925565000E-1,9.480684814E0,-1.643133087E0,5.325924683E0,1.099766996E1
5.025895000E-1,9.508526917E0,-1.639091492E0,5.939049683E0,1.133009339E1
5.126225000E-1,9.740993500E0,-1.775757294E0,6.447841644E0,1.181587619E1
5.226555000E-1,1.038420593E1,-2.203567657E0,6.946155396E0,1.268607575E1
5.326875000E-1,1.125644211E1,-2.957549744E0,7.450307007E0,1.381888794E1
5.427205000E-1,1.201805832E1,-3.884422302E0,7.880662079E0,1.488715208E1
5.527535000E-1,1.265423538E1,-4.524790649E0,8.009693756E0,1.564476263E1
5.627865000E-1,1.371268433E1,-4.912484436E0,7.846233673E0,1.654489642E1
5.728195000E-1,1.536494843E1,-5.178630981E0,7.672744446E0,1.793797275E1
5.828525000E-1,1.757989243E1,-5.226980438E0,7.742649078E0,1.990785164E1
5.928855000E-1,1.983465363E1,-4.836891632E0,8.243507538E0,2.201736636E1
6.029185000E-1,2.166175415E1,-4.074676666E0,9.041049042E0,2.382383577E1
6.129515000E-1,2.233670059E1,-2.960094452E0,9.470805359E0,2.444149150E1
6.229845000E-1,2.228999771E1,-1.642534332E0,9.252259827E0,2.418979597E1
6.330165000E-1,2.149859344E1,-5.721102905E-1,8.518785095E0,2.313193744E1
6.430495000E-1,2.043819855E1,1.631607056E-2,7.742948456E0,2.185574242E1
6.530825000E-1,1.930715057E1,8.831634521E-2,7.278314667E0,2.063365521E1
6.631155000E-1,1.844838638E1,-3.290158081E-1,7.111860809E0,1.977447283E1
6.731485000E-1,1.800830154E1,-1.348994751E0,7.457492065E0,1.953798606E1
6.831815000E-1,1.776715302E1,-2.473007355E0,8.004903717E0,1.964347157E1
6.932143750E-1,1.779679138E1,-3.571273499E0,8.306077423E0,1.996173089E1
7.032473750E-1,1.771910294E1,-4.944368134E0,8.244405670E0,2.015895855E1
7.132803750E-1,1.753753052E1,-6.356381836E0,7.897726593E0,2.025691615E1
7.233133750E-1,1.686677536E1,-7.832612000E0,7.201823730E0,1.994252208E1
7.333453750E-1,1.603510483E1,-9.216334534E0,6.577023010E0,1.962963680E1
7.433783750E-1,1.494761627E1,-1.015727783E1,5.785618744E0,1.897563989E1
7.534113750E-1,1.451756058E1,-1.096320190E1,4.711153107E0,1.879218786E1
7.634443750E-1,1.595083008E1,-1.179562088E1,4.152963867E0,2.026851650E1
7.734773750E-1,1.816173248E1,-1.430814606E1,3.806284790E0,2.343201601E1
7.835103750E-1,2.171399551E1,-1.698338287E1,3.620221710E0,2.780357711E1
7.935433750E-1,2.447365677E1,-1.904235123E1,4.511468353E0,3.133567237E1
8.035763750E-1,2.499921387E1,-2.133049301E1,4.841981049E0,3.321739614E1
8.136093750E-1,2.387849442E1,-2.248668869E1,4.885091400E0,3.316169148E1
8.236413750E-1,2.156595337E1,-2.203747284E1,5.651647339E0,3.134775385E1
8.336743750E-1,1.908471313E1,-2.093456635E1,6.921157379E0,2.916135736E1
8.437073750E-1,1.724219467E1,-1.997655853E1,7.223678284E0,2.735941695E1
8.537403750E-1,1.540132278E1,-1.891107422E1,6.111191711E0,2.514311309E1
8.637733750E-1,1.300435730E1,-1.642010422E1,4.901856537E0,2.151188808E1
8.738063750E-1,1.071097641E1,-1.280302597E1,4.351750488E0,1.725051367E1
8.838393750E-1,8.954978027E0,-9.117689667E0,4.053869934E0,1.340737699E1
8.938723750E-1,7.680827637E0,-5.289101257E0,3.076552277E0,9.820126232E0
9.039053750E-1,6.661447449E0,-1.760339355E0,9.831555176E-1,6.959904563E0
9.139373750E-1,5.681136017E0,1.064286804E0,-1.548230438E0,5.983730470E0
9.239703750E-1,4.272415466E0,3.154091034E0,-4.338577881E0,6.857483664E0
9.340033750E-1,2.709964600E0,4.567451935E0,-6.841972046E0,8.661299370E0
9.440363750E-1,1.819765778E0,5.081632690E0,-8.857081604E0,1.037219518E1
9.540693750E-1,8.346643066E-1,4.613556061E0,-9.661359100E0,1.073887441E1
9.641023750E-1,-4.659809875E-1,4.123475189E0,-9.062155151E0,9.967087935E0
9.741353750E-1,-9.744735718E-1,3.906127167E0,-7.753426666E0,8.736306614E0
9.841683750E-1,-6.213578796E-1,3.478167114E0,-6.364015961E0,7.279040544E0
9.942013750E-1,-7.738906860E-2,2.758763123E0,-5.010829926E0,5.720592590E0
1.004234375E0,9.729766846E-2,2.082469482E0,-3.139870605E0,3.768943274E0
1.014266375E0,-2.656974792E-1,1.740580444E0,-1.042581940E0,2.046263066E0
1.024299375E0,-3.038681030E-1,1.593436432E0,2.797682190E-1,1.646100162E0
1.034332375E0,3.637435913E-1,1.022373962E0,8.178991699E-1,1.358866061E0
1.044365375E0,1.253193970E0,5.837860107E-2,1.357676697E0,1.848564091E0
1.054398375E0,2.005978546E0,-7.747888184E-1,2.015259247E0,2.947120200E0
1.064431375E0,2.386038208E0,-1.222956848E0,2.732417908E0,3.828173116E0
1.074464375E0,2.604134674E0,-1.318308563E0,3.219355316E0,4.345538346E0
1.084497375E0,2.890339508E0,-1.232836304E0,3.144211578E0,4.445223760E0
1.094530375E0,3.235671387E0,-1.078357544E0,2.671195221E0,4.332171306E0
1.104563375E0,3.150947571E0,-9.526190186E-1,2.148182831E0,3.930730602E0
1.114595375E0,2.635569305E0,-7.315287781E-1,1.832639008E0,3.292404235E0
1.124628375E0,2.140698395E0,-3.939807129E-1,1.663191376E0,2.739345902E0
1.134661375E0,1.683848419E0,-1.902543640E-1,1.490001526E0,2.256467764E0
1.144694375E0,1.174158325E0,-1.761836243E-1,1.340612183E0,1.790790179E0
1.154727375E0,6.248007202E-1,-1.856140137E-1,1.168170776E0,1.337703803E0
1.164760375E0,7.843688965E-2,-2.267784119E-1,9.232800293E-1,9.539532516E-1
1.174793375E0,-4.731660461E-1,-4.445755005E-1,6.565347290E-1,9.233478939E-1
1.184826375E0,-9.509724426E-1,-6.316864014E-1,3.673361206E-1,1.199296511E0
1.194859375E0,-1.189426575E0,-7.438032532E-1,4.191284180E-3,1.402852958E0
1.204891375E0,-1.259630585E0,-7.676037598E-1,-6.035449219E-1,1.593785185E0
1.214924375E0,-1.511856079E0,-8.081694031E-1,-1.284329224E0,2.142042983E0
1.224957375E0,-2.123783569E0,-6.560856628E-1,-2.042652283E0,3.018829805E0
1.234990375E0,-3.091521149E0,-1.170565796E-1,-2.812501373E0,4.181072737E0
1.245023375E0,-4.399800568E0,9.481283569E-1,-3.287313995E0,5.573475192E0
1.255056375E0,-5.749992828E0,1.971101074E0,-3.726800079E0,7.129985680E0
1.265089375E0,-6.977889404E0,2.453248444E0,-4.276457062E0,8.543854719E0
1.275122375E0,-7.601791992E0,2.607876892E0,-5.218597870E0,9.582381077E0
1.285155375E0,-6.951993256E0,2.059567108E0,-5.443879395E0,9.066854458E0
1.295188375E0,-5.791606293E0,6.116281128E-1,-4.731959839E0,7.503881417E0
1.305220375E0,-4.432283020E0,-1.285526733E0,-4.023632812E0,6.122689994E0
1.315253375E0,-3.749552765E0,-2.816542969E0,-3.701652374E0,5.974469895E0
1.325286375E0,-3.964505768E0,-3.508254547E0,-3.249592438E0,6.211683102E0
1.335319375E0,-3.019520874E0,-3.572620697E0,-2.100132751E0,5.127541568E0
1.345352375E0,-7.011419678E-1,-3.813619537E0,-2.086660767E-1,3.883147636E0
1.355385375E0,2.401456146E0,-4.929698639E0,1.994751892E0,5.835062588E0
1.365418375E0,6.288423157E0,-7.381599884E0,4.352648621E0,1.062910310E1
1.375451375E0,1.180729660E1,-1.083970871E1,7.624245300E0,1.774938462E1
1.385484375E0,1.700044739E1,-1.426593384E1,1.059571609E1,2.459270785E1
1.395517375E0,2.212099915E1,-1.699326233E1,1.297711395E1,3.076548479E1
1.405549375E0,2.752506134E1,-1.953931778E1,1.598016907E1,3.734675012E1
1.415582375E0,2.962908600E1,-1.987012985E1,1.852936798E1,4.020002830E1
1.425615375E0,2.723616211E1,-1.675076660E1,1.959051132E1,3.749913122E1
1.435648375E0,2.404689423E1,-1.448911972E1,1.716764969E1,3.290768767E1
1.445681375E0,2.092498627E1,-1.534369263E1,1.236518646E1,2.874337819E1
1.455714375E0,1.694775696E1,-1.465183136E1,9.374854889E0,2.428560340E1
1.465747375E0,1.409573776E1,-1.158815231E1,8.480614471E0,2.012202572E1
1.475780375E0,1.380564102E1,-8.850644989E0,7.108268280E0,1.787336338E1
1.485813375E0,1.549128571E1,-7.541317749E0,4.585264893E0,1.782907907E1
1.495845375E0,1.711181580E1,-7.041207733E0,1.735640717E0,1.858508259E1
1.505878375E0,1.777329025E1,-6.659202118E0,-1.151255951E0,1.901473664E1
1.515911375E0,1.798465073E1,-6.484066315E0,-3.765868835E0,1.948518786E1
1.525944375E0,1.844464417E1,-6.500681763E0,-5.409600677E0,2.029107048E1
1.535977375E0,1.905612259E1,-6.208339691E0,-5.632038116E0,2.081824064E1
1.546010375E0,1.937870178E1,-5.679938507E0,-4.360582123E0,2.065939158E1
1.556043375E0,1.915521652E1,-5.649551697E0,-2.518063660E0,2.012909335E1
1.566076375E0,1.883263733E1,-6.035000153E0,-4.086502075E-1,1.978020350E1
1.576109375E0,1.829271011E1,-6.632707214E0,1.913321228E0,1.955190135E1
1.586142375E0,1.772988052E1,-7.134613495E0,3.861669617E0,1.949779129E1
1.596174375E0,1.734607864E1,-7.437733154E0,5.013674011E0,1.952801183E1
1.606207375E0,1.681094147E1,-7.796986084E0,5.230123901E0,1.925499782E1
1.616240375E0,1.595157852E1,-7.996371460E0,4.745880890E0,1.846397030E1
1.626273375E0,1.483505035E1,-8.014184418E0,3.603905640E0,1.724221583E1
1.636306375E0,1.412462769E1,-8.017627258E0,2.693947906E0,1.646343857E1
1.646339375E0,1.462069611E1,-8.013286285E0,2.490970001E0,1.685771169E1
1.656372375E0,1.590727066E1,-8.279133453E0,2.836002502E0,1.815566636E1
1.666405375E0,1.744472351E1,-8.816515961E0,3.434158630E0,1.984547247E1
1.676438375E0,1.851799164E1,-9.466763763E0,3.991898804E0,2.117713122E1
1.686471750E0,1.883563110E1,-1.007644592E1,4.526586914E0,2.183588218E1
1.696503750E0,1.875719421E1,-1.072310120E1,4.944966888E0,2.216460989E1
1.706536750E0,1.917587357E1,-1.136481674E1,5.338947601E0,2.292111577E1
1.716569750E0,2.028207321E1,-1.203527252E1,5.795049133E0,2.428565158E1
1.726602750E0,2.119712036E1,-1.255768616E1,6.013744354E0,2.536096438E1
1.736635750E0,2.109667923E1,-1.247640518E1,5.555397491E0,2.513151412E1
1.746668750E0,1.954590408E1,-1.179247742E1,4.793032837E0,2.332548078E1
1.756701750E0,1.733081039E1,-1.075333832E1,3.931274872E0,2.077128297E1
1.766734750E0,1.518996231E1,-9.738598480E0,2.843786316E0,1.826642756E1
1.776767750E0,1.218600906E1,-9.170230408E0,2.314337311E0,1.542556643E1
1.786799750E0,9.504036255E0,-7.919730835E0,1.929337921E0,1.252083010E1
1.796832750E0,7.433541870E0,-6.268963623E0,1.829495544E0,9.894670464E0
1.806865750E0,4.911286926E0,-4.704117737E0,1.611848145E0,6.989099899E0
1.816898750E0,3.079995117E0,-2.777623901E0,1.051114197E0,4.278598546E0
1.826931750E0,2.128274231E0,-7.104226685E-1,3.213816833E-1,2.266613720E0
1.836964750E0,9.467811584E-1,1.136736145E0,-8.159532166E-1,1.689480180E0
1.846997750E0,-8.723858643E-1,2.881208496E0,-1.965712280E0,3.595336460E0
1.857030750E0,-2.343825989E0,4.272265778E0,-3.005749512E0,5.725408742E0
1.867063750E0,-2.979703674E0,4.685855713E0,-3.718417511E0,6.683001312E0
1.877096750E0,-2.731070709E0,4.175267487E0,-4.378844147E0,6.638213756E0
1.887128750E0,-1.828447723E0,3.277883606E0,-4.760849762E0,6.062460925E0
1.897161750E0,-1.110390930E0,2.147733765E0,-4.265829163E0,4.903368922E0
1.907194750E0,-1.013242950E0,1.243314514E0,-3.162174225E0,3.545678791E0
1.917227750E0,-8.973838806E-1,7.991880798E-1,-2.001188507E0,2.334256810E0
1.927260750E0,-4.656816101E-1,4.095483398E-1,-7.902067566E-1,1.004497846E0
1.937293750E0,1.353186035E-1,1.222956848E-1,2.423460388E-1,3.033133059E-1
1.947326750E0,9.967771912E-1,-5.942642212E-2,8.872050476E-1,1.335750375E0
1.957359750E0,1.842368774E0,-3.035687256E-1,1.338067474E0,2.297150678E0
1.967392750E0,2.275118866E0,-6.231541443E-1,1.800904999E0,2.967784655E0
1.977425750E0,2.347568207E0,-1.079255676E0,2.312541046E0,3.467522947E0
1.987457750E0,2.418071594E0,-1.552272034E0,2.873724060E0,4.063853919E0
1.997490750E0,2.512525177E0,-1.868115234E0,3.488795013E0,4.687678310E0
2.007523750E0,2.406395874E0,-1.957479401E0,3.908222809E0,4.989656524E0
2.017556750E0,2.251617737E0,-1.952389984E0,4.106260986E0,5.073754859E0
2.027589750E0,1.785936127E0,-1.866468658E0,3.557651825E0,4.396607739E0
2.037622750E0,1.101259918E0,-1.771116943E0,2.509082336E0,3.262686440E0
2.047655750E0,9.062155151E-1,-1.763033752E0,1.816622314E0,2.688797353E0
2.057688750E0,3.845503235E-1,-1.669478302E0,1.345402222E0,2.178335119E0
2.067721750E0,-2.844085693E-3,-1.264270935E0,7.411088562E-1,1.465479929E0
2.077754750E0,5.224136353E-2,-8.602610779E-1,2.538720703E-1,8.984594094E-1
2.087786750E0,2.914439392E-1,-5.589376831E-1,-9.879455566E-2,6.380527153E-1
2.097819750E0,6.101312256E-1,-1.893562317E-1,-3.951782227E-1,7.511868759E-1
2.107852750E0,8.146060181E-1,1.513352966E-1,-6.330335999E-1,1.042696924E0
2.117885750E0,7.156617737E-1,2.850073242E-1,-9.162446594E-1,1.197040194E0
2.127918750E0,4.305047607E-1,2.501298523E-1,-1.294508057E0,1.386957245E0
2.137951750E0,-2.371069336E-1,2.487826538E-1,-1.523232422E0,1.561521539E0
2.147984750E0,-9.156459045E-1,4.920268250E-1,-1.603166199E0,1.910664722E0
2.158017750E0,-1.347048798E0,6.960525513E-1,-1.640438690E0,2.233846171E0
2.168050750E0,-1.497336273E0,6.472540283E-1,-1.775308228E0,2.410948567E0
2.178083750E0,-1.515598297E0,3.655398560E-1,-2.170935516E0,2.672754871E0
2.188115750E0,-1.560205536E0,3.143463135E-3,-2.579585724E0,3.014716189E0
2.198148750E0,-1.483864288E0,-1.519340515E-1,-2.713856506E0,3.096765138E0
2.208181750E0,-1.115180969E0,-1.136137390E-1,-2.468217316E0,2.710836290E0
2.218214750E0,-6.310876465E-1,-1.609153748E-1,-1.988764343E0,2.092689415E0
2.228247750E0,-3.293151855E-2,-3.228785706E-1,-1.609303436E0,1.641704177E0
2.238280750E0,8.295748901E-1,-6.292913818E-1,-1.482367401E0,1.811522910E0
2.248313750E0,2.001487885E0,-1.115779724E0,-1.366807709E0,2.668160688E0
2.258346750E0,3.771407318E0,-1.819765778E0,-9.693841553E-1,4.298228273E0
2.268379750E0,6.889123993E0,-2.922821960E0,-1.809736633E-1,7.485697634E0
2.278412750E0,1.214394653E1,-5.197042694E0,1.001567230E0,1.324718185E1
2.288444750E0,1.865720215E1,-9.283993835E0,3.090323639E0,2.106736419E1
2.298477750E0,2.586920471E1,-1.414214127E1,6.530170441E0,3.019700379E1
2.308510750E0,3.173311066E1,-1.753558456E1,1.081710571E1,3.783512672E1
2.318543750E0,3.113076324E1,-1.689297089E1,1.439855804E1,3.823369403E1
2.328576750E0,2.614597916E1,-1.251876709E1,1.500150421E1,3.264011158E1
2.338609750E0,2.253893005E1,-9.489965515E0,1.174502609E1,2.712947569E1
2.348642750E0,2.088756409E1,-9.116492157E0,7.069349213E0,2.386161061E1
2.358675750E0,1.892918655E1,-8.272397461E0,3.810925140E0,2.100642316E1
2.368708750E0,1.704595276E1,-6.805148621E0,3.762126617E0,1.873574525E1
2.378741750E0,1.573303299E1,-5.537135468E0,5.465733948E0,1.755170772E1
2.388773750E0,1.542482391E1,-4.519252167E0,6.452332306E0,1.731997186E1
2.398806750E0,1.593990280E1,-4.135749664E0,6.086193695E0,1.755638574E1
2.408839750E0,1.690150314E1,-4.160597992E0,4.804109802E0,1.805687833E1
2.418872750E0,1.753663239E1,-4.112547913E0,3.025358734E0,1.826470151E1
2.428905750E0,1.768602173E1,-3.867507477E0,1.657054138E0,1.817962615E1
2.438938750E0,1.794183975E1,-3.835025024E0,1.289568329E0,1.839239020E1
2.448971750E0,1.747286499E1,-3.992048492E0,1.554517365E0,1.799038594E1
2.459004750E0,1.692066330E1,-4.220623169E0,1.880689087E0,1.754022514E1
2.469037750E0,1.644974258E1,-4.622687073E0,2.458936615E0,1.726295560E1
2.479070750E0,1.604333771E1,-5.254822540E0,3.697161713E0,1.728209621E1
2.489102750E0,1.586520813E1,-5.923781433E0,4.808750153E0,1.760454752E1
2.499135750E0,1.553783890E1,-6.415508881E0,5.448968811E0,1.767128894E1
2.509168750E0,1.482936218E1,-6.866670685E0,5.875132599E0,1.736601083E1
2.519201750E0,1.399170410E1,-7.272177429E0,6.361321564E0,1.700349259E1
2.529234750E0,1.396910110E1,-7.599696350E0,7.000193024E0,1.737509346E1
2.539267750E0,1.460168564E1,-7.903414764E0,7.633975067E0,1.827431979E1
2.549300750E0,1.518262756E1,-8.123756561E0,8.012537842E0,1.899232379E1
2.559333750E0,1.582329529E1,-8.010591888E0,7.914342041E0,1.942120146E1
2.569366750E0,1.678773972E1,-7.870333557E0,7.720944214E0,2.008440526E1
2.579399750E0,1.824421097E1,-8.331524506E0,7.613916779E0,2.145314110E1
2.589431750E0,1.989213409E1,-9.329948273E0,7.586523743E0,2.324436009E1
2.599464750E0,2.109712830E1,-1.072429871E1,7.690108337E0,2.488447651E1
2.609497750E0,2.165666473E1,-1.171868088E1,7.999664612E0,2.589079456E1
2.619530750E0,2.169229065E1,-1.154983200E1,7.916138306E0,2.581897245E1
2.629563750E0,2.088202560E1,-1.039154068E1,7.492818604E0,2.449868245E1
2.639596750E0,1.941118423E1,-9.111402740E0,6.829398193E0,2.250449762E1
2.649629750E0,1.741014542E1,-8.452173615E0,5.871989136E0,2.022455583E1
2.659662750E0,1.497860184E1,-8.463250580E0,4.698579254E0,1.783428637E1
2.669695750E0,1.301483551E1,-7.738457794E0,3.642675018E0,1.557365576E1
2.679727750E0,1.139580231E1,-6.164929962E0,2.901865540E0,1.327748076E1
2.689760000E0,9.156009979E0,-4.539909210E0,2.205513611E0,1.045502677E1
2.699793000E0,6.511159973E0,-2.830014954E0,1.394200745E0,7.235190706E0
2.709826000E0,4.390968933E0,-1.019978943E0,4.236190796E-1,4.527738767E0
2.719859000E0,3.113375702E0,6.218069458E-1,-9.298663330E-1,3.308232691E0
2.729892000E0,2.271526337E0,1.741927643E0,-2.482437744E0,3.789015831E0
2.739925000E0,1.272803192E0,2.695145416E0,-3.731739807E0,4.775952132E0
2.749958000E0,2.041754150E-1,3.612288208E0,-4.625980225E0,5.872819318E0
2.759991000E0,-5.965095520E-1,4.248614960E0,-5.082830200E0,6.651444622E0
2.770024000E0,-8.837622070E-1,4.606670380E0,-5.004093933E0,6.858819411E0
2.780056000E0,-6.039939880E-1,4.674479370E0,-4.475243683E0,6.499490145E0
2.790089000E0,-3.547622681E-2,4.404590607E0,-3.523073730E0,5.640365723E0
2.800122000E0,9.969268799E-2,4.000580750E0,-2.228715363E0,4.580584802E0
2.810155000E0,4.830455017E-1,3.587888947E0,-1.179547119E0,3.807572909E0
2.820188000E0,8.771759033E-1,3.013383636E0,-4.022135925E-1,3.164126148E0
2.830221000E0,1.201701050E0,2.382146301E0,7.604187012E-2,2.669173801E0
2.840254000E0,1.225501556E0,1.773212585E0,1.056802368E-1,2.158079065E0
2.850287000E0,1.456471252E0,1.127006378E0,3.457809448E-2,1.841914094E0
2.860320000E0,1.860481110E0,3.369493103E-1,-9.729766846E-3,1.890772188E0
2.870353000E0,2.099084930E0,-5.513035583E-1,3.577560425E-2,2.170569753E0
2.880385000E0,2.160457306E0,-1.269060974E0,3.064128113E-1,2.524278182E0
2.890418000E0,2.101479950E0,-1.705403595E0,8.439450073E-1,2.834936080E0
2.900451000E0,1.951940918E0,-1.930236053E0,1.351838837E0,3.059959609E0
2.910484000E0,1.754202118E0,-1.908680878E0,1.710792389E0,3.105977843E0
2.920517000E0,1.391805725E0,-1.707499237E0,2.051034851E0,3.009887171E0
2.930550000E0,1.260528717E0,-1.348695374E0,2.324665833E0,2.968498457E0
2.940583000E0,1.186582489E0,-8.945397949E-1,2.495909729E0,2.904779651E0
2.950616000E0,9.330097961E-1,-4.673281860E-1,2.565964050E0,2.770031484E0
2.960649000E0,8.143066406E-1,-2.709365845E-2,2.553539886E0,2.680372236E0
2.970682000E0,9.434880066E-1,5.092410278E-1,2.474504242E0,2.696788328E0
2.980714000E0,1.171014862E0,9.592053223E-1,2.124232635E0,2.608393173E0
2.990747000E0,1.370849304E0,1.141226807E0,1.429377594E0,2.285770493E0
3.000780000E0,1.308279419E0,1.251397705E0,4.267625427E-1,1.860031592E0
3.010813000E0,1.084045715E0,1.579964447E0,-5.773493958E-1,2.001193417E0
3.020846000E0,8.577163696E-1,1.932331696E0,-1.462458801E0,2.570674794E0
3.030879000E0,7.797285461E-1,2.110910339E0,-1.954934692E0,2.980887237E0
3.040912000E0,6.849755859E-1,2.039808197E0,-2.066303101E0,2.983222676E0
3.050945000E0,3.956272888E-1,1.657952271E0,-2.046544189E0,2.663394414E0
3.060978000E0,-7.559280396E-2,1.074016571E0,-1.919458466E0,2.200805913E0
3.071011000E0,-5.043013000E-1,4.837939453E-1,-1.570234680E0,1.718724333E0
3.081043000E0,-7.379653931E-1,1.122665405E-2,-9.967771912E-1,1.240275666E0
3.091076000E0,-1.241967316E0,-4.869374084E-1,-4.038601685E-1,1.393805542E0
3.101109000E0,-1.725761261E0,-8.758287048E-1,1.592687988E-1,1.941827593E0
3.111142000E0,-2.012265472E0,-1.159937897E0,5.746549988E-1,2.392675620E0
3.121175000E0,-2.138003998E0,-1.461261292E0,5.771997070E-1,2.653206580E0
3.131208000E0,-1.695374451E0,-1.598825226E0,4.393363953E-1,2.371403192E0
3.141241000E0,-5.622308350E-1,-1.808838501E0,4.203259277E-1,1.940276815E0
3.151274000E0,1.512903900E0,-2.419867859E0,8.201445007E-1,2.969389780E0
3.161307000E0,4.852159882E0,-3.604654083E0,1.483564911E0,6.223981959E0
3.171340000E0,9.556127930E0,-5.770500183E0,3.342100067E0,1.165280594E1
3.181372000E0,1.519265671E1,-8.839717712E0,6.190377045E0,1.863540166E1
3.191405000E0,2.173480225E1,-1.258492950E1,9.963880005E0,2.701964071E1
3.201438000E0,2.819866058E1,-1.591819794E1,1.380130005E1,3.519984897E1
3.211471000E0,2.938928467E1,-1.703861801E1,1.509670624E1,3.717465664E1
3.221504000E0,2.390199554E1,-1.414333878E1,1.327050385E1,3.078060583E1
3.231537000E0,1.795740738E1,-1.048988617E1,9.545200653E0,2.288268007E1
3.241570000E0,1.444361435E1,-9.320068817E0,5.583988037E0,1.807380980E1
3.251603000E0,1.260887970E1,-9.424102478E0,3.524570618E0,1.613134070E1
3.261636000E0,1.248808090E1,-9.134155426E0,4.427043915E0,1.609296982E1
3.271669000E0,1.297636551E1,-8.287366333E0,6.370302887E0,1.666275072E1
3.281701000E0,1.336869965E1,-7.215146027E0,7.470814362E0,1.692907350E1
3.291734000E0,1.445169754E1,-5.993835754E0,7.645950165E0,1.741373546E1
3.301767000E0,1.596325424E1,-4.841831360E0,6.739285583E0,1.799129754E1
3.311800000E0,1.786998917E1,-3.814218292E0,5.077441406E0,1.896484076E1
3.321833000E0,1.988195526E1,-3.017874298E0,3.631148987E0,2.043489548E1
3.331866000E0,2.152778275E1,-2.616858215E0,3.146606598E0,2.191334091E1
3.341899000E0,2.221156082E1,-2.683918762E0,3.291056213E0,2.261388744E1
3.351932000E0,2.176608719E1,-3.321143646E0,3.490591278E0,2.229297589E1
3.361965000E0,2.033162018E1,-4.414619751E0,3.829187164E0,2.115481791E1
3.371998000E0,1.856259888E1,-5.653892670E0,4.082161102E0,1.982928689E1
3.382030000E0,1.690105408E1,-6.729705505E0,4.677173767E0,1.878325104E1
3.392063000E0,1.600052673E1,-7.444469147E0,5.533093872E0,1.849465070E1
3.402096000E0,1.552361847E1,-7.936196594E0,5.954916687E0,1.842354416E1
3.412129000E0,1.511691422E1,-8.301437073E0,5.709726562E0,1.816689105E1
3.422162000E0,1.502186188E1,-8.432564392E0,5.471272430E0,1.807482499E1
3.432195000E0,1.577225143E1,-8.381370850E0,5.570965118E0,1.870954155E1
3.442228000E0,1.688563614E1,-8.424780579E0,5.599705353E0,1.968396138E1
3.452261000E0,1.868489456E1,-8.816665649E0,5.672903137E0,2.142523531E1
3.462294000E0,2.091241241E1,-9.383536835E0,6.182443542E0,2.374031096E1
3.472327000E0,2.251991959E1,-9.780960388E0,6.880891113E0,2.549824752E1
3.482359000E0,2.375994095E1,-9.953102417E0,7.788154449E0,2.691197487E1
3.492392000E0,2.457319977E1,-9.941426697E0,8.701105957E0,2.789952251E1
3.502425000E0,2.457679230E1,-9.938582611E0,8.749156036E0,2.791669528E1
3.512458000E0,2.390094772E1,-1.029858398E1,7.926915894E0,2.720573707E1
3.522491000E0,2.285222855E1,-1.077624069E1,7.095993805E0,2.624318656E1
3.532524000E0,2.097647919E1,-1.068223618E1,6.437513123E0,2.440418866E1
3.542557000E0,1.834869370E1,-1.010698242E1,5.864205322E0,2.175349531E1
3.552590000E0,1.581566116E1,-9.572294312E0,5.098397827E0,1.917700750E1
3.562623000E0,1.345641724E1,-9.094338226E0,3.900738373E0,1.670323060E1
3.572655000E0,1.118593872E1,-8.540040894E0,2.660118256E0,1.432249115E1
3.582688000E0,9.115294647E0,-7.466772766E0,1.718725891E0,1.190778362E1
3.592721000E0,7.192243652E0,-5.730682983E0,9.586065674E-1,9.245973327E0
3.602754000E0,5.088518372E0,-3.789819031E0,3.224295044E-1,6.352929111E0
3.612787000E0,3.086731110E0,-2.006577301E0,-1.184037781E-1,3.683514743E0
3.622820000E0,1.643731842E0,-4.173321533E-1,-4.430786133E-1,1.752808932E0
3.632853000E0,1.176553345E0,9.226812744E-1,-7.584727478E-1,1.676573713E0
3.642886000E0,1.523681488E0,1.999092865E0,-1.201102295E0,2.785789705E0
3.652919000E0,2.220781860E0,3.028651886E0,-1.896406403E0,4.207251069E0
3.662952000E0,2.906505890E0,4.102967834E0,-2.915487213E0,5.812244595E0
3.672984000E0,3.059487762E0,4.733157349E0,-3.972439270E0,6.895180752E0
3.683017000E0,2.546654205E0,4.714446259E0,-4.622088318E0,7.076379836E0
3.693049792E0,1.626517639E0,4.652325439E0,-4.810845795E0,6.887229406E0
3.703082792E0,5.351371765E-1,4.919669495E0,-4.467759247E0,6.667112750E0
3.713115792E0,-4.101470947E-2,4.972210236E0,-3.757336578E0,6.232345866E0
3.723148792E0,-2.445913696E-1,4.750670929E0,-2.594404907E0,5.418453288E0
3.733181792E0,-3.905378723E-1,4.449197845E0,-1.111588440E0,4.602554742E0
3.743214792E0,-8.666976929E-2,4.133803711E0,3.248245239E-2,4.134839765E0
3.753247792E0,5.420228577E-1,3.525169373E0,5.227130127E-1,3.604696489E0
3.763280792E0,1.252894592E0,2.711311798E0,6.897656250E-1,3.065409131E0
3.773313792E0,1.924398193E0,1.790277100E0,7.569758606E-1,2.735217168E0
3.783345792E0,2.465971985E0,7.270381165E-1,1.084345093E0,2.790234136E0
3.793378792E0,2.822829895E0,-4.263134766E-1,1.488504639E0,3.219589703E0
3.803411792E0,2.374362488E0,-1.637145538E0,1.672621765E0,3.333992547E0
3.813444792E0,1.385668488E0,-2.660267944E0,2.233954468E0,3.740007387E0
3.823477792E0,2.659968567E-1,-3.363505554E0,3.069816284E0,4.561545348E0
3.833510792E0,-6.843768311E-1,-3.901636505E0,3.777095490E0,5.473352666E0
3.843543792E0,-1.320404205E0,-4.352798309E0,3.902684326E0,5.993435187E0
3.853576792E0,-1.573976898E0,-4.525988159E0,3.411256256E0,5.882060977E0
3.863609792E0,-1.364412689E0,-4.214934998E0,2.647394714E0,5.161007440E0
3.873641792E0,-8.143066406E-1,-3.498225403E0,1.888772278E0,4.058095242E0
3.883674792E0,-4.296066284E-2,-2.693947906E0,1.303639069E0,2.993104703E0
3.893707792E0,8.387059021E-1,-1.991309052E0,8.473878479E-1,2.320949266E0
3.903740792E0,1.318907318E0,-1.418600006E0,5.909710693E-1,2.025139328E0
3.913773792E0,1.513652344E0,-8.170010376E-1,5.183720398E-1,1.796480917E0
3.923806792E0,1.619033203E0,-2.549198914E-1,4.733157349E-1,1.705954410E0
3.933839792E0,1.428928528E0,5.972579956E-2,3.858975220E-1,1.481324004E0
3.943872792E0,1.055305481E0,4.311035156E-2,1.923500061E-1,1.073557956E0
3.953905792E0,5.123844910E-1,-7.469467163E-2,1.133143616E-1,5.300540587E-1
3.963938792E0,-2.285746765E-1,-1.311273193E-1,2.380050659E-1,3.550875498E-1
3.973971792E0,-8.747808838E-1,-1.493893433E-1,5.068460083E-1,1.021984171E0
3.984003792E0,-1.402583313E0,-2.418969727E-1,7.464976501E-1,1.607175422E0
3.994036792E0,-1.792522430E0,-3.649411011E-1,9.900411987E-1,2.080024097E0
4.004069792E0,-1.999392242E0,-4.123924255E-1,9.455836487E-1,2.249836725E0
4.014102792E0,-2.303410034E0,-6.397695923E-1,2.944377136E-1,2.408671103E0
4.024135792E0,-2.891237640E0,-9.255253601E-1,-5.123844910E-1,3.078699425E0
4.034168792E0,-3.463946686E0,-1.041833496E0,-1.240919495E0,3.824163290E0
4.044201792E0,-3.931424561E0,-1.153201904E0,-1.916913757E0,4.523331964E0
4.054234792E0,-4.224964142E0,-1.483415222E0,-2.412383423E0,5.086298900E0
4.064267792E0,-4.150718536E0,-1.965861969E0,-2.933150482E0,5.449444871E0
4.074299792E0,-3.739373932E0,-2.385140076E0,-3.384911041E0,5.579375712E0
4.084332792E0,-2.337389374E0,-2.681673431E0,-3.331023102E0,4.873446048E0
4.094365792E0,2.529739380E-1,-3.160827026E0,-2.733615417E0,4.186582921E0
4.104398792E0,5.354365540E0,-5.151537323E0,-1.477128296E0,7.575584144E0
4.114431792E0,1.298414932E1,-9.573042755E0,1.584904175E0,1.620935540E1
4.124464792E0,2.287977127E1,-1.546449142E1,8.640631714E0,2.893604923E1
4.134497792E0,3.159165482E1,-2.083202957E1,1.825079727E1,4.201306596E1
4.144530792E0,3.504272827E1,-2.098830460E1,2.436468338E1,4.756195466E1
4.154563792E0,3.179792587E1,-1.424183395E1,2.493589554E1,4.284549930E1
4.164596792E0,2.936413696E1,-5.617069244E0,2.027354095E1,3.612229878E1
4.174628792E0,2.953912308E1,-1.187929688E0,1.361538666E1,3.254765311E1
4.184661792E0,2.648292847E1,-1.222208405E0,7.513026581E0,2.755512406E1
4.194694792E0,2.036859329E1,-3.331472168E0,4.859794006E0,2.120367650E1
4.204727792E0,1.543111084E1,-5.420677643E0,6.126310272E0,1.746523992E1
4.214760792E0,1.276261002E1,-6.818620605E0,7.357050934E0,1.623280628E1
4.224793792E0,1.178454391E1,-7.104675751E0,6.806495819E0,1.535188191E1
4.234826792E0,1.197584610E1,-6.237079926E0,4.911137238E0,1.436806615E1
4.244859792E0,1.235096603E1,-4.565206604E0,2.589016113E0,1.341977935E1
4.254892792E0,1.289119263E1,-2.702180786E0,4.475692749E-1,1.317895848E1
4.264925792E0,1.383228561E1,-1.512155457E0,-6.324348450E-1,1.392906003E1
4.274957792E0,1.528202087E1,-1.281335449E0,-3.323089600E-2,1.533568019E1
4.284990792E0,1.643043274E1,-1.941762085E0,1.724264374E0,1.663438149E1
4.295023792E0,1.729548386E1,-2.947670288E0,4.144880676E0,1.802782732E1
4.305056792E0,1.771595947E1,-3.841611328E0,6.363716583E0,1.921223793E1
4.315089792E0,1.692709991E1,-4.276007996E0,7.757318573E0,1.910463157E1
4.325122792E0,1.568513260E1,-4.049079895E0,8.286318512E0,1.819564528E1
4.335155792E0,1.456710754E1,-3.504212952E0,8.438551941E0,1.719561832E1
4.345188792E0,1.409693527E1,-3.040776672E0,8.906179504E0,1.694962950E1
4.355221792E0,1.423524765E1,-2.732118530E0,9.480235748E0,1.731997740E1
4.365254792E0,1.506093063E1,-2.558180237E0,9.893526306E0,1.820048847E1
4.375286792E0,1.605785751E1,-2.643353119E0,1.016176849E1,1.918602727E1
4.385319792E0,1.685045929E1,-2.784210205E0,1.065214874E1,2.012853888E1
4.395352792E0,1.755998383E1,-3.153043213E0,1.113639175E1,2.103126089E1
4.405385792E0,1.781999313E1,-3.831881561E0,1.099927689E1,2.128895403E1
4.415418792E0,1.813897980E1,-4.722828827E0,1.075573334E1,2.161049513E1
4.425451792E0,1.912647629E1,-5.691763916E0,1.118099899E1,2.287428710E1
4.435484792E0,2.034045181E1,-6.665489044E0,1.178080170E1,2.443256050E1
4.445517792E0,1.998239639E1,-7.599846039E0,1.117965179E1,2.412547284E1
4.455550792E0,1.912872162E1,-8.054450684E0,1.035426819E1,2.319467690E1
4.465583792E0,1.852053635E1,-8.110134888E0,1.014440460E1,2.262064321E1
4.475615792E0,1.826771210E1,-7.999664612E0,1.003243744E1,2.232383793E1
4.485648792E0,1.827235245E1,-8.462202759E0,8.884025574E0,2.200939913E1
4.495681792E0,1.777628403E1,-9.625284119E0,6.812932434E0,2.133209827E1
4.505714792E0,1.670556061E1,-1.059975769E1,5.384153595E0,2.050413930E1
4.515747792E0,1.560280380E1,-1.076935501E1,5.274282074E0,1.967853006E1
4.525780792E0,1.462294144E1,-1.049183212E1,5.963598633E0,1.895978550E1
4.535813792E0,1.391970383E1,-1.000773880E1,6.689289551E0,1.840270592E1
4.545846792E0,1.294732590E1,-9.265881500E0,7.196285248E0,1.747215869E1
4.555879792E0,1.192989166E1,-8.100554810E0,7.709418182E0,1.635164921E1
4.565912792E0,1.131062943E1,-6.403982849E0,7.240144043E0,1.487820621E1
4.575944792E0,1.040920395E1,-4.628824310E0,5.399122467E0,1.260666747E1
4.585977792E0,9.111253052E0,-2.672542419E0,2.624941406E0,9.851280756E0
4.596010792E0,7.454198914E0,-8.387059021E-1,-4.722679138E-1,7.516085817E0
4.606043792E0,5.370531921E0,3.559597778E-1,-3.414250031E0,6.373886079E0
4.616076792E0,3.053500214E0,1.228495331E0,-5.603746948E0,6.498849451E0
4.626109792E0,8.762777710E-1,2.264341278E0,-6.547983398E0,6.983637358E0
4.636142792E0,-5.444178772E-1,3.296145630E0,-6.391558685E0,7.212003138E0
4.646175792E0,-4.692741394E-1,4.081712036E0,-5.729485474E0,7.050361349E0
4.656208792E0,4.055067444E-1,4.619842987E0,-4.787045288E0,6.665072208E0
4.666241792E0,8.273295593E-1,4.649481354E0,-4.139192505E0,6.279734521E0
4.676273792E0,9.795629883E-1,4.250710602E0,-3.896098022E0,5.848731834E0
4.686306792E0,8.497828674E-1,3.776646423E0,-3.293002167E0,5.082229078E0
4.696340292E0,1.050066376E0,3.239413605E0,-2.236948242E0,4.074356064E0
4.706373292E0,1.481469269E0,2.637814636E0,-1.005608826E0,3.188113292E0
4.716406292E0,2.104024658E0,1.973945160E0,1.281335449E-1,2.887870749E0
4.726439292E0,2.914439392E0,1.244811401E0,8.887019348E-1,3.291398415E0
4.736472292E0,3.542383575E0,3.752696228E-1,1.177002411E0,3.751618765E0
4.746505292E0,3.923491058E0,-4.433779907E-1,1.131796417E0,4.107472368E0
4.756538292E0,4.171375580E0,-9.053173828E-1,1.138831787E0,4.417794883E0
4.766571292E0,4.191134491E0,-1.029259644E0,1.343605957E0,4.519984591E0
4.776603292E0,4.013304291E0,-8.979826355E-1,1.692680054E0,4.447263193E0
4.786636292E0,3.817212067E0,-6.307882690E-1,2.106719055E0,4.405367973E0
4.796669292E0,3.686234436E0,-3.498225403E-1,2.463427277E0,4.447378337E0
4.806702292E0,3.634891205E0,-1.294807434E-1,2.714006195E0,4.538174629E0
4.816735292E0,3.532953186E0,-1.077758789E-2,2.828518066E0,4.525747322E0
4.826768292E0,3.420387268E0,6.197113037E-2,2.909499664E0,4.490888306E0
4.836801292E0,3.254681854E0,1.537303162E-1,2.943628693E0,4.391074682E0
4.846834292E0,3.084036713E0,1.820214844E-1,2.838247833E0,4.195243143E0
4.856867292E0,3.028502197E0,1.154100037E-1,2.551444244E0,3.961693168E0
4.866900292E0,2.820584564E0,-1.916015625E-2,2.167193298E0,3.557076213E0
4.876933292E0,2.539768524E0,-1.350192261E-1,1.820514221E0,3.127766995E0
4.886965292E0,2.291734314E0,-9.445358276E-2,1.530267792E0,2.757297075E0
4.896998292E0,2.129322052E0,-1.392105103E-2,1.334624634E0,2.513051752E0
4.907031292E0,1.988015900E0,3.053649902E-2,1.198258209E0,2.321413886E0
4.917064292E0,1.919009399E0,6.511459351E-2,1.126257935E0,2.226048948E0
4.927097292E0,1.941013641E0,9.460327148E-2,1.154698792E0,2.260489556E0
4.937130292E0,1.890718231E0,9.984237671E-2,1.195563812E0,2.239231288E0
4.947163292E0,1.854194183E0,6.646179199E-2,1.152752838E0,2.184328809E0
4.957196292E0,1.811532898E0,-5.179229736E-2,9.964778137E-1,2.068163900E0
4.967229292E0,1.646725616E0,-1.775308228E-1,7.150630188E-1,1.804033694E0
4.977261292E0,1.280886383E0,-3.179388428E-1,4.938230896E-1,1.409118972E0
4.987294292E0,8.568182373E-1,-3.586541748E-1,4.076023865E-1,1.014352017E0
4.997327292E0,5.522016907E-1,-2.658471680E-1,3.486250305E-1,7.050821483E-1
5.007360292E0,4.080514526E-1,-2.333647156E-1,2.745291138E-1,5.443632177E-1
5.017393292E0,3.338058472E-1,-3.296145630E-1,1.733395386E-1,5.001186853E-1
5.027426292E0,3.149450684E-1,-3.614982605E-1,9.819580078E-2,4.894014750E-1
5.037459292E0,2.950364685E-1,-2.760260010E-1,1.124162292E-1,4.193736753E-1
5.047492292E0,1.794767761E-1,-1.924996948E-1,2.249821472E-1,3.462441512E-1
5.057525292E0,-2.320175171E-1,-2.267784119E-1,3.466790771E-1,4.748125513E-1
5.067558292E0,-6.933581543E-1,-3.263214111E-1,3.923341370E-1,8.609049126E-1
5.077591292E0,-7.683522034E-1,-1.863624573E-1,1.933978271E-1,8.139402886E-1
5.087623292E0,3.555107117E-1,-3.820056152E-1,-4.689747620E-1,7.016077847E-1
5.097656292E0,2.692301331E0,-2.346221008E0,-2.526745605E0,4.374663739E0
5.107689292E0,5.831273804E0,-6.625522156E0,-4.823569336E0,1.005823638E1
5.117722292E0,9.351054382E0,-1.101828735E1,-2.736309814E0,1.470823802E1
5.127755292E0,1.583182755E1,-1.307875259E1,4.571792908E0,2.103810408E1
5.137788292E0,2.493544647E1,-1.220936050E1,1.094374237E1,2.984309756E1
5.147821292E0,3.149615341E1,-7.771389313E0,1.487651413E1,3.568911381E1
5.157854292E0,3.510574722E1,7.137158203E-1,2.193822922E1,4.140300447E1
5.167887292E0,3.522894104E1,9.422006836E0,2.980018021E1,4.709462007E1
5.177920292E0,3.296849167E1,1.090946365E1,2.751563095E1,4.430629511E1
5.187952292E0,2.934482712E1,5.652994537E0,1.777269150E1,3.476986898E1
5.197985292E0,2.182955521E1,1.397344208E0,1.082354233E1,2.440555510E1
5.208018292E0,1.350431763E1,5.909710693E-1,9.564809875E0,1.655902863E1
5.218051292E0,9.690548401E0,-6.950047302E-1,1.137499557E1,1.495928756E1
5.228084292E0,9.262139282E0,-3.204685822E0,1.243868362E1,1.583597441E1
5.238117292E0,1.021460861E1,-4.086651764E0,1.247475861E1,1.663305606E1
5.248150292E0,1.230680786E1,-2.960094452E0,1.156105865E1,1.714286312E1
5.258183292E0,1.449211349E1,-2.023043060E0,9.076375580E0,1.721902002E1
5.268216292E0,1.645079041E1,-1.915566559E0,5.411995697E0,1.742376531E1
5.278249292E0,1.760818359E1,-2.148781586E0,1.425335999E0,1.779598198E1
5.288281292E0,1.767584290E1,-2.171833649E0,-2.167792053E0,1.794022313E1
5.298314292E0,1.691991486E1,-1.357527008E0,-4.755460968E0,1.762784182E1
5.308347292E0,1.591011475E1,3.308120728E-2,-6.565047913E0,1.721141190E1
5.318380292E0,1.488399857E1,1.486858063E0,-7.257208557E0,1.662561988E1
5.328413292E0,1.335642517E1,2.620899811E0,-6.495592346E0,1.508164212E1
5.338446292E0,1.168006119E1,3.375181274E0,-4.425547028E0,1.293835942E1
5.348479292E0,1.018032990E1,3.596570892E0,-1.923500061E0,1.096696364E1
5.358512292E0,8.551866302E0,3.295247498E0,1.796264648E-1,9.166533641E0
5.368545292E0,6.955286407E0,2.799029388E0,1.747316437E0,7.698291321E0
5.378578292E0,5.516777802E0,2.427352295E0,2.950813751E0,6.710750947E0
5.388610292E0,4.228856049E0,2.258054352E0,3.884721680E0,6.170339980E0
5.398643292E0,3.197650452E0,2.206112366E0,4.498146057E0,5.943502177E0
5.408676292E0,2.542462921E0,2.185605011E0,4.781057739E0,5.839477723E0
5.418709292E0,2.179767151E0,2.151475983E0,4.745282135E0,5.647825801E0
5.428742292E0,2.022893372E0,2.169738007E0,4.384382629E0,5.293644458E0
5.438775292E0,2.120041351E0,2.287243652E0,3.857927399E0,4.960812703E0
5.448808292E0,2.471211090E0,2.404000854E0,3.350782013E0,4.807685978E0
5.458841292E0,2.479893036E0,2.439177704E0,2.982847137E0,4.582230285E0
5.468874292E0,2.394720154E0,2.638263702E0,2.696492615E0,4.468354552E0
5.478907292E0,2.560874634E0,2.904559937E0,2.388433228E0,4.549633018E0
5.488939292E0,2.735711060E0,3.033142548E0,1.926194458E0,4.516004186E0
5.498972292E0,3.262765045E0,3.026705933E0,1.355880432E0,4.652418327E0
5.509005292E0,3.691772919E0,2.893183594E0,7.315287781E-1,4.747086785E0
5.519038292E0,4.031865692E0,2.545606384E0,2.820135498E-1,4.776566179E0
5.529071292E0,5.072651367E0,1.909279633E0,2.046244812E-1,5.423929552E0
5.539104292E0,6.627767487E0,6.125262451E-1,3.858975220E-1,6.667188849E0
5.549137292E0,8.758436737E0,-1.396296387E0,7.574249268E-1,8.901322946E0
5.559170292E0,1.166135010E1,-4.254452820E0,1.229692841E0,1.247395685E1
5.569203292E0,1.474194397E1,-7.674241333E0,2.277064819E0,1.677509810E1
5.579236292E0,1.875360168E1,-1.028795609E1,3.764222260E0,2.171886244E1
5.589268292E0,2.348855530E1,-1.137215149E1,5.403014374E0,2.665015242E1
5.599301292E0,2.752161850E1,-1.145477966E1,7.479346619E0,3.073421689E1
5.609334292E0,2.906475952E1,-1.042626846E1,1.068448151E1,3.267453848E1
5.619367292E0,2.884501648E1,-8.850046234E0,1.423210419E1,3.336032200E1
5.629400292E0,2.971949799E1,-8.589438171E0,1.541449539E1,3.456347316E1
5.639433292E0,3.044339264E1,-1.020592667E1,1.417731812E1,3.509925132E1
5.649466292E0,2.998519547E1,-1.115016312E1,1.284404068E1,3.447328626E1
5.659499292E0,2.914619019E1,-9.826465759E0,1.316991302E1,3.345902630E1
5.669532292E0,2.891147827E1,-7.702831879E0,1.510029877E1,3.351456725E1
5.679565292E0,2.975811768E1,-6.069278870E0,1.736359222E1,3.498393987E1
5.689596875E0,3.101430542E1,-5.327122192E0,1.731853592E1,3.591931316E1
5.699629875E0,3.043141754E1,-5.012326813E0,1.411399979E1,3.391754094E1
5.709662875E0,2.845013763E1,-4.344864807E0,1.087069427E1,3.076459289E1
5.719695875E0,2.664204758E1,-3.654350739E0,8.683292999E0,2.825867222E1
5.729728875E0,2.467289246E1,-3.400328979E0,6.966513062E0,2.586206031E1
5.739761875E0,2.166639450E1,-3.000061340E0,5.666915588E0,2.259528603E1
5.749794875E0,1.784484146E1,-1.767374725E0,4.844825134E0,1.857509921E1
5.759827875E0,1.369112915E1,2.993774414E-3,4.281396790E0,1.434494283E1
5.769860875E0,9.924362183E0,1.706152039E0,3.688928833E0,1.072437017E1
5.779893875E0,7.161856842E0,3.043471069E0,3.205134888E0,8.415925334E0
5.789925875E0,5.403164062E0,3.818259888E0,2.733166351E0,7.158455752E0
5.799958875E0,4.429139557E0,4.134552155E0,2.333347778E0,6.492789122E0
5.809991875E0,3.999682617E0,4.228107605E0,2.248174896E0,6.239282436E0
5.820024875E0,3.395089874E0,4.159849548E0,2.264490967E0,5.827426778E0
5.830057875E0,2.940485229E0,3.760180664E0,2.304757233E0,5.300690324E0
5.840090875E0,2.615361328E0,3.051254883E0,2.365830231E0,4.663413333E0
5.850123875E0,1.741328888E0,2.186503143E0,2.202220459E0,3.558482435E0
5.860156875E0,9.595046997E-1,1.330732727E0,1.255139923E0,2.065641568E0
5.870189875E0,4.194277954E-1,5.164260864E-1,1.369651794E-1,6.792459339E-1
5.880222875E0,-1.594184875E-1,-1.779798889E-1,-7.455995178E-1,7.829493828E-1
5.890254875E0,-7.702981567E-1,-6.783892822E-1,-1.438358917E0,1.767044890E0
5.900287875E0,-1.162033539E0,-1.073268127E0,-1.658551025E0,2.291946318E0
5.910320875E0,-1.317260742E0,-1.334175568E0,-1.498833160E0,2.400354380E0
5.920353875E0,-1.523980865E0,-1.569037170E0,-1.420995026E0,2.608375392E0
5.930386875E0,-1.642983398E0,-1.783840485E0,-1.501377869E0,2.852300269E0
5.940419875E0,-1.636696472E0,-1.893412628E0,-1.769320679E0,3.065009362E0
5.950452875E0,-1.834135895E0,-1.898052979E0,-2.227817230E0,3.453958483E0
5.960485875E0,-1.921853485E0,-1.780397644E0,-2.701881409E0,3.763442538E0
5.970518875E0,-1.884131927E0,-1.548380127E0,-3.001408539E0,3.867284235E0
5.980551875E0,-1.820963287E0,-1.321901093E0,-3.163671112E0,3.882286014E0
5.990583875E0,-1.718725891E0,-1.190923462E0,-3.065175934E0,3.710474483E0
6.000616875E0,-1.650916901E0,-1.139430542E0,-2.881358185E0,3.510847983E0
6.010649875E0,-1.555265808E0,-1.062490540E0,-2.726729736E0,3.314029713E0
6.020682875E0,-1.480271759E0,-9.731263733E-1,-2.573598175E0,3.124353851E0
6.030715875E0,-1.524429932E0,-9.762698364E-1,-2.431244202E0,3.031161127E0
6.040748875E0,-1.540746002E0,-1.012793884E0,-2.355651398E0,2.991445002E0
6.050781875E0,-1.566193085E0,-1.143322449E0,-2.365381165E0,3.058623065E0
6.060814875E0,-1.668729858E0,-1.199755096E0,-2.343975677E0,3.117417779E0
6.070847875E0,-1.643582153E0,-1.111289062E0,-2.167492676E0,2.938426479E0
6.080880875E0,-1.500629425E0,-1.005159760E0,-1.813329163E0,2.559374429E0
6.090912875E0,-1.450334015E0,-9.148974609E-1,-1.405128021E0,2.216955316E0
6.100945875E0,-1.360371094E0,-8.312214661E-1,-1.136885834E0,1.958072531E0
6.110978875E0,-1.243314514E0,-6.920109558E-1,-1.080453186E0,1.786641887E0
6.121011875E0,-1.201850739E0,-5.304968262E-1,-1.133592682E0,1.735195795E0
6.131044875E0,-1.086740112E0,-3.956272888E-1,-1.141226807E0,1.624784185E0
6.141077875E0,-1.035396881E0,-3.535647583E-1,-1.062041473E0,1.524790750E0
6.151110875E0,-1.039288788E0,-4.596940613E-1,-9.150471497E-1,1.459024023E0
6.161143875E0,-7.741900635E-1,-5.932164001E-1,-6.737489319E-1,1.185417047E0
6.171176875E0,-3.098556519E-1,-7.357200623E-1,-2.968327332E-1,8.517066434E-1
6.181209875E0,-2.306703186E-1,-1.045725403E0,9.969268799E-2,1.075494791E0
6.191241875E0,-4.604425049E-1,-1.451232147E0,3.814068604E-1,1.569571036E0
6.201274875E0,-7.155120850E-1,-1.896107025E0,5.349874878E-1,2.096041747E0
6.211307875E0,-8.327183533E-1,-2.589315491E0,4.825964355E-1,2.762403643E0
6.221340875E0,-9.345066833E-1,-3.593726807E0,3.266207886E-1,3.727580481E0
6.231373875E0,-1.027164001E0,-4.765190735E0,4.343966675E-1,4.893956384E0
6.241406875E0,-7.699987793E-1,-5.577102356E0,-1.582209778E-1,5.632228927E0
6.251439875E0,-7.288343811E-1,-6.517297211E0,-6.885681152E-2,6.558285123E0
6.261472875E0,-1.539847870E0,-7.917934570E0,1.296004944E0,8.169727544E0
6.271505875E0,-1.205742645E0,-9.970615997E0,1.443448334E0,1.014645464E1
6.281538875E0,9.008267212E-1,-1.422327255E1,-7.006929016E-1,1.426898530E1
6.291571875E0,2.311792603E0,-2.011112869E1,-4.283043365E0,2.069169744E1
6.301603875E0,5.368286591E0,-2.589674744E1,-5.460045776E0,2.700503895E1
6.311636875E0,1.503907608E1,-2.693783249E1,2.579136658E-1,3.085266841E1
6.321669875E0,3.383863220E1,-2.234463409E1,9.707463226E0,4.169616942E1
6.331702875E0,5.306929184E1,-1.978091537E1,1.827070587E1,5.951010874E1
6.341735875E0,6.245866653E1,-1.558514053E1,2.536535248E1,6.919091513E1
6.351768875E0,5.797608810E1,-7.850424957E0,2.395438660E1,6.321921070E1
6.361801875E0,4.636892532E1,-4.372108154E0,1.812431030E1,4.997682652E1
6.371834875E0,3.738146484E1,-6.671775970E0,1.556223816E1,4.103741908E1
6.381867875E0,3.245805313E1,-9.444460144E0,1.913246384E1,3.884294290E1
6.391899875E0,2.979943176E1,-8.627908173E0,2.533077438E1,4.005115558E1
6.401932875E0,3.034130493E1,-5.793252869E0,2.875086227E1,4.219915456E1
6.411965875E0,3.329690872E1,-2.862647095E0,2.797592377E1,4.358361148E1
6.421998875E0,3.569941269E1,-1.115330658E0,2.278846115E1,4.236751103E1
6.432031875E0,3.600627457E1,-5.029541016E-2,1.551867874E1,3.920820995E1
6.442064875E0,3.394446213E1,1.101110229E0,8.825347595E0,3.509025097E1
6.452097875E0,3.031630692E1,1.701362000E0,4.261488190E0,3.066159453E1
6.462130875E0,2.666929092E1,2.244881744E0,2.709365845E0,2.690039471E1
6.472163875E0,2.315983887E1,2.678679657E0,3.366349640E0,2.355601348E1
6.482196875E0,2.031380722E1,2.682122498E0,4.571343842E0,2.099384980E1
6.492228875E0,1.795067139E1,2.581082611E0,5.124293976E0,1.884534371E1
6.502261875E0,1.572809326E1,3.001857605E0,4.852608948E0,1.673116494E1
6.512294875E0,1.387629410E1,3.951632538E0,3.772305450E0,1.491298850E1
6.522327875E0,1.199425781E1,4.825365601E0,2.154469757E0,1.310679647E1
6.532360875E0,1.007644592E1,5.859115906E0,5.188211060E-1,1.166761231E1
6.542393875E0,9.087602234E0,7.657775574E0,-7.677534485E-1,1.190863075E1
6.552426875E0,9.219178619E0,1.024499542E1,-1.374741211E0,1.385074363E1
6.562459875E0,9.161548462E0,1.294732590E1,-8.493338013E-1,1.588359487E1
6.572492875E0,9.001830597E0,1.539368866E1,8.054750061E-1,1.785069732E1
6.582525875E0,8.708141327E0,1.722019043E1,3.582949219E0,1.962661991E1
6.592557875E0,8.104297028E0,1.829854797E1,6.840325470E0,2.114962271E1
6.602590875E0,7.315886536E0,1.855915604E1,1.009770172E1,2.235907084E1
6.612623875E0,6.781497803E0,1.826621521E1,1.286065613E1,2.334608761E1
6.622656875E0,6.544390869E0,1.793869629E1,1.458581863E1,2.402856595E1
6.632689875E0,6.585704956E0,1.782732788E1,1.501198242E1,2.421868587E1
6.642722875E0,6.898554382E0,1.792672119E1,1.420186707E1,2.388829030E1
6.652755875E0,7.301815796E0,1.802461761E1,1.337169342E1,2.360096479E1
6.662788875E0,7.902067566E0,1.781729874E1,1.308354263E1,2.347504833E1
6.672821875E0,8.926986237E0,1.681633026E1,1.350027603E1,2.333961224E1
6.682854875E0,1.012150223E1,1.537378006E1,1.364786911E1,2.291423688E1
6.692887625E0,1.123743164E1,1.402388718E1,1.298639465E1,2.217195813E1
6.702919625E0,1.205742645E1,1.280631912E1,1.251607269E1,2.158785348E1
6.712952625E0,1.314446594E1,1.120105728E1,1.257355316E1,2.136199682E1
6.722985625E0,1.515388733E1,8.935368805E0,1.297666489E1,2.186035106E1
6.733018625E0,1.771566010E1,6.491401062E0,1.368918320E1,2.331044051E1
6.743051625E0,2.178554672E1,4.422852631E0,1.463012650E1,2.661225794E1
6.753084625E0,2.702270599E1,2.937192078E0,1.567689972E1,3.137863798E1
6.763117625E0,3.294873276E1,1.987267456E0,1.699146606E1,3.712516857E1
6.773150625E0,3.871653854E1,7.473957825E-1,1.862576752E1,4.297031735E1
6.783183625E0,4.409949463E1,-6.635700989E-1,2.049927155E1,4.863564419E1
6.793216625E0,4.978631882E1,-2.274969177E0,2.259177017E1,5.471965922E1
6.803248625E0,5.491794754E1,-4.766088867E0,2.530113602E1,6.065347516E1
6.813281625E0,5.739499649E1,-8.466543732E0,2.781396057E1,6.433882488E1
6.823314625E0,5.628415649E1,-1.335253326E1,2.856240417E1,6.451362142E1
6.833347625E0,5.310162460E1,-1.857831619E1,2.746189270E1,6.260265105E1
6.843380625E0,4.946074585E1,-2.262305511E1,2.544079559E1,6.004500048E1
6.853413625E0,4.563245682E1,-2.478770370E1,2.286689804E1,5.674192803E1
6.863446625E0,4.245830750E1,-2.539005112E1,2.014765274E1,5.341620056E1
6.873479625E0,3.934373428E1,-2.481135452E1,1.804033493E1,4.988974268E1
6.883512625E0,3.498554718E1,-2.446856735E1,1.533905228E1,4.536502865E1
6.893544625E0,3.058709381E1,-2.403671539E1,1.210981750E1,4.074287269E1
6.903577625E0,2.589540024E1,-2.236154892E1,9.108708344E0,3.540592029E1
6.913610625E0,2.116344040E1,-1.983420456E1,5.427413635E0,2.950836659E1
6.923643625E0,1.675391006E1,-1.714070572E1,1.063987427E0,2.399227718E1
6.933676625E0,1.286305115E1,-1.436891968E1,-3.195554810E0,1.954828658E1
6.943709625E0,9.772128754E0,-1.133951935E1,-6.500083008E0,1.631962863E1
6.953742625E0,7.768545227E0,-8.414002991E0,-8.264314270E0,1.412248674E1
6.963775625E0,6.357579346E0,-5.849535828E0,-8.740174713E0,1.228928552E1
6.973808625E0,5.031936035E0,-3.600911865E0,-8.237370300E0,1.030248591E1
6.983841625E0,4.267924805E0,-1.902393951E0,-7.104376373E0,8.503319854E0
6.993873625E0,4.371359711E0,-1.151255951E0,-6.171366577E0,7.649832770E0
7.003906625E0,5.050796814E0,-1.167272644E0,-5.322332153E0,7.429689996E0
7.013939625E0,5.236410828E0,-1.366508331E0,-4.274810486E0,6.896473596E0
7.023972625E0,4.121678925E0,-1.131646729E0,-3.435356140E0,5.483660573E0
7.034005625E0,3.181035004E0,-2.468367004E-1,-3.478167114E0,4.719910860E0
7.044038625E0,2.733465729E0,7.584727478E-1,-4.057911530E0,4.951137423E0
7.054071625E0,2.306254120E0,1.347198486E0,-4.828958130E0,5.518386399E0
7.064104625E0,1.625020752E0,1.522933044E0,-5.407505035E0,5.848173066E0
7.074137625E0,9.238787842E-1,1.566193085E0,-5.422623596E0,5.719384534E0
7.084170625E0,3.628454590E-1,1.644031219E0,-4.756209412E0,5.045396262E0
7.094202625E0,-2.005828857E-2,1.571132813E0,-3.704346771E0,4.023809843E0
7.104235625E0,-1.481918335E-1,1.328188019E0,-2.580483856E0,2.906018094E0
7.114268625E0,9.729766846E-3,9.795629883E-1,-1.721869354E0,1.981028114E0
7.124301625E0,4.939727783E-2,7.655081177E-1,-1.068478088E0,1.315328170E0
7.134334625E0,-1.586700439E-1,8.726852417E-1,-3.462300110E-1,9.521716938E-1
7.144367625E0,-6.619235229E-1,9.407936096E-1,1.992356873E-1,1.167446027E0
7.154400625E0,-1.234931946E0,8.265811157E-1,5.069956970E-1,1.570139449E0
7.164433625E0,-1.302291870E0,7.984396362E-1,7.649093628E-1,1.708378266E0
7.174466625E0,-9.452842712E-1,8.012837219E-1,8.837622070E-1,1.522055714E0
7.184499625E0,-7.024891663E-1,4.999603271E-1,8.014334106E-1,1.177177501E0
7.194531625E0,-8.901988220E-1,-0.000000000E0,5.980064392E-1,1.072411136E0
7.204564625E0,-1.211430817E0,-4.962181091E-1,2.905458069E-1,1.340974982E0
7.214597625E0,-1.545236664E0,-9.937834167E-1,-2.769241333E-2,1.837424474E0
7.224630625E0,-2.017654266E0,-1.516496429E0,-3.800596619E-1,2.552476348E0
7.234663625E0,-2.572700043E0,-2.093845825E0,-6.421646118E-1,3.378661161E0
7.244696625E0,-3.420087891E0,-2.625689850E0,-5.632786560E-1,4.348394096E0
7.254729625E0,-4.315825195E0,-2.848875732E0,-2.311193848E-1,5.176471407E0
7.264762625E0,-4.920118561E0,-2.825224915E0,1.124162292E-1,5.674689408E0
7.274795625E0,-5.177583160E0,-2.855162659E0,1.797761536E-1,5.915373247E0
7.284828625E0,-4.941524048E0,-2.846929779E0,4.834945679E-2,5.703157612E0
7.294860625E0,-4.334536285E0,-2.669099579E0,2.948867798E-2,5.090497712E0
7.304893625E0,-3.697910156E0,-2.376009064E0,1.868115234E-1,4.399415545E0
7.314926625E0,-3.007545776E0,-2.048340454E0,3.826043701E-1,3.658881840E0
7.324959625E0,-2.328857117E0,-1.822609863E0,5.604345703E-1,3.009911808E0
7.334992625E0,-1.854493561E0,-1.755848694E0,7.273374939E-1,2.655404081E0
7.345025625E0,-1.585802307E0,-1.797911224E0,8.078700256E-1,2.529803887E0
7.355058625E0,-1.599274292E0,-1.848955078E0,7.652087402E-1,2.561612297E0
7.365091625E0,-1.798360291E0,-1.848805389E0,7.912545776E-1,2.697825960E0
7.375124625E0,-1.879491577E0,-1.828298035E0,9.871971130E-1,2.801735254E0
7.385157625E0,-2.033670959E0,-1.963766327E0,1.251547394E0,3.091693167E0
7.395189625E0,-2.365680542E0,-2.082768860E0,1.563798065E0,3.518498961E0
7.405222625E0,-2.214944000E0,-2.039658508E0,2.020198975E0,3.625932660E0
7.415255625E0,-1.702409821E0,-2.045795746E0,2.460583191E0,3.624630887E0
7.425288625E0,-1.427880707E0,-2.252216492E0,2.752326508E0,3.832313093E0
7.435321625E0,-1.155746613E0,-2.408341827E0,2.906505890E0,3.947611566E0
7.445354625E0,-9.524693298E-1,-2.386636963E0,2.708617401E0,3.733609787E0
7.455387625E0,-1.045725403E0,-2.442321167E0,2.467468872E0,3.625862233E0
7.465420625E0,-9.951306152E-1,-2.709814911E0,2.085912323E0,3.561518217E0
7.475453625E0,-4.074526978E-1,-3.168760529E0,1.069974976E0,3.369259182E0
7.485486625E0,7.547305298E-1,-3.618126068E0,-1.731898499E-1,3.700060694E0
7.495518625E0,2.000739441E0,-4.296964417E0,-1.354982300E0,4.929790923E0
7.505551625E0,2.164947968E0,-6.201004944E0,-4.199966125E0,7.796100145E0
7.515584625E0,1.200503540E-1,-9.999356232E0,-9.817484436E0,1.401372676E1
7.525617625E0,-2.424059143E0,-1.501542526E1,-1.309357178E1,2.006939661E1
7.535650625E0,1.421144714E0,-1.771416321E1,-9.216035156E0,2.001865466E1
7.545683625E0,1.338277039E1,-1.624092682E1,-1.831740875E0,2.112395611E1
7.555716625E0,2.768073761E1,-1.319805450E1,7.577841797E0,3.158853532E1
7.565749625E0,4.116125473E1,-8.437653809E0,1.750923935E1,4.551940636E1
7.575782625E0,5.233402084E1,-3.403472443E0,2.449311630E1,5.788217436E1
7.585815625E0,5.713468781E1,7.390132141E-1,2.431229233E1,6.209674910E1
7.595847625E0,5.463039551E1,4.415667572E0,2.044882645E1,5.849899774E1
7.605880625E0,4.860542450E1,7.611970825E0,1.710762451E1,5.208742849E1
7.615913625E0,4.380026688E1,9.074130249E0,1.556837540E1,4.736219516E1
7.625946625E0,4.168696152E1,8.073610840E0,1.625574600E1,4.546685860E1
7.635979625E0,4.011508026E1,6.580166473E0,1.698502945E1,4.405688914E1
7.646012625E0,3.737413010E1,6.353837128E0,1.685614746E1,4.148887265E1
7.656045625E0,3.466386612E1,6.694229279E0,1.549173477E1,3.855373090E1
7.666078625E0,3.261941757E1,7.196434937E0,1.378603180E1,3.613681988E1
7.676111625E0,3.140783707E1,7.657326508E0,1.306992096E1,3.486989694E1
7.686144625E0,3.108585663E1,7.509733429E0,1.257490036E1,3.436356643E1
7.696176875E0,3.148313049E1,6.769522705E0,1.206012085E1,3.438692278E1
7.706209875E0,3.005944107E1,6.471193085E0,1.197345108E1,3.299711909E1
7.716242875E0,2.694262253E1,6.713090057E0,1.159084671E1,3.008850635E1
7.726275875E0,2.303020844E1,6.917265472E0,1.098385895E1,2.643641843E1
7.736308875E0,1.893008469E1,6.997648315E0,1.060978683E1,2.280093781E1
7.746341875E0,1.541015442E1,6.730154572E0,1.039363632E1,1.976854865E1
7.756374875E0,1.278401550E1,6.401288452E0,1.063298859E1,1.781763151E1
7.766407875E0,1.106843307E1,6.170618134E0,1.123368942E1,1.693465432E1
7.776440875E0,1.017628830E1,5.934858398E0,1.145582748E1,1.643214445E1
7.786473875E0,9.530381470E0,5.683980103E0,1.102966370E1,1.564574326E1
7.796505875E0,8.674760742E0,5.519172821E0,1.008437943E1,1.440164751E1
7.806538875E0,7.775430908E0,5.660329285E0,8.844807129E0,1.306626445E1
7.816571875E0,6.947053528E0,6.043831787E0,7.577243042E0,1.192493470E1
7.826604875E0,6.137985992E0,6.422544250E0,6.396498413E0,1.094710640E1
7.836637875E0,5.505850525E0,6.781348114E0,5.336552582E0,1.023620368E1
7.846670875E0,5.388195190E0,7.324568481E0,4.742288361E0,1.025530349E1
7.856703875E0,5.390889587E0,7.982749786E0,4.708458710E0,1.072173345E1
7.866736875E0,5.310357056E0,8.727451172E0,4.767885132E0,1.127390902E1
7.876769875E0,5.236111450E0,9.680668945E0,4.584067383E0,1.192249505E1
7.886802875E0,4.915777588E0,1.077594131E1,4.379592590E0,1.262800902E1
7.896834875E0,4.404740295E0,1.179651901E1,4.379143524E0,1.333178517E1
7.906867875E0,4.063000946E0,1.264525406E1,4.415817261E0,1.399678066E1
7.916900875E0,4.046834564E0,1.315030380E1,4.442012787E0,1.445817546E1
7.926933875E0,4.241729279E0,1.337528595E1,4.780458984E0,1.482374209E1
7.936966875E0,4.269421692E0,1.338591385E1,5.299729156E0,1.501658351E1
7.946999875E0,4.376449127E0,1.320464081E1,5.882617035E0,1.510367601E1
7.957032875E0,4.983436890E0,1.282697617E1,6.413263550E0,1.518209176E1
7.967065875E0,5.678142242E0,1.230935257E1,6.679410095E0,1.511211366E1
7.977098875E0,6.391109619E0,1.166584076E1,6.581214294E0,1.484083907E1
7.987131875E0,7.477250977E0,1.121033798E1,6.246660004E0,1.485266714E1
7.997163875E0,8.848100281E0,1.107621689E1,6.318510590E0,1.552079364E1
8.007196875E0,1.068672684E1,1.082429077E1,6.606511688E0,1.658364851E1
8.017229875E0,1.218855377E1,9.836494904E0,6.722221069E0,1.704422868E1
8.027262875E0,1.377390701E1,8.539741516E0,6.891968079E0,1.761098872E1
8.037295875E0,1.567794754E1,7.698790283E0,7.211254120E0,1.889633819E1
8.047328875E0,1.709879288E1,7.205565948E0,7.837252350E0,2.014227949E1
8.057361875E0,1.959350510E1,7.734266510E0,1.048928741E1,2.353188201E1
8.067394875E0,2.489233612E1,9.336235199E0,1.569845490E1,3.087450682E1
8.077427875E0,3.229953278E1,1.039947418E1,2.119861725E1,4.000987696E1
8.087460875E0,3.892041458E1,9.702224121E0,2.477782425E1,4.714734774E1
8.097492875E0,4.203543686E1,7.603288879E0,2.490446091E1,4.944714478E1
8.107525875E0,4.188485001E1,5.154082031E0,2.273142975E1,4.793352814E1
8.117558875E0,4.112757477E1,3.172203369E0,2.106554398E1,4.631735553E1
8.127591875E0,4.082685013E1,1.871258698E0,2.099294495E1,4.594602309E1
8.137624875E0,4.057387619E1,8.518785095E-1,2.161565002E1,4.598044641E1
8.147657875E0,4.024620758E1,3.032693481E-1,2.298455338E1,4.634801928E1
8.157690875E0,4.058540222E1,2.899470520E-1,2.531356018E1,4.783341167E1
8.167723875E0,4.152784241E1,1.447489929E-1,2.655627594E1,4.929318857E1
8.177756875E0,4.205938705E1,-4.185296631E-1,2.493050674E1,4.889475813E1
8.187789875E0,4.187901215E1,-2.947370911E-1,2.207549377E1,4.734201045E1
8.197821875E0,3.994218979E1,-5.141807556E-1,1.762928970E1,4.366273883E1
8.207854875E0,3.624038773E1,-1.894310760E0,1.168530029E1,3.812479979E1
8.217887875E0,3.126683029E1,-3.401077423E0,6.272705841E0,3.207068510E1
8.227920875E0,2.518333099E1,-4.796176300E0,1.739832001E0,2.569495052E1
8.237953875E0,1.837384140E1,-5.990542603E0,-1.435814209E0,1.937901470E1
8.247986875E0,1.169158722E1,-6.769373016E0,-2.526595917E0,1.374413728E1
8.258019875E0,6.231242065E0,-6.987469482E0,-1.806443481E0,9.535006319E0
8.268052875E0,2.396516418E0,-6.789730682E0,1.715432739E-1,7.202302464E0
8.278085875E0,-1.833686829E-1,-6.604865112E0,2.585722961E0,7.095338643E0
8.288117875E0,-1.518891449E0,-6.257437592E0,4.182302856E0,7.678164731E0
8.298150875E0,-1.614692230E0,-5.529800720E0,4.471052399E0,7.292203820E0
8.308183875E0,-8.207432556E-1,-4.667294312E0,3.455414429E0,5.864907890E0
8.318216875E0,1.336720276E-1,-3.772904205E0,1.727407837E0,4.151699916E0
8.328249875E0,1.062490540E0,-2.593057709E0,-6.930587769E-2,2.803147826E0
8.338282875E0,1.985920258E0,-1.128503265E0,-1.745819550E0,2.874940832E0
8.348315875E0,2.209555206E0,2.266287231E-1,-3.181933136E0,3.880488793E0
8.358348875E0,1.654060364E0,1.463057556E0,-4.308490448E0,4.841440182E0
8.368381875E0,1.004261627E0,2.540217590E0,-4.931794281E0,5.637715996E0
8.378414875E0,8.857081604E-1,3.132386169E0,-4.789739685E0,5.791194032E0
8.388447875E0,6.592291260E-1,3.062182159E0,-4.383634186E0,5.387744546E0
8.398479875E0,2.200424194E-2,2.493664398E0,-3.757336578E0,4.509592496E0
8.408512875E0,-9.047186279E-1,1.728605347E0,-2.662513275E0,3.300843707E0
8.418545875E0,-1.663341064E0,8.634045410E-1,-1.751657410E0,2.565243571E0
8.428578875E0,-2.307152252E0,-1.776805115E-1,-9.063652039E-1,2.485159907E0
8.438611875E0,-2.913840637E0,-1.068328400E0,-3.891906738E-3,3.103515422E0
8.448644875E0,-2.930156708E0,-1.453327789E0,8.005352783E-1,3.367318923E0
8.458677875E0,-2.697989502E0,-1.545386353E0,1.350192261E0,3.389747110E0
8.468710875E0,-2.130220184E0,-1.508263550E0,1.488354950E0,3.004645974E0
8.478743875E0,-1.579814758E0,-1.294807434E0,1.343456268E0,2.444834495E0
8.488776875E0,-1.490899658E0,-1.025816803E0,9.994715881E-1,2.067371607E0
8.498808875E0,-1.686692505E0,-7.937992859E-1,6.635700989E-1,1.978730449E0
8.508841875E0,-1.950444031E0,-7.388635254E-1,5.710624695E-1,2.162467010E0
8.518874875E0,-2.094893646E0,-9.134005737E-1,5.162763977E-1,2.342951411E0
8.528907875E0,-2.184407501E0,-1.056652679E0,6.032455444E-1,2.500411207E0
8.538940875E0,-2.280058594E0,-1.094523926E0,9.883946228E-1,2.715432515E0
8.548973875E0,-2.318378906E0,-1.286275177E0,1.356628876E0,2.978225393E0
8.559006875E0,-2.448608093E0,-1.642234955E0,1.616787872E0,3.362531824E0
8.569039875E0,-2.775378571E0,-1.797611847E0,1.896406403E0,3.811888221E0
8.579072875E0,-3.119662628E0,-1.755549316E0,1.991758118E0,4.096504451E0
8.589104875E0,-3.253484344E0,-1.738933868E0,1.806892548E0,4.107786759E0
8.599137875E0,-2.979703674E0,-1.602268066E0,1.635648651E0,3.757824298E0
8.609170875E0,-2.535427551E0,-1.374441833E0,1.420545959E0,3.214876987E0
8.619203875E0,-2.149380341E0,-1.190923462E0,1.290616150E0,2.775576442E0
8.629236875E0,-1.980980530E0,-1.178349609E0,1.241368561E0,2.617973943E0
8.639269875E0,-1.813329163E0,-1.323397980E0,9.065148926E-1,2.421015100E0
8.649302875E0,-1.730551300E0,-1.418150940E0,4.055067444E-1,2.273850393E0
8.659335875E0,-1.650318146E0,-1.328786774E0,4.640350342E-3,2.118784039E0
8.669368875E0,-1.635648651E0,-1.240171051E0,-2.674937439E-1,2.070005712E0
8.679401875E0,-1.597478027E0,-1.247356110E0,-4.071533203E-1,2.067270456E0
8.689433875E0,-1.434017944E0,-1.218615875E0,-4.384382629E-1,1.932268156E0
8.699466917E0,-1.167272644E0,-1.127904510E0,-2.857557678E-1,1.648135422E0
8.709499917E0,-9.918374634E-1,-1.100960541E0,8.681945801E-3,1.481867417E0
8.719532917E0,-8.189469910E-1,-1.066831512E0,4.120930481E-1,1.406635820E0
8.729565917E0,-6.921606445E-1,-1.076860657E0,7.894583130E-1,1.503981270E0
8.739598917E0,-6.405180359E-1,-1.259929962E0,8.575666809E-1,1.653211262E0
8.749631917E0,-6.605763245E-1,-1.383872223E0,8.041278076E-1,1.731497889E0
8.759664917E0,-7.448510742E-1,-1.237476654E0,8.186476135E-1,1.660221524E0
8.769697917E0,-8.252339172E-1,-1.040186920E0,8.220904541E-1,1.561676203E0
8.779730917E0,-7.015910339E-1,-8.174501038E-1,7.732919312E-1,1.326059977E0
8.789762917E0,-4.085005188E-1,-5.375321960E-1,6.348298645E-1,9.267267626E-1
8.799795917E0,-4.849914551E-2,-4.114942932E-1,4.285588074E-1,5.961060072E-1
8.809828917E0,-6.945556641E-2,-5.490582275E-1,1.672023010E-1,5.781397949E-1
8.819861917E0,-1.984872437E-1,-7.375163269E-1,-3.124003601E-1,8.251796794E-1
8.829894917E0,-5.921685791E-1,-1.740879822E0,-1.923799438E0,2.661264823E0
8.839927917E0,-1.190025330E0,-4.329446869E0,-5.131029968E0,6.818191770E0
8.849960917E0,-1.013692017E0,-8.040978699E0,-7.691605225E0,1.117343729E1
8.859993917E0,2.390828247E0,-1.084973785E1,-6.828799438E0,1.304091151E1
8.870026917E0,1.043719574E1,-1.143801453E1,-1.860331421E0,1.559564248E1
8.880058917E0,2.136058044E1,-1.056996964E1,4.400249634E0,2.423552871E1
8.890091917E0,3.272015808E1,-8.660091248E0,1.084419937E1,3.554156138E1
8.900124917E0,4.196837631E1,-6.480623474E0,1.742840744E1,4.590307699E1
8.910157917E0,4.586342651E1,-4.600982208E0,1.765264114E1,4.935826849E1
8.920190917E0,4.320136230E1,-3.791914673E0,1.127709915E1,4.480970082E1
8.930223917E0,3.770479248E1,-4.312831421E0,7.207212524E0,3.862895033E1
8.940256917E0,3.459964966E1,-4.568350067E0,9.685009918E0,3.621884863E1
8.950289917E0,3.405373489E1,-4.375101929E0,1.633493134E1,3.802141974E1
8.960322917E0,3.419354416E1,-4.521198120E0,2.137210648E1,4.057593659E1
8.970355917E0,3.334436005E1,-5.299130402E0,2.338092911E1,4.106817473E1
8.980387917E0,3.180166809E1,-6.296955414E0,2.388133850E1,4.026556928E1
8.990420917E0,3.130170776E1,-6.910529480E0,2.252785309E1,3.917979698E1
9.000453917E0,3.195764374E1,-7.178921356E0,1.964499802E1,3.819363628E1
9.010486917E0,3.403352692E1,-7.233408051E0,1.719594086E1,3.881112635E1
9.020519917E0,3.852089539E1,-6.095324707E0,1.738469833E1,4.269941570E1
9.030552917E0,4.168471619E1,-3.931424561E0,1.963781296E1,4.624624699E1
9.040585917E0,4.016492661E1,-1.601369934E0,2.092857880E1,4.531877233E1
9.050618917E0,3.545092941E1,1.517843628E-1,2.008238846E1,4.074424819E1
9.060651917E0,2.984837997E1,9.388476562E-1,1.845138016E1,3.510357036E1
9.070684917E0,2.455179428E1,7.655081177E-1,1.738394989E1,3.009282836E1
9.080716917E0,2.048550018E1,3.197351074E-1,1.688788147E1,2.655105438E1
9.090749917E0,1.780218018E1,-1.901046753E-2,1.661514862E1,2.435120416E1
9.100782917E0,1.625589569E1,-4.475692749E-2,1.605112152E1,2.284501368E1
9.110815917E0,1.494462250E1,3.764671326E-1,1.522049881E1,2.133417571E1
9.120848917E0,1.388347916E1,1.200653229E0,1.402134247E1,1.976842448E1
9.130881917E0,1.347333206E1,2.282154236E0,1.253478378E1,1.854345462E1
9.140914917E0,1.375190277E1,3.640729065E0,1.120929016E1,1.811126511E1
9.150947917E0,1.437580536E1,5.496569824E0,1.033061737E1,1.853638894E1
9.160980917E0,1.526540543E1,7.638914795E0,9.480086060E0,1.952582018E1
9.171013917E0,1.624032806E1,9.388925629E0,8.276888123E0,2.050383030E1
9.181045917E0,1.615440674E1,1.045620621E1,6.775210876E0,2.040099477E1
9.191078917E0,1.468146973E1,1.152648056E1,5.298980713E0,1.940320860E1
9.201111917E0,1.230920288E1,1.322589661E1,3.974085846E0,1.849957229E1
9.211144917E0,9.820927277E0,1.535506897E1,3.084635468E0,1.848631201E1
9.221177917E0,7.874225464E0,1.691542419E1,2.699486389E0,1.885264515E1
9.231210917E0,6.634503479E0,1.728919693E1,3.411256256E0,1.883001955E1
9.241243917E0,5.439089355E0,1.740191254E1,6.515351257E0,1.936130303E1
9.251276917E0,3.974235535E0,1.775083694E1,1.073657318E1,2.112251794E1
9.261309917E0,2.330503693E0,1.774619659E1,1.469988144E1,2.316128786E1
9.271342917E0,1.167272644E0,1.747570908E1,1.712244370E1,2.449369329E1
9.281374917E0,8.168513489E-1,1.710657669E1,1.747855316E1,2.447043181E1
9.291407917E0,1.675615540E0,1.716839813E1,1.707274704E1,2.427015190E1
9.301440917E0,2.622396698E0,1.764755173E1,1.707843521E1,2.469789456E1
9.311473917E0,3.397185516E0,1.814496735E1,1.805470505E1,2.582156238E1
9.321506917E0,5.432652740E0,1.777688278E1,1.902678360E1,2.659980773E1
9.331539917E0,8.343948669E0,1.667068314E1,1.932316727E1,2.684991525E1
9.341572917E0,1.199814972E1,1.477532455E1,1.882620071E1,2.677109721E1
9.351605917E0,1.543949341E1,1.186792053E1,1.801024750E1,2.652535597E1
9.361638917E0,1.765877838E1,8.032446442E0,1.716705093E1,2.590483135E1
9.371671917E0,2.004182281E1,4.331692200E0,1.737631577E1,2.687702678E1
9.381703917E0,2.293859894E1,1.109193420E0,1.918395676E1,2.992380036E1
9.391736917E0,2.783177353E1,-7.473957825E-1,2.162238602E1,3.525186230E1
9.401769917E0,3.462330048E1,-6.274951172E-1,2.409389648E1,4.218628372E1
9.411802917E0,4.110182831E1,1.817221069E-1,2.673425583E1,4.903176264E1
9.421835917E0,4.708982620E1,6.580316162E-1,2.832065689E1,5.495402027E1
9.431868917E0,5.283727432E1,2.579136658E-1,2.937356735E1,6.045370573E1
9.441901917E0,5.654461487E1,-1.726809082E0,3.127476379E1,6.464043773E1
9.451934917E0,5.802249161E1,-4.461472321E0,3.316578140E1,6.698121620E1
9.461967917E0,5.769856522E1,-7.050338745E0,3.423216385E1,6.745867436E1
9.472000917E0,5.578135208E1,-9.245224457E0,3.427033447E1,6.611723860E1
9.482032917E0,5.440990402E1,-1.036205200E1,3.348342087E1,6.472209244E1
9.492065917E0,5.307228561E1,-1.011192215E1,3.295621719E1,6.328531205E1
9.502098917E0,5.061200180E1,-9.824519806E0,3.203188934E1,6.069709919E1
9.512131917E0,4.705375122E1,-1.019514908E1,2.952550140E1,5.647788772E1
9.522164917E0,4.215982819E1,-1.105541016E1,2.562341583E1,5.055919941E1
9.532197917E0,3.661371140E1,-1.211805038E1,2.083427490E1,4.383466685E1
9.542230917E0,3.094230515E1,-1.251876709E1,1.631577118E1,3.715306402E1
9.552263917E0,2.495400787E1,-1.256038055E1,1.237117401E1,3.055342231E1
9.562296917E0,1.911734528E1,-1.308563828E1,8.895401917E0,2.481602294E1
9.572328917E0,1.368065094E1,-1.374681335E1,6.066883850E0,2.032097850E1
9.582361917E0,8.886420593E0,-1.375968658E1,3.836521912E0,1.682308968E1
9.592394917E0,4.923262024E0,-1.258253448E1,1.724563751E0,1.362104266E1
9.602427917E0,2.073338470E0,-1.057940002E1,8.202941895E-2,1.078096313E1
9.612460917E0,4.255650330E-1,-8.496032410E0,-8.041278076E-1,8.544606125E0
9.622493917E0,-4.849914551E-2,-6.982529755E0,-1.354533234E0,7.112863996E0
9.632526917E0,3.014730835E-1,-5.933211823E0,-1.654210052E0,6.166871123E0
9.642559917E0,9.921368408E-1,-5.105133820E0,-1.363963623E0,5.376534534E0
9.652592917E0,1.512305145E0,-4.438719635E0,-7.102729797E-1,4.742761491E0
9.662625917E0,1.878294067E0,-4.122577057E0,-1.287322998E-1,4.532129985E0
9.672657917E0,1.952389984E0,-4.138444061E0,4.923262024E-1,4.602274545E0
9.682690917E0,1.697619781E0,-4.438869324E0,1.019829254E0,4.860609581E0
9.692723917E0,1.569336548E0,-4.642595673E0,1.304986267E0,5.071439730E0
9.702757542E0,1.636097717E0,-4.865631866E0,1.040186920E0,5.237669141E0
9.712790542E0,1.310225372E0,-5.498665466E0,-5.448669434E-2,5.652873715E0
9.722823542E0,6.511459351E-1,-6.056705017E0,-1.627715149E0,6.305324995E0
9.732856542E0,-1.007405090E-1,-6.272705841E0,-3.080893250E0,6.989198125E0
9.742889542E0,-1.100361786E0,-6.456074524E0,-4.249962158E0,7.807296117E0
9.752922542E0,-2.105671234E0,-6.678961029E0,-4.939428406E0,8.569733062E0
9.762954542E0,-2.865940247E0,-7.036567383E0,-5.128335571E0,9.166608957E0
9.772987542E0,-3.302432556E0,-7.415279846E0,-4.969964905E0,9.518034836E0
9.783020542E0,-3.744463348E0,-7.572303314E0,-4.737348633E0,9.685208068E0
9.793053542E0,-4.218377838E0,-7.412585449E0,-4.424499207E0,9.608190665E0
9.803086542E0,-4.354295197E0,-7.091952209E0,-4.216132507E0,9.329064590E0
9.813119542E0,-4.247716827E0,-6.898704071E0,-4.011807404E0,9.040454344E0
9.823152542E0,-4.010609894E0,-6.571334839E0,-3.322640533E0,8.384949219E0
9.833185542E0,-3.793261871E0,-5.971981201E0,-2.348316650E0,7.454393750E0
9.843218542E0,-3.601360931E0,-5.450016632E0,-1.522783356E0,6.707559243E0
9.853250542E0,-3.384461975E0,-5.135221252E0,-8.431965637E-1,6.207741990E0
9.863283542E0,-3.250041504E0,-4.983137512E0,-4.110452271E-1,5.963504626E0
9.873316542E0,-3.208877106E0,-4.755311279E0,-1.922003174E-1,5.739931934E0
9.883349542E0,-3.070115662E0,-4.425097961E0,-3.203338623E-2,5.385919446E0
9.893382542E0,-2.768343201E0,-4.140689392E0,2.465373230E-1,4.986964344E0
9.903415542E0,-2.480042725E0,-3.931125183E0,5.685177612E-1,4.682688284E0
9.913448542E0,-2.162253571E0,-3.678001556E0,8.101153564E-1,4.342732186E0
9.923481542E0,-1.741029510E0,-3.183729401E0,1.165027313E0,3.811116017E0
9.933514542E0,-1.395997009E0,-2.728376312E0,1.606609039E0,3.460352230E0
9.943547542E0,-1.185235291E0,-2.420466614E0,2.032473450E0,3.375557679E0
9.953579542E0,-7.996371460E-1,-2.120490417E0,2.427651672E0,3.321052818E0
9.963612542E0,-3.323089600E-1,-1.832040253E0,2.628983002E0,3.221545026E0
9.973645542E0,4.984634399E-2,-1.578317871E0,2.636916504E0,3.073581072E0
9.983678542E0,3.246748352E-1,-1.546134796E0,2.591111755E0,3.034766331E0
9.993711542E0,2.968327332E-1,-1.604663086E0,2.327659607E0,2.842719215E0
1.000374454E1,1.565744019E-1,-1.489702148E0,2.049987030E0,2.538931834E0
1.001377754E1,-8.696914673E-2,-1.419348450E0,1.932032318E0,2.398929455E0
1.002381054E1,-4.001179504E-1,-1.663939819E0,1.708846436E0,2.418459476E0
1.003384354E1,-1.061742096E0,-2.006427612E0,1.355581055E0,2.643983366E0
1.004387654E1,-1.792073364E0,-2.009870453E0,1.276395721E0,2.979981916E0
1.005390854E1,-2.155816956E0,-1.865121460E0,1.545236664E0,3.242526970E0
1.006394154E1,-1.985471191E0,-1.930834808E0,1.681303711E0,3.239907572E0
1.007397454E1,-1.448238373E0,-2.106120300E0,1.651216278E0,3.042967680E0
1.008400754E1,-1.004411316E0,-2.266137543E0,1.424437866E0,2.858888716E0
1.009404054E1,-6.056405640E-1,-2.535577240E0,8.830137634E-1,2.752392730E0
1.010407354E1,1.877096558E-1,-3.073408813E0,1.993853760E-1,3.085584414E0
1.011410654E1,8.629554749E-1,-4.002826080E0,-1.218166809E0,4.272146902E0
1.012413954E1,3.832031250E-2,-5.565875702E0,-4.257296906E0,7.007497251E0
1.013417254E1,-2.182012482E0,-8.510701904E0,-9.077722778E0,1.263322113E1
1.014420454E1,-4.441863098E0,-1.296214508E1,-1.291589127E1,1.882996548E1
1.015423754E1,-1.938468933E0,-1.669897430E1,-1.245455063E1,2.092197973E1
1.016427054E1,9.426347809E0,-1.762958908E1,-6.283633118E0,2.095572689E1
1.017430354E1,2.784988586E1,-1.640289001E1,3.548520813E0,3.251558001E1
1.018433654E1,4.617238403E1,-1.471305405E1,1.704774902E1,5.137108869E1
1.019436954E1,5.904815872E1,-1.204545135E1,2.950065308E1,6.709744018E1
1.020440254E1,6.128001755E1,-6.515351257E0,3.207604752E1,6.947347103E1
1.021443554E1,5.515909607E1,-3.109034729E0,2.771052567E1,6.180667609E1
1.022446854E1,4.989304688E1,-4.603077850E0,2.349633911E1,5.534060357E1
1.023450054E1,4.801145966E1,-5.538782043E0,2.559078369E1,5.468698725E1
1.024453354E1,4.820066620E1,-3.061733093E0,3.345662659E1,5.875393003E1
1.025456654E1,4.879957077E1,5.334906006E-1,3.920287720E1,6.259830908E1
1.026459954E1,4.767959976E1,3.336262207E0,3.652973602E1,6.015726467E1
1.027463254E1,4.510570221E1,5.304070129E0,2.874921570E1,5.375104590E1
1.028466554E1,4.098881332E1,6.463858337E0,2.180335968E1,4.687484161E1
1.029469854E1,3.634037979E1,6.398743744E0,1.724653564E1,4.073094790E1
1.030473154E1,3.270653641E1,5.828878784E0,1.580443451E1,3.678958415E1
1.031476454E1,2.977862503E1,5.873785400E0,1.750040771E1,3.503615467E1
1.032479754E1,2.669788147E1,6.815776520E0,2.056842773E1,3.438447184E1
1.033482954E1,2.337688751E1,7.975265350E0,2.296344727E1,3.372541530E1
1.034486254E1,2.014914963E1,9.069789276E0,2.404030792E1,3.265249934E1
1.035489554E1,1.709535004E1,1.026565247E1,2.307751007E1,3.049928007E1
1.036492854E1,1.476095444E1,1.180220718E1,2.078173416E1,2.809018236E1
1.037496154E1,1.321062836E1,1.333606750E1,1.757689865E1,2.571611876E1
1.038499454E1,1.160596527E1,1.472712479E1,1.422940979E1,2.353853728E1
1.039502754E1,9.434880066E0,1.621577911E1,1.201641174E1,2.227919669E1
1.040506054E1,7.566764832E0,1.783615952E1,1.084464844E1,2.220339875E1
1.041509354E1,6.176156616E0,1.853819962E1,1.004171814E1,2.196920251E1
1.042512654E1,4.588108978E0,1.826127548E1,9.184899902E0,2.094963753E1
1.043515854E1,3.099903717E0,1.822475143E1,8.245303802E0,2.024193673E1
1.044519154E1,1.998045044E0,1.833327576E1,7.674690399E0,1.997503584E1
1.045522454E1,1.033899994E0,1.852442825E1,7.168293457E0,1.988989247E1
1.046525754E1,3.661386108E-1,1.907408524E1,6.297254791E0,2.009005234E1
1.047529054E1,5.334906006E-1,1.984857468E1,5.606890411E0,2.063220175E1
1.048532354E1,9.482780457E-1,2.037742493E1,5.041067047E0,2.101311578E1
1.049535654E1,1.055754547E0,1.991683273E1,4.731660461E0,2.049837687E1
1.050538954E1,8.656498718E-1,1.851589600E1,5.355563049E0,1.929429475E1
1.051542254E1,8.885522461E-1,1.705134155E1,7.042704620E0,1.846990694E1
1.052545554E1,9.138496399E-1,1.559232559E1,9.140442352E0,1.809705570E1
1.053548754E1,1.460213470E0,1.421488998E1,1.073028625E1,1.786992904E1
1.054552054E1,2.875370636E0,1.338741074E1,1.243733643E1,1.849805016E1
1.055555354E1,5.299878845E0,1.333382217E1,1.458252548E1,2.045799548E1
1.056558654E1,8.672066345E0,1.348860031E1,1.666065399E1,2.312411003E1
1.057561954E1,1.327379700E1,1.359083771E1,1.851290222E1,2.652606463E1
1.058565254E1,1.879641266E1,1.325313995E1,2.034763687E1,3.070793340E1
1.059568554E1,2.462394424E1,1.213152237E1,2.198523148E1,3.516906124E1
1.060571854E1,3.045866089E1,1.047342041E1,2.387071060E1,4.009031532E1
1.061575154E1,3.711831207E1,8.534352722E0,2.683409821E1,4.659048287E1
1.062578454E1,4.530703354E1,6.083948364E0,3.013952454E1,5.475520665E1
1.063581654E1,5.398823090E1,2.677332458E0,3.379028275E1,6.374700301E1
1.064584954E1,6.001395035E1,-1.969903564E-1,3.765105423E1,7.084712363E1
1.065588254E1,6.118511490E1,-2.294129333E0,3.952964767E1,7.287986251E1
1.066591554E1,6.058546188E1,-4.314477997E0,3.813245316E1,7.171678252E1
1.067594854E1,5.851137497E1,-6.578968964E0,3.436388992E1,6.817434095E1
1.068598154E1,5.597070831E1,-8.285270691E0,3.000465500E1,6.404408810E1
1.069601425E1,5.281437195E1,-1.006342300E1,2.653037979E1,5.995407758E1
1.070604725E1,4.885285995E1,-1.187750061E1,2.328228424E1,5.540524981E1
1.071608025E1,4.480183411E1,-1.306842407E1,1.976983841E1,5.068367151E1
1.072611225E1,4.021746735E1,-1.343381424E1,1.560789322E1,4.518316474E1
1.073614525E1,3.499827072E1,-1.304656952E1,1.166718796E1,3.913074500E1
1.074617825E1,2.959510666E1,-1.261546600E1,8.551417236E0,3.328884284E1
1.075621125E1,2.367626495E1,-1.247745300E1,5.332960052E0,2.728906042E1
1.076624425E1,1.747885254E1,-1.234542755E1,1.937870178E0,2.148662859E1
1.077627725E1,1.198856964E1,-1.175730057E1,5.418731689E-2,1.679174961E1
1.078631025E1,7.871531067E0,-1.060769119E1,-1.066831512E0,1.325225427E1
1.079634325E1,5.257516937E0,-9.202114105E0,-2.298170929E0,1.084444457E1
1.080637625E1,3.644022217E0,-7.999814301E0,-3.443738708E0,9.441147338E0
1.081640825E1,2.279759216E0,-7.420668640E0,-4.646038513E0,9.047060242E0
1.082644125E1,1.017284546E0,-7.518565063E0,-6.108946381E0,9.740786125E0
1.083647425E1,1.745370483E-1,-7.893535309E0,-7.094796295E0,1.061482441E1
1.084650725E1,-9.725276184E-1,-7.695048065E0,-6.477929077E0,1.010559943E1
1.085654025E1,-2.297721863E0,-6.898853760E0,-4.949756927E0,8.796237980E0
1.086657325E1,-3.357368317E0,-6.741830292E0,-3.963907013E0,8.510978587E0
1.087660625E1,-3.660937042E0,-7.165449371E0,-4.117188263E0,9.038659409E0
1.088663925E1,-3.678750000E0,-7.681725769E0,-4.844974823E0,9.798769994E0
1.089667225E1,-3.732937317E0,-7.900870056E0,-5.172643433E0,1.015454621E1
1.090670525E1,-4.072581024E0,-7.448061676E0,-4.801116028E0,9.752448618E0
1.091673725E1,-4.407883759E0,-6.387217712E0,-4.215683441E0,8.831646291E0
1.092677025E1,-4.408931580E0,-5.380561066E0,-3.721710663E0,7.889248717E0
1.093680325E1,-4.193679199E0,-4.783303070E0,-3.296145630E0,7.164601140E0
1.094683625E1,-3.632196808E0,-4.376598816E0,-3.070115662E0,6.463209808E0
1.095686925E1,-2.665507050E0,-3.867806854E0,-3.051254883E0,5.601340380E0
1.096690225E1,-1.622625732E0,-3.458408203E0,-3.277284851E0,5.033298875E0
1.097693525E1,-7.643106079E-1,-3.205883331E0,-3.530707855E0,4.829881634E0
1.098696825E1,-1.570234680E-1,-2.793191528E0,-3.711831207E0,4.648038962E0
1.099700125E1,2.380050659E-2,-2.050885162E0,-3.887715454E0,4.395569117E0
1.100703325E1,5.224136353E-2,-1.267713776E0,-4.333787842E0,4.515699772E0
1.101706625E1,-1.242416382E-2,-7.316784668E-1,-4.640799408E0,4.698140790E0
1.102709925E1,-1.222956848E-1,-3.652404785E-1,-4.511767731E0,4.528178983E0
1.103713225E1,-1.372645569E-1,-3.772155762E-2,-4.178410950E0,4.180835149E0
1.104716525E1,-1.519340515E-1,2.059716797E-1,-3.606749725E0,3.615819668E0
1.105719825E1,-3.252735901E-1,4.391867065E-1,-2.660866699E0,2.716412977E0
1.106723125E1,-3.932322693E-1,7.611671448E-1,-1.602417755E0,1.817071738E0
1.107726425E1,-3.611988831E-1,1.020128632E0,-6.282435608E-1,1.251326108E0
1.108729725E1,-2.014810181E-1,1.120120697E0,2.219883728E-1,1.159544658E0
1.109732925E1,-2.020797729E-2,1.176553345E0,7.289840698E-1,1.384234052E0
1.110736225E1,2.079176331E-1,1.154100037E0,7.177574158E-1,1.374900849E0
1.111739525E1,4.670288086E-1,1.062041473E0,3.306623840E-1,1.206393639E0
1.112742825E1,5.101391602E-1,9.288185120E-1,-2.243833923E-1,1.083186825E0
1.113746125E1,4.132905579E-1,8.268804932E-1,-7.095245361E-1,1.165317769E0
1.114749425E1,3.927832031E-1,7.457492065E-1,-9.463320923E-1,1.267266725E0
1.115752725E1,6.113287354E-1,7.810757446E-1,-9.074130249E-1,1.344321591E0
1.116756025E1,7.149133301E-1,8.144563293E-1,-4.284091187E-1,1.165321653E0
1.117759325E1,6.307882690E-1,7.875123596E-1,3.011737061E-1,1.052983931E0
1.118762625E1,5.188211060E-1,7.547305298E-1,9.921368408E-1,1.350232952E0
1.119765825E1,3.490740967E-1,6.786886597E-1,1.575324097E0,1.750461948E0
1.120769125E1,6.870712280E-2,5.563929749E-1,1.806593170E0,1.891579418E0
1.121772425E1,-1.722917175E-1,3.995191956E-1,1.673819275E0,1.729442392E0
1.122775725E1,-3.495231628E-1,3.418890381E-1,1.660796356E0,1.731270947E0
1.123779025E1,-5.081932068E-1,5.754034424E-1,1.888622589E0,2.038687014E0
1.124782325E1,-6.864724731E-1,8.565188599E-1,2.274071045E0,2.525127349E0
1.125785625E1,-9.343569946E-1,8.979826355E-1,2.852318573E0,3.132908720E0
1.126788925E1,-1.325792999E0,7.494914246E-1,3.450474701E0,3.771636267E0
1.127792225E1,-1.390009460E0,5.495072937E-1,3.767814789E0,4.053456901E0
1.128795425E1,-8.987310791E-1,2.556683350E-1,3.310665436E0,3.439998471E0
1.129798725E1,-1.860630798E-1,1.865121460E-1,2.005978546E0,2.023204433E0
1.130802025E1,8.231382751E-1,4.010160828E-1,3.182382202E-1,9.693534358E-1
1.131805325E1,2.080523529E0,1.646575928E-1,-1.223405914E0,2.419175957E0
1.132808625E1,3.784430237E0,-2.220183105E0,-3.217409363E0,5.440849956E0
1.133811925E1,6.043682098E0,-6.968608704E0,-4.877157898E0,1.043428338E1
1.134815225E1,8.205336914E0,-1.189037384E1,-4.700674896E0,1.519226410E1
1.135818525E1,1.151600235E1,-1.325508591E1,-1.885329437E0,1.765984370E1
1.136821825E1,1.847069000E1,-9.791438599E0,2.218536530E0,2.102285812E1
1.137825025E1,2.987801834E1,-5.185516663E0,6.043382721E0,3.092099671E1
1.138828325E1,3.941124390E1,-1.494492188E0,9.374256134E0,4.053833162E1
1.139831625E1,4.417104584E1,2.185605011E0,1.081081879E1,4.552726614E1
1.140834925E1,4.344565430E1,3.904779968E0,1.060364960E1,4.489108563E1
1.141838225E1,3.831642059E1,1.890418854E0,1.058793228E1,3.979731248E1
1.142841525E1,3.283841217E1,-6.445596313E-1,1.237072495E1,3.509717377E1
1.143844825E1,2.820958786E1,-1.148561554E0,1.551119431E1,3.221330765E1
1.144848125E1,2.577340393E1,-4.206253052E-1,1.748019974E1,3.114486569E1
1.145851425E1,2.616858215E1,1.294807434E-1,1.643447433E1,3.090151135E1
1.146854725E1,2.775303726E1,2.444416809E-1,1.261561569E1,3.048679367E1
1.147857925E1,2.951696915E1,9.774673462E-2,7.376061401E0,3.042478108E1
1.148861225E1,3.173760132E1,-8.187973022E-2,2.478396149E0,3.183432879E1
1.149864525E1,3.395074905E1,2.519261169E-1,-8.277786255E-1,3.396177330E1
1.150867825E1,3.516188049E1,1.344354401E0,-1.863624573E0,3.523688728E1
1.151871125E1,3.357907196E1,2.388732605E0,-7.875123596E-1,3.367313904E1
1.152874425E1,3.017021072E1,2.775378571E0,1.922601929E0,3.035853652E1
1.153877725E1,2.660342789E1,2.263143768E0,4.832700348E0,2.713335931E1
1.154881025E1,2.314457062E1,1.337319031E0,7.473658447E0,2.435806113E1
1.155884325E1,1.958437408E1,8.110134888E-1,9.821825409E0,2.192427206E1
1.156887525E1,1.639151367E1,8.999285889E-1,1.133263367E1,1.994793668E1
1.157890825E1,1.383527939E1,1.306932220E0,1.167302582E1,1.814889967E1
1.158894125E1,1.217433334E1,1.491947479E0,1.119776413E1,1.660813720E1
1.159897425E1,1.138562347E1,1.599873047E0,1.034064651E1,1.546353731E1
1.160900725E1,1.092907288E1,1.843865662E0,9.137598267E0,1.436454582E1
1.161904025E1,1.106708588E1,2.606529694E0,7.736811218E0,1.375255012E1
1.162907325E1,1.124042542E1,3.653153229E0,6.062393188E0,1.328327155E1
1.163910625E1,1.127111160E1,4.628973999E0,4.066743164E0,1.284537882E1
1.164913925E1,1.104672821E1,5.353317719E0,2.119143219E0,1.245708564E1
1.165917125E1,1.050680099E1,5.884862366E0,3.345542908E-1,1.204725690E1
1.166920425E1,9.807754669E0,6.207142181E0,-1.032103729E0,1.165272088E1
1.167923725E1,8.726103973E0,6.278394012E0,-1.568139038E0,1.086380145E1
1.168927025E1,7.249574432E0,6.399941254E0,-1.231489105E0,9.748443102E0
1.169930312E1,6.026318207E0,6.536457367E0,-2.284249878E-1,8.893478735E0
1.170933613E1,5.660029907E0,6.833739166E0,1.486858063E0,8.997037092E0
1.171936912E1,5.228477325E0,7.395970001E0,3.606749725E0,9.749153347E0
1.172940212E1,4.644990692E0,8.035290527E0,5.485043793E0,1.078088762E1
1.173943513E1,4.315825195E0,8.662935333E0,6.701414337E0,1.177207500E1
1.174946712E1,4.433779907E0,9.358838196E0,7.018754425E0,1.251036252E1
1.175950013E1,4.994663544E0,1.010758118E1,6.414610748E0,1.297139515E1
1.176953312E1,5.227279816E0,1.080962128E1,5.247637482E0,1.310381874E1
1.177956612E1,5.163662109E0,1.158860138E1,4.135599976E0,1.334399773E1
1.178959913E1,5.362598419E0,1.230171844E1,3.033890991E0,1.375842408E1
1.179963212E1,6.049370270E0,1.285002823E1,2.079475708E0,1.435417449E1
1.180966512E1,6.810238037E0,1.352123245E1,1.581012268E0,1.522178271E1
1.181969813E1,7.808362427E0,1.396775391E1,1.547481995E0,1.607679612E1
1.182973112E1,8.809929657E0,1.386132523E1,2.218835907E0,1.657330475E1
1.183976413E1,9.851912842E0,1.342258759E1,3.992048492E0,1.712198865E1
1.184979612E1,1.118354370E1,1.274973679E1,5.976322174E0,1.798176478E1
1.185982912E1,1.193617859E1,1.164024399E1,7.869136047E0,1.843613141E1
1.186986213E1,1.201386703E1,1.027807663E1,9.638905792E0,1.851702906E1
1.187989512E1,1.180924255E1,8.723409576E0,1.007405090E1,1.780568971E1
1.188992812E1,1.210742249E1,7.344477081E0,1.004201752E1,1.736010192E1
1.189996113E1,1.432491119E1,6.722370758E0,1.065619034E1,1.907741444E1
1.190999412E1,1.855182129E1,7.572453003E0,1.200099380E1,2.335671145E1
1.192002713E1,2.549363571E1,9.409582672E0,1.396296387E1,3.055208778E1
1.193006012E1,3.330559067E1,1.077249847E1,1.638837021E1,3.865084438E1
1.194009212E1,3.922652802E1,1.045979874E1,1.868384674E1,4.469020048E1
1.195012513E1,4.263808365E1,7.946076050E0,2.007325745E1,4.779207012E1
1.196015812E1,4.589486115E1,5.578599243E0,2.226919098E1,5.131642930E1
1.197019113E1,5.078968231E1,3.831881561E0,2.628324371E1,5.731565271E1
1.198022412E1,5.652994537E1,2.146087189E0,2.911520462E1,6.362338842E1
1.199025712E1,6.055088379E1,4.818479919E-1,2.889725784E1,6.709465862E1
1.200029013E1,6.148060043E1,-2.402803345E0,2.628339340E1,6.690631108E1
1.201032312E1,5.991425766E1,-5.915398865E0,2.369228165E1,6.469957051E1
1.202035612E1,5.607908295E1,-8.873846741E0,2.248354523E1,6.106650887E1
1.203038913E1,5.087949554E1,-1.132065857E1,2.025827271E1,5.592207069E1
1.204042112E1,4.403587692E1,-1.227687012E1,1.662951874E1,4.864587228E1
1.205045413E1,3.636388092E1,-1.181582886E1,1.357751541E1,4.057455572E1
1.206048712E1,2.934093521E1,-1.146720383E1,1.120105728E1,3.343427772E1
1.207052012E1,2.256826904E1,-1.145552811E1,9.288484497E0,2.695981892E1
1.208055313E1,1.595517105E1,-1.146645538E1,7.421417084E0,2.100296441E1
1.209058612E1,1.112022537E1,-1.078252762E1,6.158643036E0,1.666886913E1
1.210061912E1,7.846383362E0,-9.906549225E0,4.799918518E0,1.351830859E1
1.211065213E1,5.497467957E0,-9.002129974E0,2.981200562E0,1.096120681E1
1.212068512E1,3.920646973E0,-7.563771057E0,1.660047913E0,8.679738727E0
1.213071713E1,2.863245850E0,-5.969137115E0,8.857081604E-1,6.679315357E0
1.214075012E1,2.641706543E0,-4.253704376E0,3.406915283E-1,5.018833041E0
1.215078312E1,3.175646210E0,-2.734812927E0,-1.845661926E-1,4.194996457E0
1.216081613E1,3.888314209E0,-1.668879547E0,-8.764274597E-1,4.321142375E0
1.217084912E1,4.344565430E0,-9.101074219E-1,-1.588047638E0,4.714386449E0
1.218088212E1,4.340972900E0,-5.688171387E-1,-2.272723846E0,4.932836136E0
1.219091513E1,2.952909393E0,-1.093625793E0,-1.765428772E0,3.610045707E0
1.220094812E1,8.870553589E-1,-1.996398468E0,-7.229965210E-2,2.185795346E0
1.221098113E1,-5.396278381E-1,-2.517614594E0,1.017284546E0,2.768474181E0
1.222101312E1,-1.263073425E0,-2.873274994E0,1.682950287E0,3.561374080E0
1.223104612E1,-1.840572510E0,-3.469934235E0,2.083666992E0,4.446326449E0
1.224107913E1,-2.342179413E0,-4.142186279E0,1.913021851E0,5.128661051E0
1.225111212E1,-2.979404297E0,-4.682263184E0,1.536704407E0,5.758636898E0
1.226114512E1,-3.308120728E0,-5.039570160E0,1.127305756E0,6.132841789E0
1.227117813E1,-3.014281769E0,-5.200036469E0,8.023315430E-1,6.063827979E0
1.228121112E1,-2.421813812E0,-5.580994263E0,1.032852173E-1,6.084681334E0
1.229124413E1,-1.669478302E0,-6.157295837E0,-6.282435608E-1,6.410471106E0
1.230127712E1,-1.609153748E0,-6.546636200E0,-9.686357117E-1,6.810732447E0
1.231130912E1,-2.448308716E0,-6.738537140E0,-6.936575317E-1,7.203003479E0
1.232134213E1,-3.450025635E0,-6.592291260E0,-0.000000000E0,7.440496014E0
1.233137512E1,-4.108057251E0,-6.455625458E0,6.403683472E-1,7.678626573E0
1.234140813E1,-4.097728729E0,-6.286776581E0,1.094972992E0,7.583792347E0
1.235144112E1,-3.674109650E0,-6.031407623E0,1.296004944E0,7.180291669E0
1.236147412E1,-3.054997101E0,-5.660778351E0,1.162183228E0,6.536672600E0
1.237150713E1,-2.611619110E0,-5.150788879E0,8.174501038E-1,5.832615634E0
1.238154012E1,-2.593656464E0,-4.785698090E0,2.721340942E-1,5.450139174E0
1.239157312E1,-2.675236816E0,-4.532125397E0,-2.142045593E-1,5.267156370E0
1.240160513E1,-2.433040466E0,-4.258494415E0,-4.200265503E-1,4.922487471E0
1.241163812E1,-2.294728088E0,-4.194577332E0,-3.251239014E-1,4.792281455E0
1.242167113E1,-2.284549255E0,-4.117038574E0,-2.439926147E-1,4.714732688E0
1.243170412E1,-2.433788910E0,-3.968098297E0,-1.754351807E-1,4.658316225E0
1.244173712E1,-2.499502258E0,-3.824097748E0,-6.436614990E-2,4.568958101E0
1.245177013E1,-2.317031708E0,-3.637286224E0,2.487826538E-1,4.319766177E0
1.246180312E1,-2.099683685E0,-3.471880188E0,6.483018494E-1,4.108882927E0
1.247183612E1,-1.823058929E0,-3.297043762E0,8.244854736E-1,3.856658881E0
1.248186913E1,-1.531465302E0,-3.082988892E0,9.662406921E-1,3.575447881E0
1.249190212E1,-1.280736694E0,-2.832559662E0,9.139993286E-1,3.240227691E0
1.250193413E1,-1.097667389E0,-2.768193512E0,6.523434448E-1,3.048494872E0
1.251196712E1,-8.731343079E-1,-2.928061066E0,5.686674500E-1,3.107939477E0
1.252200012E1,-6.237528992E-1,-2.966531067E0,6.156697083E-1,3.093286834E0
1.253203313E1,-4.254153442E-1,-2.718646545E0,7.243437195E-1,2.845468516E0
1.254206612E1,-5.176235962E-1,-2.662363586E0,8.487350464E-1,2.841912249E0
1.255209912E1,-9.951306152E-1,-2.893932037E0,1.207688599E0,3.289929989E0
1.256213213E1,-1.229543152E0,-2.850073242E0,1.681154022E0,3.530010297E0
1.257216512E1,-1.151854706E0,-2.744243317E0,1.825004883E0,3.491172220E0
1.258219813E1,-1.004860382E0,-2.840942230E0,1.762584686E0,3.491045963E0
1.259223012E1,-8.869056702E-1,-3.031795349E0,1.805545349E0,3.638458288E0
1.260226312E1,-7.451504517E-1,-3.093317413E0,1.702858887E0,3.608821165E0
1.261229613E1,-3.335064697E-1,-2.970722351E0,1.563947754E0,3.373773915E0
1.262232912E1,-2.499801636E-2,-3.119063873E0,1.588496704E0,3.500358000E0
1.263236213E1,3.980223083E-1,-3.545976105E0,1.709744568E0,3.956715150E0
1.264239512E1,1.932481384E-1,-4.037104797E0,1.898801422E0,4.465535447E0
1.265242812E1,-6.854246521E-1,-4.399501190E0,2.051334229E0,4.902386133E0
1.266246113E1,-1.085093536E0,-4.264631653E0,1.946402435E0,4.811755767E0
1.267249312E1,-7.770341492E-1,-4.216431885E0,8.976832581E-1,4.380401253E0
1.268252612E1,6.640191650E-1,-5.065466309E0,-1.438358917E0,5.307423739E0
1.269255913E1,3.769461365E0,-6.703060913E0,-3.826792145E0,8.589773146E0
1.270259200E1,9.223070526E0,-7.950716400E0,-2.808010712E0,1.249655334E1
1.271262500E1,1.696527054E1,-7.143145752E0,3.191962280E0,1.868243985E1
1.272265800E1,2.888752808E1,-3.084635468E0,1.035636383E1,3.084247925E1
1.273269100E1,4.153742249E1,7.705975342E-1,1.336660400E1,4.364192239E1
1.274272400E1,4.814752670E1,2.719095612E0,1.110181366E1,4.948563504E1
1.275275700E1,4.722050446E1,3.327430573E0,6.188880157E0,4.774044483E1
1.276279000E1,4.471561340E1,2.794538727E0,3.027304688E0,4.490501200E1
1.277282200E1,4.115317154E1,1.244961090E0,3.150498505E0,4.129236124E1
1.278285500E1,3.579985382E1,-1.159189453E0,5.705684967E0,3.627020947E1
1.279288800E1,3.164763840E1,-2.949616241E0,1.022553589E1,3.338914249E1
1.280292100E1,3.007934967E1,-3.782783661E0,1.556717789E1,3.407952107E1
1.281295400E1,3.166410416E1,-3.815116425E0,2.152553741E1,3.847751767E1
1.282298700E1,3.539494583E1,-3.196003876E0,2.663875443E1,4.441441059E1
1.283302000E1,3.990970734E1,-2.412084045E0,2.661390610E1,4.803022889E1
1.284305300E1,4.298790619E1,-1.873803406E0,2.250480103E1,4.855859643E1
1.285308600E1,4.203528717E1,-7.691006470E-1,1.712603622E1,4.539667389E1
1.286311800E1,3.663751190E1,-3.517684937E-2,1.132514923E1,3.834797936E1
1.287315100E1,3.115426437E1,-8.553213501E-1,7.377258911E0,3.202723392E1
1.288318400E1,2.872047546E1,-2.479893036E0,8.535699921E0,3.006449323E1
1.289321700E1,2.899186111E1,-3.918102264E0,1.526001663E1,3.299617620E1
1.290325000E1,2.904215652E1,-4.104015656E0,2.205992615E1,3.670054689E1
1.291328300E1,2.764331543E1,-3.323838043E0,2.516671555E1,3.753084543E1
1.292331600E1,2.608071487E1,-2.480192413E0,2.455957809E1,3.590999748E1
1.293334900E1,2.485042328E1,-1.873653717E0,2.218237152E1,3.336332900E1
1.294338100E1,2.271241928E1,-1.194965057E0,1.905836792E1,2.967327617E1
1.295341400E1,2.031515442E1,-1.350192261E-1,1.516182083E1,2.534964576E1
1.296344700E1,1.871438324E1,1.407523041E0,1.152423523E1,2.202310738E1
1.297348000E1,1.845078140E1,3.501219177E0,8.850046234E0,2.076085712E1
1.298351300E1,1.870989258E1,5.867498474E0,6.916966095E0,2.079259576E1
1.299354600E1,1.965817062E1,8.661139069E0,5.341941376E0,2.213583836E1
1.300357900E1,2.109697861E1,1.171284302E1,4.079915771E0,2.447281983E1
1.301361200E1,2.054163345E1,1.429302750E1,2.460134125E0,2.514560796E1
1.302364500E1,1.842473557E1,1.653431671E1,2.035766602E-2,2.475590685E1
1.303367700E1,1.471065903E1,1.816307968E1,-1.740730133E0,2.343781333E1
1.304371000E1,1.021969803E1,1.894146103E1,-1.368154907E0,2.156601543E1
1.305374300E1,6.511758728E0,1.887724457E1,1.148711243E0,2.000182246E1
1.306377600E1,3.942202148E0,1.813808167E1,4.259093170E0,1.904391869E1
1.307380900E1,2.576442261E0,1.714579514E1,7.400909729E0,1.885178534E1
1.308384200E1,1.765428772E0,1.632295624E1,1.061861847E1,1.955276700E1
1.309387500E1,9.220825195E-1,1.523292297E1,1.356299561E1,2.041683198E1
1.310390800E1,7.394622803E-2,1.382989059E1,1.543949341E1,2.072798347E1
1.311394100E1,-6.691085815E-1,1.300794983E1,1.579051346E1,2.046936199E1
1.312397400E1,-9.234297180E-1,1.296289352E1,1.476873825E1,1.967244165E1
1.313400600E1,-1.000669098E0,1.341674973E1,1.354188950E1,1.908908806E1
1.314403900E1,8.307723999E-2,1.396386200E1,1.280287628E1,1.894491976E1
1.315407200E1,2.110161896E0,1.424213333E1,1.277024414E1,1.924500664E1
1.316410500E1,4.420158234E0,1.394051056E1,1.281679733E1,1.944597458E1
1.317413800E1,6.060896301E0,1.288191193E1,1.293041107E1,1.923209945E1
1.318417100E1,7.413932648E0,1.130943192E1,1.360251343E1,1.918066785E1
1.319420400E1,1.023691223E1,9.646839294E0,1.586251373E1,2.120083070E1
1.320423700E1,1.439676178E1,7.257657623E0,1.814751205E1,2.427493641E1
1.321427000E1,1.915970718E1,4.451443176E0,2.023791504E1,2.822202918E1
1.322430200E1,2.386562119E1,2.957849121E0,2.250270538E1,3.293460939E1
1.323433500E1,2.987996429E1,3.615581360E0,2.510010406E1,3.919055905E1
1.324436800E1,3.797093903E1,4.791535950E0,2.713871475E1,4.691759655E1
1.325440100E1,4.524206863E1,4.740791473E0,2.746174301E1,5.313630781E1
1.326443400E1,4.907365082E1,3.284469910E0,2.540157715E1,5.535567784E1
1.327446700E1,5.150324844E1,1.216819611E0,2.331282074E1,5.654690850E1
1.328450000E1,5.526223160E1,-7.677534485E-1,2.447904556E1,6.044606983E1
1.329453300E1,5.919230896E1,-2.453248444E0,2.720023682E1,6.518896188E1
1.330456600E1,6.204402878E1,-4.103865967E0,2.872736115E1,6.849499618E1
1.331459800E1,6.435477356E1,-5.283413086E0,2.906595703E1,7.081158939E1
1.332463100E1,6.577831329E1,-6.302044830E0,2.809327972E1,7.180344445E1
1.333466400E1,6.678631714E1,-7.986492004E0,2.527299454E1,7.185346522E1
1.334469700E1,6.669800079E1,-9.575288086E0,2.288141785E1,7.116086519E1
1.335473000E1,6.455760178E1,-1.094209579E1,2.063279388E1,6.865220747E1
1.336476300E1,6.049130768E1,-1.273581573E1,1.873489059E1,6.459408202E1
1.337479600E1,5.455959274E1,-1.361718292E1,1.718725891E1,5.880117941E1
1.338482900E1,4.715000107E1,-1.337004684E1,1.601594467E1,5.155958919E1
1.339486100E1,4.041984650E1,-1.228615082E1,1.488848923E1,4.479264007E1
1.340489400E1,3.400179291E1,-1.158590698E1,1.296364197E1,3.818914996E1
1.341492700E1,2.758673309E1,-1.233824249E1,9.759554901E0,3.175703044E1
1.342496000E1,2.090373047E1,-1.370894211E1,6.240373077E0,2.576515665E1
1.343499300E1,1.415965485E1,-1.431802551E1,3.361709290E0,2.041574807E1
1.344502600E1,7.902067566E0,-1.356748627E1,1.752854919E0,1.579847638E1
1.345505900E1,2.991978149E0,-1.212733109E1,1.491199036E0,1.257965687E1
1.346509200E1,4.902305603E-1,-1.063298859E1,2.100881195E0,1.084963014E1
1.347512500E1,3.017724609E-1,-9.257498932E0,3.025508423E0,9.744026596E0
1.348515800E1,1.510957947E0,-8.187523956E0,3.121758270E0,8.891789311E0
1.349519000E1,3.122656403E0,-7.491022339E0,2.179467773E0,8.403361141E0
1.350522300E1,4.497098236E0,-7.207661591E0,8.776249695E-1,8.540755455E0
1.351525600E1,5.486241302E0,-7.508535919E0,-1.646575928E-1,9.300756281E0
1.352528900E1,5.014871521E0,-8.615334320E0,-7.357200623E-1,9.995709371E0
1.353532200E1,3.173251190E0,-1.041444305E1,-6.801855469E-1,1.090838208E1
1.354535500E1,3.155438232E-1,-1.237566467E1,2.646496582E-1,1.238251523E1
1.355538800E1,-2.683320007E0,-1.434077820E1,1.182989960E0,1.463754046E1
1.356542100E1,-4.767286377E0,-1.574845093E1,1.321002960E0,1.650714315E1
1.357545300E1,-6.001170502E0,-1.590487564E1,7.762857056E-1,1.701710128E1
1.358548600E1,-6.361171875E0,-1.530881516E1,-5.740562439E-1,1.658776265E1
1.359551900E1,-5.623505859E0,-1.413585434E1,-2.272424469E0,1.538213604E1
1.360555200E1,-4.012256470E0,-1.217627930E1,-3.033591614E0,1.317431811E1
1.361558500E1,-2.492317200E0,-9.816286926E0,-2.382295990E0,1.040415630E1
1.362561800E1,-1.798360291E0,-7.967930603E0,-9.053173828E-1,8.218370726E0
1.363565100E1,-1.484612732E0,-7.014114075E0,1.142723694E0,7.260006106E0
1.364568400E1,-1.204545135E0,-6.544540558E0,3.000959473E0,7.299842317E0
1.365571600E1,-1.425934753E0,-6.112389221E0,4.166735229E0,7.533676021E0
1.366574900E1,-2.320923615E0,-5.642666016E0,4.665048981E0,7.680432812E0
1.367578200E1,-3.308719482E0,-5.199138336E0,4.571194153E0,7.672970744E0
1.368581500E1,-3.760480042E0,-4.735851746E0,3.971840515E0,7.234985762E0
1.369584800E1,-3.394940186E0,-4.158502350E0,3.284619598E0,6.293447907E0
1.370588067E1,-2.604583740E0,-3.498674469E0,2.804418182E0,5.185493307E0
1.371591367E1,-2.094594269E0,-2.923121338E0,2.346969452E0,4.294208788E0
1.372594667E1,-1.871258698E0,-2.381098480E0,1.876647491E0,3.562729978E0
1.373597967E1,-1.461410980E0,-1.837728424E0,1.493444366E0,2.782686452E0
1.374601167E1,-1.003363495E0,-1.392254791E0,1.413660278E0,2.223408889E0
1.375604467E1,-8.451425171E-1,-1.119971008E0,1.570234680E0,2.105763017E0
1.376607767E1,-6.710545349E-1,-9.041198730E-1,2.125280457E0,2.405112046E0
1.377611067E1,-4.656816101E-1,-6.926097107E-1,2.819536743E0,2.940468503E0
1.378614367E1,-4.346960449E-1,-5.882766724E-1,3.152145081E0,3.235899984E0
1.379617667E1,-3.427871704E-1,-3.653901672E-1,3.156336365E0,3.195852354E0
1.380620967E1,-1.766326904E-2,2.848576355E-1,3.136577454E0,3.149535519E0
1.381624267E1,1.966909790E-1,8.442443848E-1,3.255879364E0,3.369300574E0
1.382627567E1,4.125421143E-1,8.141569519E-1,3.338956604E0,3.461455437E0
1.383630767E1,6.156697083E-1,6.744973755E-1,3.086880798E0,3.219134816E0
1.384634067E1,5.328918457E-1,6.568341064E-1,2.484832764E0,2.624842591E0
1.385637367E1,2.883004761E-1,5.782475281E-1,1.782642975E0,1.896128515E0
1.386640667E1,-1.164578247E-1,2.056723022E-1,1.325942688E0,1.346843544E0
1.387643967E1,-5.272036743E-1,-1.345701599E-1,1.142124939E0,1.265109568E0
1.388647267E1,-8.434959412E-1,-3.306623840E-1,1.122066650E0,1.442170788E0
1.389650567E1,-1.162931671E0,-6.056405640E-1,1.184037781E0,1.766679380E0
1.390653867E1,-1.506018219E0,-9.463320923E-1,1.018032990E0,2.049396612E0
1.391657167E1,-1.632804565E0,-1.172212372E0,1.293460236E0,2.390224252E0
1.392660367E1,-1.434616699E0,-1.151405640E0,1.931283875E0,2.667155306E0
1.393663667E1,-1.279838562E0,-1.149309998E0,2.080972595E0,2.699879101E0
1.394666967E1,-1.403631134E0,-1.332229614E0,1.811383209E0,2.650683919E0
1.395670267E1,-1.525926819E0,-1.418450317E0,1.769170990E0,2.733206899E0
1.396673567E1,-1.250050507E0,-1.337019653E0,1.839973755E0,2.595332588E0
1.397676867E1,-8.520281982E-1,-1.373094635E0,1.308429108E0,2.079261325E0
1.398680167E1,-4.120930481E-1,-1.399589539E0,5.923182678E-1,1.574646782E0
1.399683467E1,7.559280396E-2,-1.153201904E0,3.742218018E-3,1.155682875E0
1.400686667E1,8.349636841E-1,-1.188827820E0,-8.928932190E-1,1.705207975E0
1.401689967E1,1.434317322E0,-2.547402649E0,-3.229983215E0,4.356525910E0
1.402693267E1,1.424437866E0,-5.642067261E0,-7.684270477E0,9.638981221E0
1.403696567E1,3.068768463E0,-9.130413208E0,-1.059885956E1,1.432192756E1
1.404699867E1,8.905281372E0,-1.100541412E1,-8.291407928E0,1.640642014E1
1.405703167E1,2.049478088E1,-7.854017487E0,-1.325643311E0,2.198815509E1
1.406706467E1,3.373968796E1,-2.544708252E-3,1.061293030E1,3.536949023E1
1.407709767E1,4.625531158E1,6.589447174E0,2.445404755E1,5.273495146E1
1.408713067E1,5.261169342E1,9.458830261E0,2.860746048E1,6.062876009E1
1.409716267E1,4.936150223E1,1.083925964E1,2.526985107E1,5.650321075E1
1.410719567E1,4.298087082E1,1.157497971E1,2.184781723E1,4.958490223E1
1.411722867E1,3.942471588E1,1.174712173E1,2.093666199E1,4.615893095E1
1.412726167E1,3.902863953E1,1.109941864E1,2.163885178E1,4.598555973E1
1.413729467E1,3.659215622E1,9.005123749E0,2.079550552E1,4.304104089E1
1.414732767E1,3.089515320E1,5.129682770E0,2.016007690E1,3.724584322E1
1.415736067E1,2.638084076E1,1.439706116E0,1.985875351E1,3.305134799E1
1.416739367E1,2.541804291E1,-9.874964905E-1,1.933723801E1,3.195279062E1
1.417742667E1,2.702300537E1,-3.045117645E0,1.939741287E1,3.340322121E1
1.418745867E1,2.918945023E1,-4.137845306E0,2.084280716E1,3.610496335E1
1.419749167E1,3.117791519E1,-2.808609467E0,2.248698807E1,3.854368061E1
1.420752467E1,3.058020813E1,-4.209246826E-1,2.319142319E1,3.838187614E1
1.421755767E1,2.850791748E1,1.548978882E0,2.190739334E1,3.598658886E1
1.422759067E1,2.673350739E1,3.032843170E0,1.920730820E1,3.305751417E1
1.423762367E1,2.422771820E1,3.625909882E0,1.613809067E1,2.933543117E1
1.424765667E1,2.187910217E1,3.283272400E0,1.415172134E1,2.626301975E1
1.425768967E1,2.036260574E1,2.648442535E0,1.382105896E1,2.475220457E1
1.426772167E1,1.912482971E1,2.946622467E0,1.543829590E1,2.475444759E1
1.427775467E1,1.838491837E1,3.849544830E0,1.677396835E1,2.518313390E1
1.428778767E1,1.830902618E1,4.536166992E0,1.645168854E1,2.502908921E1
1.429782067E1,1.733290604E1,4.964276733E0,1.482966156E1,2.334507522E1
1.430785367E1,1.602268066E1,5.461243286E0,1.252834717E1,2.105969982E1
1.431788667E1,1.514864822E1,6.016738129E0,1.039408539E1,1.933183105E1
1.432791967E1,1.449869980E1,6.475384369E0,8.701555023E0,1.810690361E1
1.433795267E1,1.409603714E1,6.892866211E0,7.403005371E0,1.734976531E1
1.434798567E1,1.351299957E1,7.461982727E0,6.430028687E0,1.672206963E1
1.435801767E1,1.212313980E1,7.964487762E0,5.472320251E0,1.550322137E1
1.436805067E1,1.158081757E1,8.339458008E0,4.771627350E0,1.504760190E1
1.437808367E1,1.114028366E1,8.472980347E0,4.660558319E0,1.475188530E1
1.438811667E1,1.014769775E1,8.526568909E0,4.573439484E0,1.402121592E1
1.439814967E1,9.490713959E0,8.924142151E0,4.324806519E0,1.372654057E1
1.440818267E1,9.264085236E0,9.795929260E0,4.130660248E0,1.410127155E1
1.441821567E1,9.323062592E0,1.063673080E1,3.925586700E0,1.467888856E1
1.442824867E1,9.358987885E0,1.090617050E1,3.732787628E0,1.484819560E1
1.443828167E1,8.906778259E0,1.091200836E1,3.865561523E0,1.460634079E1
1.444831367E1,8.156089325E0,1.094538895E1,4.299060059E0,1.431101847E1
1.445834667E1,7.105573883E0,1.072235275E1,4.808899841E0,1.373257246E1
1.446837967E1,6.199508057E0,1.031415161E1,5.192102966E0,1.310624114E1
1.447841267E1,5.742508392E0,9.884844360E0,5.593717804E0,1.272698824E1
1.448844567E1,6.100414124E0,9.793234863E0,6.133195953E0,1.306669791E1
1.449847867E1,7.494465179E0,1.042926224E1,7.011719055E0,1.463218108E1
1.450851167E1,9.834399261E0,1.169922134E1,8.154143372E0,1.732273775E1
1.451854467E1,1.284389099E1,1.318368439E1,9.653425598E0,2.078373632E1
1.452857767E1,1.557106979E1,1.407717636E1,1.150791916E1,2.393861550E1
1.453860967E1,1.777837967E1,1.390069336E1,1.278191986E1,2.593602774E1
1.454864267E1,1.983375549E1,1.273626480E1,1.353575226E1,2.718100232E1
1.455867567E1,2.103680374E1,1.048569489E1,1.355625961E1,2.713427876E1
1.456870867E1,2.125579834E1,7.648195496E0,1.288730072E1,2.600742927E1
1.457874167E1,2.061483124E1,4.927153931E0,1.233554810E1,2.452374074E1
1.458877467E1,1.933993240E1,3.069666595E0,1.206730591E1,2.300164582E1
1.459880767E1,1.801114563E1,2.580034790E0,1.216235825E1,2.188563238E1
1.460884067E1,1.684971085E1,3.043920135E0,1.310973816E1,2.156486587E1
1.461887267E1,1.729054413E1,3.504212952E0,1.453432571E1,2.285801935E1
1.462890567E1,1.926418991E1,3.407214661E0,1.560385162E1,2.502395473E1
1.463893867E1,2.221724899E1,3.379522247E0,1.660107788E1,2.793963332E1
1.464897167E1,2.548390594E1,4.024231567E0,1.729548386E1,3.106054835E1
1.465900467E1,2.848247040E1,5.727838898E0,1.787912018E1,3.411337270E1
1.466903767E1,3.137879745E1,8.126301270E0,1.969304810E1,3.792732320E1
1.467907067E1,3.406376404E1,1.015308655E1,2.335383545E1,4.253030469E1
1.468910367E1,3.706741791E1,1.196746353E1,2.892554901E1,4.851701804E1
1.469913729E1,4.123295563E1,1.328966400E1,3.442092133E1,5.533147047E1
1.470916929E1,4.629273376E1,1.349548599E1,3.733042099E1,6.098119114E1
1.471920229E1,5.108142563E1,1.317425400E1,3.732772659E1,6.462377415E1
1.472923529E1,5.478427551E1,1.197060699E1,3.616165146E1,6.672538731E1
1.473926829E1,5.587086594E1,9.446855164E0,3.450729172E1,6.634417770E1
1.474930129E1,5.484669571E1,6.206842804E0,3.253244843E1,6.407062610E1
1.475933429E1,5.236141388E1,2.916834412E0,3.072346024E1,6.077957383E1
1.476936729E1,4.912649094E1,-6.547384644E-1,2.791500046E1,5.650741584E1
1.477940029E1,4.524910400E1,-4.607568512E0,2.385723862E1,5.136028558E1
1.478943229E1,3.980911652E1,-8.720715179E0,1.897214722E1,4.495285309E1
1.479946529E1,3.208083755E1,-1.340716965E1,1.248119522E1,3.694201633E1
1.480949829E1,2.271017395E1,-1.662667465E1,7.014862518E0,2.900700962E1
1.481953129E1,1.259944931E1,-1.757570114E1,5.900729370E0,2.241584263E1
1.482956429E1,3.942651215E0,-1.767015472E1,6.507866821E0,1.923879407E1
1.483959729E1,-1.369651794E0,-1.785457123E1,7.496560822E0,1.941288448E1
1.484963029E1,-3.362607422E0,-1.797267563E1,7.469317474E0,1.975132657E1
1.485966329E1,-2.737956390E0,-1.695149918E1,6.078260193E0,1.821524023E1
1.486969629E1,-3.266207886E-1,-1.507634857E1,3.823798370E0,1.555713346E1
1.487972829E1,2.172432404E0,-1.308309357E1,1.036444702E0,1.330266956E1
1.488976129E1,4.076323242E0,-1.098625397E1,-1.844314728E0,1.186236419E1
1.489979429E1,5.493426361E0,-8.524622955E0,-4.411326599E0,1.105923741E1
1.490982729E1,5.617368622E0,-6.808890839E0,-6.600374451E0,1.102183141E1
1.491986029E1,4.399501190E0,-5.904022522E0,-7.981552277E0,1.085901788E1
1.492989329E1,2.013013916E0,-5.257966003E0,-7.909851379E0,9.708974218E0
1.493992629E1,-1.171463928E0,-5.744753723E0,-5.913153534E0,8.327058772E0
1.494995929E1,-4.939578094E0,-6.863676910E0,-2.206411743E0,8.739436210E0
1.495999129E1,-7.955057373E0,-6.994355164E0,2.053280182E0,1.078980544E1
1.497002429E1,-9.631870422E0,-6.775061188E0,4.520749054E0,1.261394284E1
1.498005729E1,-9.599537659E0,-7.016209717E0,4.321663055E0,1.265128822E1
1.499009029E1,-8.673712921E0,-6.906038818E0,1.294657745E0,1.116256273E1
1.500012329E1,-6.930737457E0,-6.285279694E0,-3.253184967E0,9.905709210E0
1.501015629E1,-5.358107758E0,-5.169499969E0,-7.405849457E0,1.050141204E1
1.502018929E1,-3.988006897E0,-3.823798370E0,-9.809700623E0,1.125859047E1
1.503022229E1,-2.994822235E0,-2.564018097E0,-1.035351974E1,1.107874181E1
1.504025429E1,-2.610720978E0,-2.163002014E0,-9.346114655E0,9.942047117E0
1.505028729E1,-2.732118530E0,-2.715952148E0,-7.108867035E0,8.085595727E0
1.506032029E1,-3.164569244E0,-3.414848785E0,-4.537663879E0,6.501237129E0
1.507035329E1,-3.512745209E0,-3.768712921E0,-2.483934631E0,5.719484875E0
1.508038629E1,-3.476670227E0,-3.890709229E0,-9.035211182E-1,5.295394658E0
1.509041929E1,-2.678679657E0,-3.584895172E0,2.148033142E-1,4.480283313E0
1.510045229E1,-7.967930603E-1,-3.106040955E0,6.608757019E-1,3.274007680E0
1.511048529E1,7.509883118E-1,-2.534080353E0,4.409829712E-1,2.679554564E0
1.512051829E1,1.787283325E0,-1.649420013E0,1.514849854E-1,2.436783898E0
1.513055029E1,2.715503082E0,-8.761280823E-1,-1.603166199E-1,2.857841637E0
1.514058329E1,3.070864105E0,-5.433700562E-1,-5.906716919E-1,3.174011723E0
1.515061629E1,2.978655853E0,-4.995112610E-1,-9.183403015E-1,3.156778596E0
1.516064929E1,2.799927521E0,-5.542973328E-1,-7.729925537E-1,2.957085921E0
1.517068229E1,2.409539337E0,-9.120533752E-1,-3.143463135E-2,2.576569291E0
1.518071529E1,2.044448547E0,-1.318009186E0,9.680369568E-1,2.618017117E0
1.519074829E1,1.645827484E0,-1.529818726E0,1.929786987E0,2.961953959E0
1.520078129E1,1.150507507E0,-1.643731842E0,2.946472778E0,3.564719305E0
1.521081329E1,6.599775696E-1,-1.768721924E0,3.921096039E0,4.351889450E0
1.522084629E1,9.321116638E-1,-1.909429321E0,4.571942596E0,5.041568366E0
1.523087929E1,2.147584076E0,-1.595382385E0,4.697681122E0,5.406067909E0
1.524091229E1,3.011287994E0,-1.120569763E0,4.260590057E0,5.336305802E0
1.525094529E1,3.371888123E0,-8.994795227E-1,3.701951752E0,5.087547513E0
1.526097829E1,3.186274109E0,-7.366181946E-1,3.048261108E0,4.470664922E0
1.527101129E1,3.106789398E0,-4.619393921E-1,2.686912537E0,4.133403845E0
1.528104429E1,3.288661194E0,-2.357597351E-1,2.764002228E0,4.302392755E0
1.529107629E1,3.476071472E0,-3.591032410E-1,3.347339172E0,4.839081271E0
1.530110929E1,3.936513977E0,-4.131408691E-1,3.857927399E0,5.527244475E0
1.531114229E1,4.348756714E0,-8.906478882E-2,3.669319611E0,5.690652326E0
1.532117529E1,4.218527527E0,1.062789917E-1,3.113675079E0,5.244258024E0
1.533120829E1,3.802392883E0,-1.347198486E-1,2.734214172E0,4.685324772E0
1.534124129E1,3.451522522E0,-6.373745728E-1,2.722688141E0,4.442103643E0
1.535127429E1,3.675007782E0,-1.448687439E0,3.002606049E0,4.961856565E0
1.536130729E1,4.233496399E0,-2.535277863E0,3.497476959E0,6.048344458E0
1.537134029E1,5.090015259E0,-3.620072021E0,3.459755402E0,7.140243988E0
1.538137229E1,5.772146759E0,-4.713697815E0,2.850971375E0,7.979013916E0
1.539140529E1,7.885152740E0,-6.124064941E0,1.935924225E0,1.016993647E1
1.540143829E1,1.264016464E1,-8.517288208E0,3.915856934E-1,1.524700954E1
1.541147129E1,1.945564178E1,-1.248553619E1,-1.340163116E0,2.315613630E1
1.542150429E1,2.797682190E1,-1.733350479E1,-1.157393188E0,3.293163389E1
1.543153729E1,3.616120239E1,-2.059417419E1,3.521876221E0,4.176309593E1
1.544157029E1,4.004128372E1,-1.968511459E1,9.334738312E0,4.558448725E1
1.545160329E1,4.291695374E1,-1.256487122E1,1.466964432E1,4.706314238E1
1.546163529E1,4.824242935E1,-4.228556671E0,2.374616959E1,5.393601071E1
1.547166829E1,5.242084030E1,1.406175842E0,3.165437439E1,6.125292847E1
1.548170129E1,5.066559036E1,4.603826294E0,3.082988892E1,5.948679949E1
1.549173429E1,4.177931946E1,4.786147156E0,2.660312851E1,4.976088007E1
1.550176729E1,3.014206924E1,2.968776398E0,2.360306717E1,3.839873372E1
1.551180029E1,2.060839462E1,-4.715194702E-2,2.273023224E1,3.068177977E1
1.552183329E1,1.656350601E1,-1.931283875E0,2.312331482E1,2.850907359E1
1.553186629E1,1.727782059E1,-1.654659119E0,2.339035950E1,2.912679005E1
1.554189929E1,1.951027817E1,3.832031250E-2,2.312600922E1,3.025664762E1
1.555193129E1,2.088786346E1,1.101858673E0,2.220467514E1,3.050515581E1
1.556196429E1,2.125684616E1,8.508306885E-1,1.974888199E1,2.902750009E1
1.557199729E1,2.099040024E1,4.644841003E-1,1.721779541E1,2.715262651E1
1.558203029E1,2.084116058E1,3.098556519E-1,1.592238922E1,2.622922918E1
1.559206329E1,2.217847961E1,4.959187317E-1,1.581161957E1,2.724221369E1
1.560209629E1,2.488799515E1,1.775906982E0,1.727183304E1,3.034604364E1
1.561212929E1,2.493963776E1,4.393813019E0,1.898891235E1,3.165232877E1
1.562216229E1,2.222054214E1,6.922953644E0,1.793704971E1,2.938396727E1
1.563219429E1,1.921030197E1,8.470585327E0,1.540072403E1,2.603783436E1
1.564222729E1,1.698158661E1,9.316925354E0,1.249092499E1,2.304783263E1
1.565226029E1,1.530821640E1,1.006806335E1,9.522298279E0,2.064900854E1
1.566229329E1,1.356045090E1,1.102232895E1,6.756200409E0,1.873562937E1
1.567232629E1,1.169547913E1,1.197360077E1,4.514162750E0,1.733577263E1
1.568235929E1,1.053329590E1,1.257385254E1,2.999761963E0,1.667485118E1
1.569239229E1,1.012075378E1,1.318383408E1,1.866169281E0,1.672500302E1
1.570242550E1,9.097332001E0,1.401041519E1,9.147477722E-1,1.672991174E1
1.571245750E1,6.976242828E0,1.537363037E1,2.342628479E-1,1.688405620E1
1.572249050E1,3.884721680E0,1.649015854E1,-8.848100281E-1,1.696464795E1
1.573252350E1,1.774559784E0,1.688997711E1,-2.219883728E0,1.712741291E1
1.574255650E1,1.379231873E0,1.718441483E1,-2.319127350E0,1.739496321E1
1.575258950E1,1.874551849E0,1.770158936E1,-1.064586182E0,1.783237376E1
1.576262250E1,2.352507935E0,1.784259613E1,2.234852600E-1,1.799840204E1
1.577265550E1,2.384391632E0,1.736643631E1,1.278042297E0,1.757588762E1
1.578268850E1,2.319127350E0,1.641232040E1,2.282303925E0,1.673175197E1
1.579272150E1,2.302362213E0,1.506497223E1,2.977757721E0,1.552808105E1
1.580275350E1,2.427951050E0,1.328667023E1,4.058360596E0,1.410322101E1
1.581278650E1,2.721340942E0,1.188214096E1,5.927074585E0,1.355437876E1
1.582281950E1,2.701731720E0,1.107367218E1,7.688910828E0,1.374936070E1
1.583285250E1,3.152294769E0,1.049407745E1,8.701854401E0,1.399231553E1
1.584288550E1,4.074077911E0,9.875863037E0,9.148824921E0,1.406526854E1
1.585291850E1,5.030588837E0,9.477391663E0,9.460626526E0,1.430493730E1
1.586295150E1,6.168821869E0,9.150920563E0,9.752220154E0,1.472750856E1
1.587298450E1,7.078031158E0,8.828940125E0,1.036429733E1,1.534494601E1
1.588301650E1,8.334518280E0,8.599317627E0,1.154070099E1,1.663130295E1
1.589304950E1,9.711654510E0,8.632099457E0,1.284419037E1,1.827026548E1
1.590308250E1,1.138891663E1,8.484506378E0,1.364263000E1,1.969303491E1
1.591311550E1,1.428748901E1,8.316705322E0,1.487501724E1,2.223884142E1
1.592314850E1,1.788465866E1,8.197852478E0,1.667442535E1,2.578957661E1
1.593318150E1,2.191936844E1,8.022117920E0,1.866363876E1,2.988552326E1
1.594321450E1,2.551683746E1,8.506959686E0,2.102108643E1,3.413741982E1
1.595324750E1,3.098915771E1,9.992171173E0,2.426274536E1,4.060606104E1
1.596328050E1,3.867761948E1,1.128263763E1,2.699950424E1,4.849978752E1
1.597331250E1,4.555416962E1,1.193004135E1,2.859937729E1,5.509476053E1
1.598334550E1,5.029151825E1,1.153561157E1,2.911894684E1,5.924711138E1
1.599337850E1,5.303875534E1,1.054407349E1,2.840687759E1,6.108385833E1
1.600341150E1,5.420004044E1,9.644294586E0,2.711386642E1,6.136626560E1
1.601344450E1,5.435436951E1,8.256380768E0,2.559602280E1,6.064422224E1
1.602347750E1,5.228312668E1,5.266647949E0,2.320100327E1,5.744170496E1
1.603351050E1,4.848567352E1,1.437610474E0,1.989617569E1,5.242885721E1
1.604354350E1,4.344086426E1,-1.800904999E0,1.699206482E1,4.668064067E1
1.605357550E1,3.707295639E1,-4.623285828E0,1.345656693E1,3.970967213E1
1.606360850E1,3.085758133E1,-7.118297424E0,9.175020447E0,3.297031216E1
1.607364150E1,2.488814484E1,-8.358019409E0,5.696404266E0,2.686494488E1
1.608367450E1,1.870330627E1,-8.584049377E0,3.216660919E0,2.082898165E1
1.609370750E1,1.255214767E1,-8.725505219E0,1.087638245E0,1.532559328E1
1.610374050E1,6.813980255E0,-8.491691437E0,-6.759942627E-1,1.090853421E1
1.611377350E1,2.424508209E0,-7.401658173E0,-1.942211151E0,8.027139460E0
1.612380650E1,2.674937439E-1,-6.093678131E0,-3.091221771E0,6.838137035E0
1.613383850E1,1.646575928E-3,-5.164859619E0,-3.715723114E0,6.362576197E0
1.614387150E1,2.161505127E-1,-4.294270020E0,-3.707939301E0,5.677701111E0
1.615390450E1,8.674461365E-1,-3.299738159E0,-3.533252563E0,4.911680812E0
1.616393750E1,2.299069061E0,-2.480641479E0,-3.427422638E0,4.815239001E0
1.617397050E1,3.846850433E0,-1.906285858E0,-3.636238403E0,5.626225534E0
1.618400350E1,4.722529449E0,-1.464404755E0,-4.244273987E0,6.516181962E0
1.619403650E1,4.771178284E0,-1.237027588E0,-4.849465485E0,6.914600130E0
1.620406950E1,4.128714294E0,-1.018931122E0,-5.192701721E0,6.711829372E0
1.621410150E1,2.743644562E0,-1.038091278E0,-5.254822540E0,6.018170728E0
1.622413450E1,8.231382751E-1,-1.585053864E0,-4.896168365E0,5.211757576E0
1.623416750E1,-8.286767578E-1,-2.192041626E0,-4.291875000E0,4.889983914E0
1.624420050E1,-1.966610413E0,-2.502496033E0,-3.859873352E0,5.002865699E0
1.625423350E1,-2.721640320E0,-2.806513824E0,-3.855682068E0,5.490913411E0
1.626426650E1,-3.290756836E0,-3.212769012E0,-4.347409515E0,6.328580787E0
1.627429950E1,-3.693569183E0,-3.384611664E0,-4.834047546E0,6.961757329E0
1.628433250E1,-3.827091522E0,-3.204985199E0,-5.153034210E0,7.174421316E0
1.629436450E1,-3.405119019E0,-2.895728302E0,-5.155429230E0,6.823381015E0
1.630439750E1,-2.510130157E0,-2.436483307E0,-4.790937195E0,5.932139877E0
1.631443050E1,-1.594783630E0,-1.702260132E0,-4.202959900E0,4.806859297E0
1.632446350E1,-9.247769165E-1,-7.619155884E-1,-3.350931702E0,3.558717603E0
1.633449650E1,-7.200027466E-1,3.891906738E-3,-2.517764282E0,2.618693583E0
1.634452950E1,-4.601431274E-1,5.507048035E-1,-1.780697021E0,1.919867016E0
1.635456250E1,-9.535171509E-2,9.621990967E-1,-1.000220032E0,1.391171867E0
1.636459550E1,2.145039368E-1,1.263821869E0,-2.209405518E-1,1.300796826E0
1.637462750E1,6.610253906E-1,1.551074524E0,2.430944824E-1,1.703491025E0
1.638466050E1,1.226998444E0,1.760938110E0,3.668870544E-1,2.177391632E0
1.639469350E1,1.479822693E0,1.724713440E0,1.904040527E-1,2.280518659E0
1.640472650E1,1.103505249E0,1.555265808E0,-1.781295776E-1,1.915282150E0
1.641475950E1,2.891986084E-1,1.359772339E0,-4.245172119E-1,1.453558224E0
1.642479250E1,-4.357438660E-1,1.113833771E0,-4.793032837E-1,1.288499136E0
1.643482550E1,-7.469467163E-1,8.681945801E-1,-4.025129700E-1,1.213963721E0
1.644485850E1,-8.114625549E-1,6.068380737E-1,-2.625540161E-1,1.046737091E0
1.645489050E1,-8.696914673E-1,3.613485718E-1,-1.514849854E-1,9.538782623E-1
1.646492350E1,-8.505313110E-1,2.977308655E-1,2.769241333E-2,9.015620051E-1
1.647495650E1,-7.210505676E-1,3.677851868E-1,3.607498169E-1,8.861829919E-1
1.648498950E1,-5.478607178E-1,3.486250305E-1,6.087840271E-1,8.901172786E-1
1.649502250E1,-6.738986206E-1,1.404080200E-1,7.409591675E-1,1.011372459E0
1.650505550E1,-7.810757446E-1,7.095245361E-2,9.746232605E-1,1.251001227E0
1.651508850E1,-6.741979980E-1,1.124162292E-1,1.322350159E0,1.488553087E0
1.652512150E1,-9.325607300E-2,1.718426514E-1,1.812131653E0,1.822648545E0
1.653515350E1,4.782554626E-1,2.044747925E-1,2.056423645E0,2.121182792E0
1.654518650E1,4.640350342E-1,1.067280579E-1,1.887275391E0,1.946414085E0
1.655521950E1,3.158432007E-1,1.830693054E-1,1.656305695E0,1.696060097E0
1.656525250E1,3.147953796E-1,3.776646423E-1,1.444795532E0,1.526158852E0
1.657528550E1,3.426374817E-1,3.541635132E-1,1.067280579E0,1.175550965E0
1.658531850E1,1.899549866E-1,7.694000244E-2,6.514453125E-1,6.829228771E-1
1.659535150E1,9.684860229E-2,-9.804611206E-2,4.396357727E-1,4.607301862E-1
1.660538450E1,3.040177917E-1,-2.127076721E-1,2.998265076E-1,4.770401515E-1
1.661541650E1,8.134085083E-1,-4.608915710E-1,6.586303711E-2,9.372258966E-1
1.662544950E1,1.083297272E0,-7.671546936E-1,-1.344204712E-1,1.334214438E0
1.663548250E1,1.209634552E0,-1.043929138E0,-6.450086975E-1,1.723090251E0
1.664551550E1,1.716181183E0,-2.000739441E0,-2.063758392E0,3.347735782E0
1.665554850E1,2.544857941E0,-3.865561523E0,-4.389472046E0,6.378583908E0
1.666558150E1,3.935466156E0,-5.451663208E0,-4.761149139E0,8.238753955E0
1.667561450E1,9.320966949E0,-4.929848328E0,-3.064128113E-1,1.054882544E1
1.668564750E1,2.033266800E1,-2.327360229E0,7.044351196E0,2.164386466E1
1.669567950E1,3.421330307E1,1.201701050E0,1.343022171E1,3.677451628E1
1.670571250E1,4.501933182E1,4.526886292E0,1.772613831E1,4.859474165E1
1.671574550E1,4.644302124E1,6.552923126E0,1.740790009E1,5.002929151E1
1.672577850E1,4.017690170E1,6.969207458E0,1.478954498E1,4.337607548E1
1.673581150E1,3.056089828E1,5.097050629E0,1.376702133E1,3.390397182E1
1.674584450E1,2.308798828E1,2.692301331E0,1.538246201E1,2.787335334E1
1.675587750E1,1.933963303E1,5.144801331E-1,1.813478851E1,2.651710108E1
