"Time (s)","Acceleration x (m/s^2)","Acceleration y (m/s^2)","Acceleration z (m/s^2)","Absolute acceleration (m/s^2)"
-1.256708336E-3,-3.485501862E0,4.928800507E0,6.004313965E0,8.514316405E0
8.776291666E-3,-3.403023376E0,4.723427582E0,6.320456543E0,8.592991745E0
1.880929167E-2,-3.157384186E0,4.840783539E0,7.160210266E0,9.201677631E0
2.884229166E-2,-2.886297913E0,4.899162140E0,8.028853912E0,9.838445022E0
3.887529167E-2,-2.547103271E0,4.755161591E0,8.658594360E0,1.020149759E1
4.890929167E-2,-2.399659882E0,4.440066833E0,9.101672974E0,1.040735374E1
5.894229166E-2,-2.220033417E0,4.185446320E0,9.307644653E0,1.044407766E1
6.897529167E-2,-1.947300568E0,3.962110748E0,9.294921112E0,1.029008550E1
7.900829166E-2,-1.930086365E0,3.933669891E0,9.092092896E0,1.009282643E1
8.904129167E-2,-1.860331421E0,4.008065186E0,8.999734955E0,1.002599864E1
9.907429167E-2,-1.694775696E0,4.027824097E0,8.940158844E0,9.950983457E0
1.091072917E-1,-1.463656311E0,4.045786743E0,8.666378174E0,9.675577028E0
1.191402917E-1,-1.301842804E0,4.148622894E0,8.503816223E0,9.550955814E0
1.291732917E-1,-1.199605408E0,4.174968109E0,8.569828949E0,9.607881143E0
1.392062917E-1,-9.716294861E-1,4.151317291E0,8.556506653E0,9.559879979E0
1.492402917E-1,-7.372169495E-1,4.118685150E0,8.579409027E0,9.545329510E0
1.592732917E-1,-9.005273438E-1,4.417912903E0,8.406518555E0,9.539311198E0
1.693062917E-1,-1.232536926E0,4.466711426E0,7.516469421E0,8.829947384E0
1.793392917E-1,-5.496569824E-1,3.751648407E0,7.008874969E0,7.968771355E0
1.893722917E-1,2.959346008E-1,3.556154938E0,7.528145142E0,8.331073430E0
1.994048750E-1,7.616162109E-1,3.423979797E0,8.281378784E0,8.993605032E0
2.094378750E-1,1.029109955E0,3.269051971E0,8.659043427E0,9.312615162E0
2.194708750E-1,9.842033386E-1,3.093616791E0,8.735234985E0,9.318983384E0
2.295038750E-1,7.485932922E-1,2.952460327E0,8.771908722E0,9.285676956E0
2.395368750E-1,6.125262451E-1,2.826572113E0,8.662486267E0,9.132544368E0
2.495708750E-1,3.589535522E-1,2.440375214E0,8.526568909E0,8.876184777E0
2.596038750E-1,4.086502075E-2,1.655706940E0,8.279881897E0,8.443901921E0
2.696368750E-1,8.903485107E-1,1.500779114E0,7.948770447E0,8.138059353E0
2.796698750E-1,1.230141907E0,8.837622070E-1,7.630831604E0,7.779709231E0
2.897028750E-1,8.283773804E-1,-3.002755737E-1,6.599326630E0,6.657889040E0
2.997358750E-1,2.016307068E0,8.140072632E-1,6.292614441E0,6.657709705E0
3.097688750E-1,2.996019745E0,1.728006592E0,6.246510315E0,7.140100294E0
3.198018750E-1,4.036356354E0,1.984573059E0,5.817502441E0,7.353505116E0
3.298348750E-1,5.355563049E0,1.716480560E0,5.491181030E0,7.860116424E0
3.398678750E-1,6.197113037E0,1.331181793E0,4.861590271E0,7.988198478E0
3.499018750E-1,5.785019989E0,6.222560120E-1,3.753594360E0,6.924097735E0
3.599348750E-1,4.360133057E0,-1.757345581E-1,3.111579437E0,5.359437424E0
3.699678750E-1,3.443439331E0,-4.260140991E-1,2.872825928E0,4.504652179E0
3.800008750E-1,3.493135986E0,-4.802014160E-1,3.158432007E0,4.733739025E0
3.900338750E-1,3.559298401E0,-6.578819275E-1,3.555556183E0,5.073794784E0
4.000668750E-1,3.354973297E0,-6.804849243E-1,3.968996429E0,5.241358432E0
4.100998750E-1,2.927312622E0,-7.691006470E-1,3.949087830E0,4.975537125E0
4.201328750E-1,2.806064758E0,-1.215771790E0,2.781964874E0,4.134178157E0
4.301658750E-1,2.756368103E0,-1.642384644E0,2.352807312E0,3.978780552E0
4.401988750E-1,3.003354492E0,-1.741777954E0,2.090253296E0,4.052540868E0
4.502328750E-1,3.491788788E0,-1.781295776E0,1.781146088E0,4.305587645E0
4.602658750E-1,4.295018463E0,-1.925895081E0,2.047741699E0,5.133176553E0
4.702988750E-1,4.996010742E0,-2.212848358E0,2.881657562E0,6.177440530E0
4.803318750E-1,5.239254913E0,-2.609074402E0,3.665427704E0,6.905969992E0
4.903648750E-1,5.307662659E0,-3.187621307E0,4.675227814E0,7.758219358E0
5.003978750E-1,5.298531647E0,-3.770808563E0,5.647156677E0,8.613002576E0
5.104308750E-1,5.618865509E0,-4.270469513E0,6.534212036E0,9.617925265E0
5.204638750E-1,6.382577362E0,-4.684358826E0,7.494614868E0,1.090182386E1
5.304968750E-1,7.690108337E0,-4.684059448E0,8.193960571E0,1.217452952E1
5.405308750E-1,9.423354034E0,-4.279301147E0,8.676257629E0,1.350516442E1
5.505638750E-1,1.109073669E1,-3.836671600E0,9.105564880E0,1.485381436E1
5.605968750E-1,1.256741592E1,-3.450624390E0,9.545649719E0,1.615444769E1
5.706298750E-1,1.370385269E1,-2.986439667E0,9.908644867E0,1.717252584E1
5.806628750E-1,1.430664917E1,-2.574795685E0,1.009590546E1,1.769850531E1
5.906958750E-1,1.509206589E1,-2.140698395E0,1.022179367E1,1.835314982E1
6.007288750E-1,1.606983261E1,-1.597328339E0,1.033495834E1,1.917295861E1
6.107618750E-1,1.685494995E1,-1.142274628E0,1.014380585E1,1.970509899E1
6.207948750E-1,1.773482025E1,-9.602531433E-1,1.019065842E1,2.047670517E1
6.308278750E-1,1.720387436E1,-6.159690857E-1,1.034558624E1,2.008441848E1
6.408608750E-1,1.670466248E1,1.844165039E-1,9.655371552E0,1.929523147E1
6.508948750E-1,1.730207016E1,5.478607178E-2,8.841663666E0,1.943037956E1
6.609278750E-1,1.684102890E1,-2.357597351E-1,7.519912262E0,1.844518684E1
6.709608750E-1,1.605695938E1,-6.631210327E-2,6.511758728E0,1.732724282E1
6.809938750E-1,1.528965500E1,1.583706665E-1,5.226681061E0,1.615910970E1
6.910268750E-1,1.455543182E1,2.305206299E-1,4.076173553E0,1.511717322E1
7.010598750E-1,1.425350967E1,2.691403198E-1,3.870800629E0,1.477220607E1
7.110928750E-1,1.366373611E1,3.929328918E-1,3.929927673E0,1.422309433E1
7.211258750E-1,1.282892212E1,4.490661621E-3,3.874243469E0,1.340115761E1
7.311588750E-1,1.187031555E1,-4.930746460E-1,3.304079132E0,1.233144164E1
7.411928750E-1,1.141122025E1,-7.291337585E-1,2.551743622E0,1.171575772E1
7.512258750E-1,1.133652557E1,-1.047821045E0,2.324366455E0,1.161969967E1
7.612588750E-1,1.160955780E1,-1.574425964E0,2.697839813E0,1.202243690E1
7.712918750E-1,1.397329239E1,-1.732946320E0,-4.360881500E0,1.474019303E1
7.813248750E-1,1.351329895E1,-4.047583008E-1,-6.459517365E0,1.498327209E1
7.913578750E-1,1.198931808E1,-2.970572662E0,-1.225800934E0,1.241251941E1
8.013908750E-1,1.181523010E1,-3.913012848E0,2.713856506E-1,1.244929645E1
8.114238750E-1,1.118159775E1,-4.152664490E0,8.068222046E-2,1.192808703E1
8.214568750E-1,1.055410263E1,-4.537065125E0,-9.689350891E-1,1.152878474E1
8.314908750E-1,9.839937744E0,-3.717818756E0,-1.142723694E0,1.058075463E1
8.415238750E-1,1.021296204E1,-2.017654266E0,-6.975494385E-1,1.043370009E1
8.515568750E-1,1.054063065E1,-1.679657135E0,1.005309448E0,1.072085769E1
8.615898750E-1,1.072968750E1,-1.686542816E0,2.419269104E0,1.112760008E1
8.716228750E-1,1.103205872E1,-1.574725342E0,3.470383301E0,1.167174536E1
8.816558750E-1,1.095721436E1,-2.019749908E0,4.061354370E0,1.185894327E1
8.916888750E-1,1.020353165E1,-2.493215332E0,3.592229919E0,1.110100430E1
9.017218750E-1,9.915081482E0,-2.734064484E0,3.357518005E0,1.081928263E1
9.117548750E-1,9.916877747E0,-2.456391907E0,3.369044037E0,1.075773132E1
9.217878750E-1,9.689201202E0,-1.793719940E0,2.450554047E0,1.015397786E1
9.318208750E-1,8.825796661E0,-1.497485962E0,1.328038330E0,9.049908106E0
9.418548750E-1,7.847131805E0,-1.648970947E0,5.542973328E-1,8.037650670E0
9.518878750E-1,8.232729950E0,-1.624871063E0,1.502874756E-1,8.392891917E0
9.619208750E-1,8.515192566E0,-1.603914642E0,6.146218872E-1,8.686702866E0
9.719538750E-1,8.411757660E0,-1.962269440E0,1.301244049E0,8.735067507E0
9.819868750E-1,7.791447601E0,-2.595003662E0,1.043330383E0,8.278238824E0
9.920198750E-1,7.713908844E0,-2.758613434E0,1.628613281E-1,8.193952742E0
1.002052875E0,8.750503235E0,-2.027982788E0,1.916015625E-1,8.984471727E0
1.012085875E0,9.151219940E0,-1.962868195E0,3.441343689E-1,9.365687717E0
1.022118875E0,9.135203247E0,-2.594853973E0,-6.825805664E-2,9.496834455E0
1.032151875E0,9.523046722E0,-3.106040955E0,3.203338623E-2,1.001683260E1
1.042185875E0,1.008887009E1,-3.451372833E0,7.873626709E-1,1.069192284E1
1.052218875E0,1.080662750E1,-3.198548584E0,5.774990845E-1,1.128483124E1
1.062251875E0,1.158725418E1,-2.558629303E0,-1.136137390E-1,1.186692679E1
1.072284875E0,1.198048645E1,-1.861977997E0,-6.429130554E-1,1.214134897E1
1.082317875E0,1.180370407E1,-1.350491638E0,-6.923103333E-1,1.190086346E1
1.092350875E0,1.191073151E1,-5.682183838E-1,-3.965254211E-1,1.193086877E1
1.102383875E0,1.329595093E1,8.517288208E-2,5.697152710E-1,1.330842369E1
1.112416875E0,1.630110168E1,2.399061127E0,5.151387634E0,1.726320379E1
1.122449875E0,1.487950790E1,2.706521759E0,-1.004111938E0,1.515695406E1
1.132483875E0,9.594298553E0,1.456471252E0,-1.576820984E0,9.831492138E0
1.142516875E0,8.447832642E0,-1.773062897E0,2.522554321E0,8.992936599E0
1.152549875E0,6.388415222E0,-3.186274109E0,4.914879456E0,8.667192845E0
1.162582875E0,1.645528107E0,-4.412374420E0,1.541494446E0,4.955099989E0
1.172615875E0,3.950285339E-1,-4.974305878E0,5.315446472E-1,5.018197507E0
1.182648875E0,2.162552948E0,-7.266489258E0,-5.932164001E-1,7.604630634E0
1.192681875E0,1.275946655E0,-4.885540466E0,-2.964136047E0,5.855138600E0
1.202715250E0,-2.300715637E0,-1.480421448E-1,-4.894372101E0,5.410183655E0
1.212748250E0,-1.632954254E0,-8.740324402E-1,-4.386178894E0,4.761201276E0
1.222781250E0,2.032922516E0,-3.741768951E0,-6.912325745E0,8.118734879E0
1.232815250E0,4.878056030E0,-5.599405975E0,-9.038204956E0,1.169777444E1
1.242848250E0,1.526091476E1,-4.811294861E0,2.733914795E0,1.623324884E1
1.252881250E0,2.025677582E1,-2.193538513E0,1.544233749E1,2.556588283E1
1.262914250E0,1.641606262E1,-1.742676086E0,1.041234741E1,1.951771018E1
1.272947250E0,1.277308823E1,-1.375040588E0,4.095782776E0,1.348398888E1
1.282980250E0,1.116348541E1,-1.481618958E0,2.446362762E0,1.152403107E1
1.293013250E0,9.966424713E0,-1.538350983E0,3.501368866E0,1.067500488E1
1.303046250E0,1.105241638E1,-9.397457886E-1,4.027973785E0,1.180100008E1
1.313079250E0,1.201730988E1,-4.924758911E-2,3.551065521E0,1.253109047E1
1.323112250E0,1.207089844E1,-1.149609375E0,2.077529755E0,1.230220796E1
1.333146250E0,1.222193436E1,-2.076032867E0,2.776276703E0,1.270406644E1
1.343179250E0,1.278311737E1,-1.919458466E0,2.898123322E0,1.324732159E1
1.353212250E0,1.152243896E1,-2.358495483E0,1.260678406E0,1.182871129E1
1.363245250E0,9.917775879E0,-3.301384735E0,2.531236267E-1,1.045588309E1
1.373278250E0,8.776698761E0,-3.481160889E0,7.473957825E-1,9.471405531E0
1.383311250E0,7.926616516E0,-3.241359558E0,1.424437866E0,8.681398759E0
1.393344250E0,7.289391632E0,-2.447709961E0,1.987267456E0,7.942024072E0
1.403377250E0,6.852899323E0,-1.927092590E0,1.423839111E0,7.259699222E0
1.413410250E0,8.300538940E0,-2.542612610E0,-1.697470093E-1,8.682893506E0
1.423443250E0,6.507118378E0,-3.689527588E0,-3.760180664E0,8.372225632E0
1.433477250E0,5.683680725E0,-6.938072205E0,-4.988675995E0,1.026294113E1
1.443510250E0,4.652475128E0,-8.552315369E0,-4.115242310E0,1.056990266E1
1.453543250E0,5.977070618E0,-9.557325439E0,-3.049757996E0,1.167770810E1
1.463576250E0,5.507197723E0,-1.170356232E1,-1.062490540E0,1.297811557E1
1.473609250E0,7.672594757E0,-1.422566757E1,1.322350159E0,1.621687202E1
1.483642250E0,1.044003983E1,-1.135927826E1,1.385818176E0,1.549025907E1
1.493675250E0,1.020787262E1,-7.265740814E0,2.594105530E-1,1.253231610E1
1.503708250E0,1.177915512E1,-5.552703094E0,-2.290237427E-1,1.302434102E1
1.513741250E0,1.142469223E1,-3.996838531E0,-9.912387085E-1,1.214417000E1
1.523774250E0,7.866591339E0,-2.715802460E0,-2.076931000E0,8.577440450E0
1.533808250E0,5.807323608E0,-4.315226440E0,-1.938917999E0,7.490366462E0
1.543841250E0,4.493056641E0,-6.948999481E0,-1.152303772E0,8.354876166E0
1.553874250E0,3.761827240E0,-9.340875549E0,3.487747192E-2,1.006998097E1
1.563907250E0,4.760999451E0,-1.052670959E1,1.857786713E0,1.170171364E1
1.573940250E0,6.145919495E0,-1.022793091E1,2.477198639E0,1.218685399E1
1.583973250E0,6.526727600E0,-8.821605377E0,1.713486786E0,1.110652653E1
1.594006250E0,5.811963959E0,-7.625442810E0,1.079555054E0,9.648406201E0
1.604039250E0,5.694907379E0,-6.555617523E0,8.083190918E-1,8.721322774E0
1.614072250E0,6.037844238E0,-5.782475281E0,4.947212219E-1,8.374803431E0
1.624105250E0,6.737639008E0,-5.050048370E0,-1.639091492E-1,8.421735816E0
1.634139250E0,7.705825653E0,-4.631219330E0,-7.427554321E-1,9.021065741E0
1.644172250E0,8.134384460E0,-4.821024628E0,-8.704399109E-1,9.495691373E0
1.654205250E0,7.800279236E0,-5.206173706E0,-4.071533203E-2,9.378179917E0
1.664238250E0,6.219117279E0,-5.456303558E0,1.097218323E0,8.345810704E0
1.674271250E0,5.418582001E0,-6.144871674E0,1.393452301E0,8.310366304E0
1.684304250E0,5.419779510E0,-6.569089508E0,3.107537842E-1,8.521943136E0
1.694337250E0,4.356540527E0,-6.444548492E0,-6.104306030E-1,7.802837699E0
1.704370250E0,3.968247986E0,-7.273524628E0,-6.131250000E-1,8.308253418E0
1.714403250E0,4.381987610E0,-7.812853088E0,3.484753418E-1,8.964592788E0
1.724436250E0,5.276527405E0,-7.983049164E0,7.162605286E-1,9.596032751E0
1.734470250E0,6.072572021E0,-8.192613373E0,8.755293274E-1,1.023531125E1
1.744503250E0,6.351741486E0,-8.420589294E0,1.044228516E0,1.059912058E1
1.754536250E0,6.131998444E0,-8.963809662E0,6.744973755E-1,1.088146292E1
1.764569250E0,5.985153809E0,-1.002794678E1,6.391708374E-2,1.167843603E1
1.774602250E0,6.156397705E0,-1.133577713E1,-9.774673462E-2,1.290002443E1
1.784635250E0,6.495592346E0,-1.260783188E1,7.391629028E-1,1.420198952E1
1.794668250E0,6.982380066E0,-1.151884644E1,1.693727875E0,1.357594080E1
1.804701250E0,5.433550873E0,-9.436826019E0,2.287543030E0,1.112699481E1
1.814734250E0,3.764072571E0,-7.860903168E0,2.100581818E0,8.965181811E0
1.824767250E0,3.717669067E0,-7.228618011E0,1.617087250E0,8.287879875E0
1.834801250E0,4.298610992E0,-7.395371246E0,8.937913513E-1,8.600490411E0
1.844834250E0,4.619992676E0,-7.725734253E0,5.797444153E-1,9.020388332E0
1.854867250E0,4.495900726E0,-8.304430847E0,2.924917603E-1,9.447869943E0
1.864900250E0,4.590653687E0,-9.009165344E0,2.673440552E-1,1.011487194E1
1.874933250E0,4.685706024E0,-9.490564270E0,5.519023132E-1,1.059864365E1
1.884966250E0,4.426744537E0,-9.659862213E0,2.832110596E-1,1.062963845E1
1.894999250E0,4.731660461E0,-9.250912628E0,2.028282166E-1,1.039274432E1
1.905032250E0,5.126988373E0,-8.474028168E0,1.063089294E0,9.961190793E0
1.915065250E0,5.217849426E0,-8.459508362E0,1.395847321E0,1.003681344E1
1.925098250E0,5.007087708E0,-8.733139343E0,1.167272644E0,1.013415885E1
1.935132250E0,4.771028595E0,-8.670270081E0,9.071136475E-1,9.937763948E0
1.945165250E0,4.712949371E0,-8.574768677E0,7.243437195E-1,9.811382342E0
1.955198250E0,4.799469452E0,-8.584348755E0,6.441105652E-1,9.856004717E0
1.965231250E0,4.853806458E0,-8.376880188E0,6.442602539E-1,9.702918637E0
1.975264250E0,4.882097626E0,-8.239166565E0,5.005590820E-1,9.590062685E0
1.985297250E0,4.882247314E0,-8.235124969E0,4.415817261E-1,9.583768388E0
1.995330250E0,4.727469177E0,-8.158035278E0,7.168592834E-1,9.456024093E0
2.005363250E0,4.458328857E0,-7.414531403E0,1.150657196E0,8.727885431E0
2.015396250E0,4.211791534E0,-6.370751953E0,1.328487396E0,7.751809282E0
2.025429250E0,3.787873077E0,-5.657934265E0,1.373244324E0,6.945934248E0
2.035462250E0,3.536246338E0,-5.616919556E0,7.726931763E-1,6.682206088E0
2.045496250E0,3.582500153E0,-5.785469055E0,8.457412720E-1,6.857203353E0
2.055529250E0,3.982019348E0,-6.492598572E0,5.493576050E-1,7.636236513E0
2.065562250E0,4.968168640E0,-6.136638794E0,-1.113684082E-1,7.896419331E0
2.075595250E0,6.095025330E0,-6.536307678E0,-5.189707947E-1,8.952205456E0
2.085628250E0,6.267915802E0,-7.761360168E0,-7.466473389E-1,1.000414726E1
2.095661250E0,5.369334412E0,-8.533304901E0,-7.463479614E-1,1.010960335E1
2.105694250E0,4.105213165E0,-9.148525543E0,-5.592370605E-1,1.004295976E1
2.115727250E0,3.054548035E0,-9.638606415E0,2.466870117E-1,1.011404231E1
2.125760250E0,3.405568085E0,-1.037477554E1,7.797285461E-1,1.094722970E1
2.135794250E0,3.325634308E0,-1.037297928E1,7.649093628E-1,1.091987312E1
2.145827250E0,3.846551056E0,-1.078447357E1,-2.083666992E-1,1.145182265E1
2.155860250E0,4.243375854E0,-1.106034988E1,-1.568438416E0,1.194979403E1
2.165893250E0,4.754712524E0,-1.046788193E1,-2.171683960E0,1.170042967E1
2.175926250E0,4.669689331E0,-8.438402252E0,-1.438807983E0,9.751040941E0
2.185959250E0,4.954097900E0,-8.432564392E0,-7.551795959E-1,9.809257080E0
2.195992250E0,6.196364594E0,-8.951235809E0,-1.397194519E0,1.097596051E1
2.206024917E0,6.673123169E0,-9.804760895E0,-1.628912659E0,1.197151893E1
2.216057917E0,6.752607880E0,-1.084824097E1,-1.642833710E0,1.288335934E1
2.226090917E0,5.973627777E0,-1.062116318E1,-9.542655945E-1,1.222309122E1
2.236123917E0,4.025129700E0,-9.171427917E0,-1.136436768E0,1.008009165E1
2.246157917E0,3.533701630E0,-8.180787964E0,-1.072669373E0,8.975687077E0
2.256190917E0,3.350482635E0,-7.254065094E0,-8.529263306E-1,8.035837082E0
2.266223917E0,1.961371307E0,-6.822213135E0,-1.129850464E0,7.187915660E0
2.276256917E0,3.799249420E0,-8.507708130E0,-2.818488922E0,9.734437507E0
2.286289917E0,4.810546417E0,-8.530909882E0,-1.862876129E0,9.969357437E0
2.296322917E0,4.845124512E0,-7.858208771E0,-2.936892700E-1,9.236499879E0
2.306355917E0,5.047204285E0,-8.380173340E0,-7.685018921E-1,9.812857456E0
2.316388917E0,4.530329132E0,-8.572223969E0,-8.316705322E-1,9.731319627E0
2.326421917E0,3.947141876E0,-8.685238953E0,-5.945635986E-1,9.558598774E0
2.336454917E0,3.273093567E0,-8.649163971E0,-7.223977661E-1,9.275938628E0
2.346488917E0,2.953358459E0,-8.574618988E0,-5.632786560E-1,9.086456946E0
2.356521917E0,2.871029663E0,-9.143136749E0,-5.349874878E-1,9.598227574E0
2.366554917E0,2.793490906E0,-9.594597931E0,-8.825646973E-1,1.003189022E1
2.376587917E0,2.868035889E0,-9.791288910E0,-1.087039490E0,1.026043972E1
2.386620917E0,3.440894623E0,-1.008123596E1,-1.142124939E0,1.071333392E1
2.396653917E0,3.776496735E0,-9.790390778E0,-7.872129822E-1,1.052299308E1
2.406686917E0,3.653302917E0,-9.598040771E0,-1.168619843E0,1.033608636E1
2.416719917E0,3.326532440E0,-9.104966125E0,-1.549577637E0,9.816690739E0
2.426752917E0,2.720742188E0,-8.776399384E0,-1.496887207E0,9.309580845E0
2.436785917E0,2.220632172E0,-8.644822998E0,-1.175056458E0,9.002495742E0
2.446819917E0,1.915716248E0,-8.349487152E0,-1.103654938E0,8.637242538E0
2.456852917E0,1.751657410E0,-8.666677551E0,-9.599537659E-1,8.893880744E0
2.466885917E0,1.856439514E0,-8.905281372E0,-2.538720703E-1,9.100266755E0
2.476918917E0,2.550546112E0,-9.606273651E0,3.293151855E-2,9.939158084E0
2.486951917E0,3.190315704E0,-9.953701172E0,-2.670446777E-1,1.045588801E1
2.496984917E0,3.283871155E0,-1.027433441E1,-6.574328613E-1,1.080638586E1
2.507017917E0,3.247796173E0,-1.010638367E1,-9.380992126E-1,1.065679131E1
2.517050917E0,2.425705719E0,-9.369915161E0,-1.416204987E0,9.781870727E0
2.527083917E0,1.617835693E0,-9.336684265E0,-1.918560333E0,9.668088702E0
2.537116917E0,1.233135681E0,-9.053173828E0,-1.438059540E0,9.249248359E0
2.547149917E0,1.372944946E0,-9.092392273E0,-6.776408386E-1,9.220399784E0
2.557183917E0,1.731299744E0,-9.052575073E0,-5.613327026E-1,9.233721279E0
2.567216917E0,1.321601715E0,-8.382119293E0,-8.187973022E-1,8.525079704E0
2.577249917E0,9.083111572E-1,-8.198151855E0,-7.735913086E-1,8.284513656E0
2.587282917E0,1.558409271E0,-8.831185455E0,-1.012195129E0,9.024578383E0
2.597315917E0,2.004182281E0,-9.410780182E0,-8.812174988E-1,9.662094728E0
2.607348917E0,2.544558563E0,-1.031160690E1,-6.611750793E-1,1.064148334E1
2.617381917E0,2.567460938E0,-1.079510147E1,-5.936654663E-1,1.111208847E1
2.627414917E0,1.857487335E0,-1.012704071E1,-7.691006470E-1,1.032466603E1
2.637447917E0,1.299148407E0,-9.645492096E0,-1.049617310E0,9.789024510E0
2.647480917E0,9.804611206E-1,-9.657018127E0,-1.428030396E0,9.811145394E0
2.657514917E0,4.481680298E-1,-1.013437546E1,-1.659149780E0,1.027906603E1
2.667547917E0,7.050338745E-2,-1.025816803E1,-1.614991608E0,1.038475710E1
2.677580917E0,7.890092468E-1,-1.011296997E1,-1.099313965E0,1.020309700E1
2.687613917E0,1.132844238E0,-9.940229187E0,-1.346599731E0,1.009479188E1
2.697646917E0,8.351133728E-1,-1.007809250E1,-1.557511139E0,1.023187196E1
2.707679917E0,6.918612671E-1,-9.597292328E0,-8.631051636E-1,9.660830325E0
2.717712917E0,5.430706787E-1,-1.003827530E1,-6.586303711E-1,1.007450697E1
2.727745917E0,3.180885315E-1,-1.004935226E1,-6.550378418E-1,1.007570026E1
2.737778917E0,6.039939880E-1,-1.004575974E1,-1.318757629E0,1.014993690E1
2.747811917E0,4.095483398E-1,-1.006746460E1,-2.388732605E0,1.035507686E1
2.757844917E0,3.806584167E-1,-9.809850311E0,-2.715952148E0,1.018599333E1
2.767878917E0,2.703378296E-1,-9.798773346E0,-2.331850891E0,1.007603941E1
2.777911917E0,3.614982605E-1,-9.729317780E0,-2.138153687E0,9.968049289E0
2.787944917E0,3.448828125E-1,-9.546847229E0,-1.673070831E0,9.698474219E0
2.797977917E0,-1.778302002E-1,-9.751322021E0,-1.333427124E0,9.843674753E0
2.808010917E0,-5.801934814E-1,-8.996890869E0,-1.165925446E0,9.090657398E0
2.818043917E0,-7.872129822E-1,-8.519832916E0,-1.517693939E0,8.689686536E0
2.828076917E0,-7.723937988E-1,-8.411458282E0,-1.690584412E0,8.614365808E0
2.838109917E0,-8.234376526E-1,-9.661957855E0,-2.292632446E0,9.964318476E0
2.848142917E0,-6.295907593E-1,-1.061203217E1,-2.321971436E0,1.088132173E1
2.858175917E0,1.496887207E-4,-1.041534119E1,-1.779349823E0,1.056623953E1
2.868209917E0,2.610571289E-1,-9.436826019E0,-1.067879333E0,9.500642211E0
2.878242917E0,-9.804611206E-2,-1.063538361E1,-1.307980042E0,1.071596049E1
2.888275917E0,-3.140469360E-1,-1.121288269E1,-2.270777893E0,1.144481524E1
2.898308917E0,-1.859133911E-1,-1.063029419E1,-2.329156494E0,1.088405661E1
2.908341917E0,-1.225950623E0,-1.067819458E1,-2.443368988E0,1.102256079E1
2.918374917E0,-2.061812439E0,-9.632469177E0,-1.951641541E0,1.004213312E1
2.928407917E0,-1.892215118E0,-9.669591980E0,-1.853894806E0,1.002588715E1
2.938440917E0,-1.018482056E0,-1.000848724E1,-1.894610138E0,1.023702448E1
2.948473917E0,4.490661621E-3,-1.095197525E1,-1.961371307E0,1.112621946E1
2.958506917E0,1.423988800E0,-1.105361389E1,-9.370513916E-1,1.118428315E1
2.968540917E0,1.252595215E0,-1.119536911E1,6.024971008E-1,1.128132470E1
2.978573917E0,-3.207829285E-1,-1.150851791E1,1.105750580E0,1.156596605E1
2.988606917E0,-1.647024994E0,-1.161120438E1,-4.954696655E-2,1.172754080E1
2.998639917E0,-2.066153412E0,-1.162692169E1,-8.910969543E-1,1.184264969E1
3.008672917E0,-2.202519836E0,-1.211161377E1,-9.157955933E-1,1.234426844E1
3.018705917E0,-1.891616364E0,-1.265692978E1,-1.141975250E0,1.284835364E1
3.028738917E0,-1.401834869E0,-1.285152512E1,-1.813927917E0,1.305439287E1
3.038771917E0,-8.213420105E-1,-1.271291336E1,-2.221081238E0,1.293158810E1
3.048804917E0,-5.011578369E-1,-1.194785431E1,-1.999841309E0,1.212442770E1
3.058837917E0,-8.777746582E-1,-1.013632141E1,-1.406475220E0,1.027101128E1
3.068870917E0,-1.935774536E0,-7.861501923E0,-1.042881317E0,8.163212418E0
3.078904917E0,-2.750380554E0,-5.144651642E0,-2.452949066E0,6.328427358E0
3.088937917E0,-3.002755737E0,-3.787274323E0,-4.638554077E0,6.698968035E0
3.098970917E0,-2.374212799E0,-4.351451111E0,-3.657494202E0,6.160298452E0
3.109003917E0,-6.885681152E-1,-6.654112701E0,-1.660047913E-1,6.691703780E0
3.119036917E0,-2.294728088E-1,-8.995244293E0,1.247056732E0,9.084174600E0
3.129069917E0,-8.949888611E-1,-1.000369720E1,5.122348022E-1,1.005670658E1
3.139102917E0,-1.157243500E0,-9.763147430E0,-5.649252319E-1,9.847710434E0
3.149135917E0,-1.058598633E0,-9.133107605E0,-1.201701050E0,9.272452265E0
3.159168917E0,-1.372046814E0,-9.168284454E0,-1.307381287E0,9.362115045E0
3.169201917E0,-1.276545410E0,-9.425749054E0,-1.233435059E0,9.591437612E0
3.179235917E0,-1.175355835E0,-9.761051788E0,-9.883946228E-1,9.881119232E0
3.189268917E0,-1.150507507E0,-1.046593597E1,-1.084195404E0,1.058465696E1
3.199301917E0,-1.194965057E0,-1.071067703E1,-8.942404175E-1,1.081416709E1
3.209334792E0,-1.345701599E0,-1.009366013E1,-1.193019104E0,1.025261831E1
3.219367792E0,-1.682650909E0,-1.002405487E1,-1.290616150E0,1.024591041E1
3.229400792E0,-1.878443756E0,-9.802216187E0,-8.616082764E-1,1.001770243E1
3.239433792E0,-2.253414001E0,-9.614207153E0,-4.400848389E-1,9.884560107E0
3.249466792E0,-2.394869843E0,-9.795480194E0,-4.125421143E-1,1.009242413E1
3.259499792E0,-2.144739990E0,-9.895921326E0,-5.575904846E-1,1.014100960E1
3.269532792E0,-1.978435822E0,-9.873917084E0,-8.358618164E-1,1.010480637E1
3.279565792E0,-1.896256714E0,-9.678573303E0,-9.765692139E-1,9.910815211E0
3.289599792E0,-1.819915466E0,-9.799671478E0,-8.258326721E-1,1.000138255E1
3.299632792E0,-1.824855194E0,-9.755513306E0,-5.966592407E-1,9.942642435E0
3.309665792E0,-1.933828583E0,-9.416767731E0,-6.351292419E-1,9.634240844E0
3.319698792E0,-1.620829468E0,-9.337732086E0,-5.131329346E-1,9.491239860E0
3.329731792E0,-1.425186310E0,-9.388027496E0,-6.459068298E-1,9.517531819E0
3.339764792E0,-1.306333466E0,-9.715546417E0,-7.237449646E-1,9.829656967E0
3.349797792E0,-1.311273193E0,-9.929900665E0,-7.432044983E-1,1.004364065E1
3.359830792E0,-1.474134521E0,-9.906100159E0,-7.054829407E-1,1.003999996E1
3.369863792E0,-1.525477753E0,-9.640851746E0,-7.310797119E-1,9.788134771E0
3.379896792E0,-1.435664520E0,-9.439520416E0,-7.152127075E-1,9.574821540E0
3.389930792E0,-1.166823578E0,-9.453591156E0,-6.491999817E-1,9.547424973E0
3.399963792E0,-1.049467621E0,-9.567504272E0,-6.732998657E-1,9.648411942E0
3.409996792E0,-1.121767273E0,-9.680070190E0,-7.803273010E-1,9.776043750E0
3.420029792E0,-1.058448944E0,-9.668394470E0,-7.264393616E-1,9.753249712E0
3.430062792E0,-9.749226379E-1,-9.636810150E0,-6.744973755E-1,9.709455738E0
3.440095792E0,-8.999285889E-1,-9.502539368E0,-6.204597473E-1,9.565202361E0
3.450128792E0,-1.604663086E0,-9.606872406E0,-3.463796997E-1,9.746123329E0
3.460161792E0,-2.225122833E0,-9.548643494E0,-6.324348450E-1,9.824853079E0
3.470194792E0,-2.174977112E0,-9.486073608E0,-9.981243896E-1,9.783269915E0
3.480227792E0,-2.106868744E0,-9.595496063E0,-9.334588623E-1,9.868322352E0
3.490260792E0,-2.011966095E0,-9.618847504E0,-5.397775269E-1,9.841828826E0
3.500294792E0,-1.578018494E0,-9.501491547E0,-4.321513367E-1,9.641329719E0
3.510327792E0,-1.359023895E0,-9.552385712E0,-5.966592407E-1,9.667006826E0
3.520360792E0,-1.440155182E0,-9.510921936E0,-8.178991699E-1,9.654047963E0
3.530393792E0,-1.506018219E0,-9.664203186E0,-9.779164124E-1,9.829610094E0
3.540426792E0,-1.530716858E0,-1.006252487E1,-9.922865295E-1,1.022654064E1
3.550459792E0,-1.565294952E0,-9.908046112E0,-6.876699829E-1,1.005447244E1
3.560492792E0,-1.729054413E0,-9.659712524E0,-5.511538696E-1,9.828705195E0
3.570525792E0,-1.908680878E0,-9.921218719E0,-5.008584595E-1,1.011555746E1
3.580558792E0,-2.064656525E0,-1.013572266E1,-4.251159668E-1,1.035260373E1
3.590591792E0,-2.126627655E0,-1.006177643E1,-5.051994324E-1,1.029646136E1
3.600625792E0,-2.570454712E0,-9.680519257E0,-5.146298218E-1,1.002918413E1
3.610658792E0,-2.334545288E0,-9.308542786E0,-4.828958130E-1,9.608967627E0
3.620691792E0,-1.586251373E0,-9.308393097E0,-8.961863708E-1,9.485015840E0
3.630724792E0,-1.341809692E0,-9.666149139E0,-1.093476105E0,9.819907455E0
3.640757792E0,-1.395997009E0,-9.763446808E0,-9.780661011E-1,9.911120750E0
3.650790792E0,-1.654659119E0,-9.671987000E0,-7.571255493E-1,9.841670001E0
3.660823792E0,-1.804347839E0,-9.559870148E0,-6.123765564E-1,9.747912259E0
3.670856792E0,-1.854792938E0,-9.415570221E0,-5.348377991E-1,9.611413575E0
3.680889792E0,-1.873054962E0,-9.370364227E0,-5.658233643E-1,9.572471819E0
3.690922792E0,-1.732646942E0,-8.892857208E0,-6.306385803E-1,9.081997565E0
3.700955792E0,-1.432970123E0,-7.562423859E0,-6.875202942E-1,7.727634965E0
3.710989792E0,-8.860075378E-1,-8.247698822E0,-7.027885437E-1,8.324869786E0
3.721022792E0,-1.355281677E0,-9.984537048E0,-6.418652344E-1,1.009652215E1
3.731055792E0,-1.642983398E0,-1.030621811E1,-1.022523651E0,1.048632828E1
3.741088792E0,-1.530716858E0,-1.015907410E1,-1.152752838E0,1.033821647E1
3.751121792E0,-1.589694214E0,-9.858648834E0,-1.125210114E0,1.004918814E1
3.761154792E0,-1.611099701E0,-9.635762329E0,-9.704319763E-1,9.817601343E0
3.771187792E0,-1.594484253E0,-9.266629944E0,-9.630972290E-1,9.452003323E0
3.781220792E0,-1.591789856E0,-9.223818970E0,-1.115480347E0,9.426395267E0
3.791253792E0,-1.475032654E0,-9.699380035E0,-1.050515442E0,9.866979127E0
3.801286792E0,-1.401385803E0,-9.989776154E0,-8.976832581E-1,1.012745501E1
3.811320792E0,-1.701362000E0,-1.021161484E1,-8.167016602E-1,1.038454197E1
3.821353792E0,-1.818119202E0,-1.025831772E1,-1.030756531E0,1.046905434E1
3.831386792E0,-1.637893982E0,-9.850865021E0,-1.184486847E0,1.005610498E1
3.841419792E0,-1.547781372E0,-9.169032898E0,-1.216220856E0,9.377952049E0
3.851452792E0,-1.582359467E0,-8.714428253E0,-1.221010895E0,8.940692863E0
3.861485792E0,-1.375489655E0,-8.353528748E0,-1.135688324E0,8.541850051E0
3.871518792E0,-1.266815643E0,-8.307574310E0,-1.210532684E0,8.490347589E0
3.881551792E0,-9.824070740E-1,-8.272397461E0,-1.293160858E0,8.430299426E0
3.891584792E0,-7.728428650E-1,-8.592881012E0,-1.437760162E0,8.746544716E0
3.901617792E0,-6.979985046E-1,-9.251361694E0,-1.434616699E0,9.387918842E0
3.911650792E0,-8.503816223E-1,-9.894125061E0,-1.330433350E0,1.001932695E1
3.921684792E0,-1.119821320E0,-1.019125717E1,-1.152603149E0,1.031718065E1
3.931717792E0,-2.066752167E0,-1.064631088E1,-1.280287628E0,1.092037254E1
3.941750792E0,-2.070644073E0,-1.028271698E1,-1.586550751E0,1.060843903E1
3.951783792E0,-2.089055786E0,-9.903106384E0,-1.816472626E0,1.028276436E1
3.961816792E0,-1.955084381E0,-9.474098511E0,-1.748214569E0,9.830419712E0
3.971849792E0,-2.249971161E0,-9.359736328E0,-1.727258148E0,9.780105064E0
3.981882792E0,-2.184257813E0,-9.623637543E0,-1.688788147E0,1.001186232E1
3.991915792E0,-2.118993530E0,-9.453142090E0,-1.547631683E0,9.810565365E0
4.001948792E0,-2.167492676E0,-9.128317566E0,-1.369801483E0,9.481590699E0
4.011981792E0,-2.235900421E0,-9.017697601E0,-1.389859772E0,9.394138114E0
4.022015792E0,-2.004331970E0,-8.861871643E0,-1.497036896E0,9.208215632E0
4.032048792E0,-2.437980194E0,-9.612410889E0,-1.776056671E0,1.007455050E1
4.042081792E0,-2.681523743E0,-9.865684204E0,-1.787133636E0,1.037863869E1
4.052114792E0,-2.578238525E0,-1.002255798E1,-1.923200684E0,1.052604785E1
4.062147792E0,-2.874023438E0,-9.778116302E0,-1.841620331E0,1.035679171E1
4.072180792E0,-3.106190643E0,-9.641899567E0,-1.832339630E0,1.029427589E1
4.082213792E0,-3.079995117E0,-9.553134155E0,-1.852248230E0,1.020683916E1
4.092246792E0,-2.480491791E0,-8.784632263E0,-1.851799164E0,9.314062683E0
4.102279792E0,-2.735860748E0,-8.973539429E0,-1.810784454E0,9.554490267E0
4.112312792E0,-3.131188660E0,-9.272916870E0,-1.686542816E0,9.931553573E0
4.122345792E0,-2.647394714E0,-9.036857758E0,-1.520538025E0,9.538633696E0
4.132379792E0,-2.311193848E0,-8.354726257E0,-1.037642212E0,8.730393416E0
4.142412792E0,-3.127296753E0,-9.087751923E0,-8.258326721E-1,9.646202340E0
4.152445792E0,-2.269730072E0,-7.884404297E0,1.797761536E-1,8.206572073E0
4.162478792E0,-1.366658020E0,-6.045029297E0,1.566941528E0,6.392608161E0
4.172511792E0,-1.980082397E0,-6.450685730E0,5.533992004E-1,6.770400532E0
4.182544792E0,-4.787045288E0,-1.062370789E1,-4.205354919E0,1.238805803E1
4.192577792E0,-5.197192383E0,-1.220172638E1,-5.717210999E0,1.444227949E1
4.202610917E0,-4.009711761E0,-1.292756699E1,-3.442241821E0,1.396598745E1
4.212643917E0,-1.232237549E0,-1.255918304E1,-1.308578796E0,1.268715360E1
4.222676917E0,6.834786987E-1,-1.243703705E1,-1.493294678E0,1.254499752E1
4.232709917E0,4.825964355E-1,-1.204619980E1,-2.198328552E0,1.225465125E1
4.242743917E0,-1.304686890E0,-9.700427856E0,-1.716630249E0,9.937169008E0
4.252776917E0,-2.242187347E0,-7.768545227E0,-1.364412689E0,8.199958599E0
4.262809917E0,-3.509751434E0,-8.277337189E0,-1.132245483E0,9.061713188E0
4.272842917E0,-3.408861237E0,-9.084309082E0,-1.335522766E0,9.794316081E0
4.282875917E0,-2.519710236E0,-9.465117188E0,-1.591041412E0,9.923144452E0
4.292908917E0,-1.975442047E0,-9.232949982E0,-1.687291260E0,9.591490418E0
4.302941917E0,-2.161355438E0,-8.620723114E0,-1.536554718E0,9.019386051E0
4.312974917E0,-2.440824280E0,-8.616681519E0,-1.389560394E0,9.062874911E0
4.323007917E0,-2.360142059E0,-8.626261597E0,-1.442699890E0,9.058920612E0
4.333040917E0,-2.229014740E0,-8.514593811E0,-1.553918610E0,8.937643846E0
4.343073917E0,-2.327210541E0,-8.657546539E0,-1.353186035E0,9.066428924E0
4.353107917E0,-2.158511353E0,-8.870852966E0,-1.077160034E0,9.193012420E0
4.363140917E0,-1.762135620E0,-7.654332733E0,-7.569758606E-1,7.890940628E0
4.373173917E0,-2.472857666E0,-1.067729645E1,-1.188528442E0,1.102416819E1
4.383206917E0,-1.864223328E0,-1.098131424E1,-1.325343933E0,1.121700172E1
4.393239917E0,-1.804946594E0,-1.089988358E1,-1.858834534E0,1.120359585E1
4.403272917E0,-1.683099976E0,-1.051742889E1,-1.980531464E0,1.083381931E1
4.413305917E0,-1.619182892E0,-9.747280426E0,-1.752555542E0,1.003507249E1
4.423338917E0,-1.724863129E0,-9.518256683E0,-1.691632233E0,9.820080586E0
4.433371917E0,-1.492845612E0,-9.103169861E0,-1.613494720E0,9.364809381E0
4.443404917E0,-1.601070557E0,-8.657097473E0,-1.086889801E0,8.870743657E0
4.453438917E0,-1.665436707E0,-8.403375092E0,-7.469467163E-1,8.599321005E0
4.463471917E0,-1.476080475E0,-8.373437347E0,-6.465055847E-1,8.527088369E0
4.473504917E0,-8.634045410E-1,-8.408464508E0,-1.144220581E0,8.529770426E0
4.483537917E0,-1.418749695E0,-9.136700134E0,-1.096020813E0,9.310929151E0
4.493570917E0,-1.597777405E0,-9.792037354E0,-9.659413147E-1,9.968446759E0
4.503603917E0,-4.897814941E-1,-8.544381866E0,-1.265917511E0,8.651525561E0
4.513636917E0,-4.565505981E-1,-8.736582184E0,-1.051114197E0,8.811421438E0
4.523669917E0,2.541714478E-1,-8.211025085E0,-1.412013702E0,8.335425530E0
4.533702917E0,3.484753418E-1,-8.253386993E0,-1.881587219E0,8.472319776E0
4.543735917E0,-1.648970947E0,-1.115001343E1,-8.875044250E-1,1.130617392E1
4.553768917E0,-6.262976074E-1,-1.040291702E1,-1.441801758E0,1.052101343E1
4.563802917E0,-1.156195679E0,-1.080542999E1,-1.407073975E0,1.095782656E1
4.573835917E0,-1.277293854E0,-1.102786743E1,-1.504970398E0,1.120313686E1
4.583868917E0,-1.211131439E0,-1.069106781E1,-1.536405029E0,1.086859286E1
4.593901917E0,-4.881349182E-1,-9.901459808E0,-1.926194458E0,1.009888148E1
4.603934917E0,-1.579066315E0,-1.077459412E1,-1.382824402E0,1.097713679E1
4.613967917E0,-1.182391205E0,-1.005354355E1,-1.331630859E0,1.021004543E1
4.624000917E0,-9.657916260E-1,-9.679621124E0,-1.461261292E0,9.836823834E0
4.634033917E0,-9.502239990E-1,-9.619296570E0,-1.656156006E0,9.806969199E0
4.644066917E0,-9.505233765E-1,-9.892179108E0,-1.523382111E0,1.005382491E1
4.654099917E0,-7.768844604E-1,-1.003408401E1,-1.289867706E0,1.014643534E1
4.664133917E0,-5.289999390E-1,-1.017778519E1,-1.333576813E0,1.027840354E1
4.674166917E0,-3.763174438E-1,-1.033615585E1,-1.265169067E0,1.042009527E1
4.684199917E0,-4.578977966E-1,-1.005698639E1,-1.348545685E0,1.015732352E1
4.694232917E0,-3.450325012E-1,-9.681866455E0,-1.436263275E0,9.793897982E0
4.704265917E0,-5.486091614E-1,-9.750573578E0,-1.612895966E0,9.898287251E0
4.714298917E0,-4.110452271E-1,-9.815837860E0,-1.631607056E0,9.959004602E0
4.724331917E0,-2.240840149E-1,-9.687255249E0,-1.522633667E0,9.808748197E0
4.734364917E0,-4.918771362E-1,-9.791438599E0,-1.290167084E0,9.888313509E0
4.744397917E0,-5.113366699E-1,-9.820478210E0,-1.212628326E0,9.908265485E0
4.754430917E0,-6.511459351E-1,-9.916877747E0,-1.107097778E0,9.999706034E0
4.764463917E0,-8.620573425E-1,-9.844428406E0,-9.794132996E-1,9.930516800E0
4.774497917E0,-1.060843964E0,-9.787397003E0,-1.012045441E0,9.896603760E0
4.784530917E0,-1.018631744E0,-9.573491821E0,-1.070723419E0,9.686888299E0
4.794563917E0,-1.059646454E0,-9.239685974E0,-9.927355957E-1,9.353083527E0
4.804596917E0,-1.121018829E0,-9.345066833E0,-9.458830261E-1,9.459474195E0
4.814629917E0,-9.903405762E-1,-9.608968048E0,-1.059496765E0,9.717796808E0
4.824662917E0,-8.075706482E-1,-9.785001984E0,-1.196461945E0,9.890902656E0
4.834695917E0,-8.110134888E-1,-1.015293686E1,-1.333427124E0,1.027219050E1
4.844728917E0,-9.810598755E-1,-1.051967422E1,-1.582359467E0,1.068315898E1
4.854761917E0,-1.330732727E0,-1.094823303E1,-1.929487610E0,1.119631987E1
4.864794917E0,-1.622026978E0,-1.156345367E1,-2.182162170E0,1.187881577E1
4.874827917E0,-1.845961304E0,-1.195354248E1,-2.318528595E0,1.231545069E1
4.884861917E0,-2.047741699E0,-1.226175156E1,-2.529889069E0,1.268637600E1
4.894894917E0,-2.207609253E0,-1.241742783E1,-2.574645996E0,1.287225133E1
4.904927917E0,-1.887724457E0,-1.188468567E1,-2.531385956E0,1.229703915E1
4.914960917E0,-1.345402222E0,-1.109358078E1,-2.474504242E0,1.144555865E1
4.924993917E0,-1.008602600E0,-1.018497025E1,-2.083367615E0,1.044467897E1
4.935026917E0,-1.059347076E0,-9.479786682E0,-1.545386353E0,9.663166704E0
4.945059917E0,-1.288221130E0,-8.882977753E0,-1.102158051E0,9.043315753E0
4.955092917E0,-1.135388947E0,-7.901169434E0,-8.756790161E-1,8.030217943E0
4.965125917E0,-6.885681152E-1,-6.460864563E0,-4.020639038E-1,6.509881131E0
4.975158917E0,-5.815406799E-1,-5.490731964E0,-1.270857239E-1,5.522904838E0
4.985191917E0,-2.061213684E-1,-5.607788544E0,-1.292861481E0,5.758582219E0
4.995225917E0,-5.065466309E-1,-7.394323425E0,-7.734416199E-1,7.451900452E0
5.005258917E0,-1.492246857E0,-9.313033447E0,-4.348457336E-1,9.441847461E0
5.015291917E0,-1.743424530E0,-9.776020660E0,-1.415905609E0,1.003069777E1
5.025324917E0,-1.891316986E0,-9.996512146E0,-2.062261505E0,1.038076382E1
5.035357917E0,-1.698218536E0,-1.028556107E1,-2.115999756E0,1.063739478E1
5.045390917E0,-1.403930511E0,-1.038929535E1,-2.147135010E0,1.070133952E1
5.055423917E0,-1.265169067E0,-1.037133270E1,-2.199675751E0,1.067725471E1
5.065456917E0,-1.226399689E0,-1.029184799E1,-2.201621704E0,1.059591098E1
5.075489917E0,-1.157692566E0,-1.019350250E1,-2.198627930E0,1.049198314E1
5.085522917E0,-1.114282837E0,-1.011641281E1,-2.094145203E0,1.039080741E1
5.095555917E0,-1.151106262E0,-1.006477020E1,-1.954036560E0,1.031711703E1
5.105589917E0,-1.247805176E0,-1.009096573E1,-1.964215393E0,1.035580751E1
5.115622917E0,-1.420396271E0,-1.012045441E1,-2.036964111E0,1.042066916E1
5.125655917E0,-1.583706665E0,-1.014395554E1,-2.145638123E0,1.048864737E1
5.135688917E0,-1.775308228E0,-9.921667786E0,-2.319726105E0,1.034274336E1
5.145721917E0,-2.046693878E0,-1.012494507E1,-2.346370697E0,1.059287137E1
5.155754917E0,-2.205214233E0,-1.014006363E1,-2.367476807E0,1.064372147E1
5.165787917E0,-2.295626221E0,-9.969268799E0,-2.517913971E0,1.053546918E1
5.175820917E0,-2.375260620E0,-9.916877747E0,-2.644700317E0,1.053474096E1
5.185853917E0,-2.279310150E0,-1.004111938E1,-2.732567596E0,1.065299296E1
5.195886917E0,-2.192041626E0,-1.019589752E1,-2.734663239E0,1.078145425E1
5.205921250E0,-2.091001740E0,-1.029184799E1,-2.786156158E0,1.086540793E1
5.215954250E0,-2.016756134E0,-1.045740372E1,-3.027005310E0,1.107191758E1
5.225987250E0,-1.779798889E0,-1.063762894E1,-3.161425781E0,1.123928140E1
5.236020250E0,-1.337917786E0,-1.082159637E1,-3.248544617E0,1.137761022E1
5.246053250E0,-9.596543884E-1,-1.090123077E1,-2.997217255E0,1.134641266E1
5.256086250E0,-6.580316162E-1,-1.083177521E1,-3.123554535E0,1.129234044E1
5.266119250E0,-2.008822632E-1,-1.069570816E1,-2.978506165E0,1.110450475E1
5.276152250E0,-1.092727661E-2,-1.035995636E1,-2.548600159E0,1.066884145E1
5.286185250E0,2.324665833E-1,-9.760003967E0,-2.257455597E0,1.002037045E1
5.296218250E0,6.316864014E-1,-9.100774841E0,-2.708318024E0,9.516202863E0
5.306252250E0,6.282435608E-1,-8.488547974E0,-3.453767853E0,9.185785163E0
5.316285250E0,5.248086548E-1,-8.001311188E0,-3.574117584E0,8.778993186E0
5.326318250E0,-9.131011963E-2,-7.614365845E0,-3.313359833E0,8.304532385E0
5.336351250E0,-9.544152832E-1,-7.274273071E0,-2.941982117E0,7.904506058E0
5.346384250E0,-1.204545135E0,-6.881190491E0,-2.576741638E0,7.445892090E0
5.356417250E0,-8.192463684E-1,-6.778054962E0,-2.108215942E0,7.145471863E0
5.366450250E0,-2.691403198E-1,-7.021748199E0,-1.707349548E0,7.231350273E0
5.376483250E0,1.061293030E-1,-7.279661865E0,-1.555864563E0,7.444827388E0
5.386516250E0,1.330732727E-1,-7.448660431E0,-1.634900208E0,7.627132449E0
5.396549250E0,5.957611084E-2,-7.544461212E0,-1.866169281E0,7.772067426E0
5.406582250E0,-6.002517700E-2,-7.535928955E0,-2.034718781E0,7.806017471E0
5.416615250E0,-1.913021851E-1,-7.377558289E0,-1.980531464E0,7.641169263E0
5.426649250E0,-2.950364685E-1,-7.215595093E0,-1.964514771E0,7.484061554E0
5.436682250E0,-3.876937866E-1,-7.165449371E0,-2.094893646E0,7.475463233E0
5.446715250E0,-5.855822754E-1,-7.098388824E0,-2.346670074E0,7.499126012E0
5.456748250E0,-7.222480774E-1,-7.118596802E0,-2.595003662E0,7.611183004E0
5.466781250E0,-9.369017029E-1,-7.174430695E0,-2.927462311E0,7.805144212E0
5.476814250E0,-1.225501556E0,-7.272027740E0,-3.235222321E0,8.053005960E0
5.486847250E0,-1.487007751E0,-7.404202881E0,-3.448977814E0,8.302340653E0
5.496880250E0,-1.635648651E0,-7.666607208E0,-3.480711823E0,8.577153805E0
5.506913250E0,-1.681453400E0,-7.930358734E0,-3.502416687E0,8.830900171E0
5.516946250E0,-1.515598297E0,-8.252039795E0,-3.664828949E0,9.155554063E0
5.526980250E0,-1.157243500E0,-8.785530396E0,-3.951183472E0,9.702402160E0
5.537013250E0,-8.352630615E-1,-9.654623108E0,-4.651427307E0,1.074919475E1
5.547046250E0,-5.231620789E-1,-1.084569626E1,-5.773344269E0,1.229773678E1
5.557079250E0,-1.236428833E-1,-1.261531631E1,-6.724466400E0,1.429615129E1
5.567112250E0,8.535250854E-1,-1.475466751E1,-6.705904999E0,1.622953728E1
5.577145250E0,1.829794922E0,-1.591819794E1,-5.986051941E0,1.710467751E1
5.587178250E0,7.571255493E-1,-1.534309387E1,-4.106260986E0,1.590110524E1
5.597211250E0,-9.349557495E-1,-1.328652054E1,-1.630409546E0,1.341879300E1
5.607244250E0,-1.850451965E0,-1.069136719E1,-4.120930481E-1,1.085814558E1
5.617277250E0,-2.892285461E0,-8.168962555E0,-8.159532166E-1,8.704196923E0
5.627310250E0,-3.694617004E0,-6.399641876E0,-8.093669128E-1,7.433753140E0
5.637344250E0,-3.292403412E0,-5.997877350E0,3.369493103E-1,6.850400555E0
5.647377250E0,-1.869612122E0,-6.435567169E0,5.490582275E-1,6.724093932E0
5.657410250E0,-3.625460815E-1,-7.358847198E0,-1.544787598E-1,7.369391796E0
5.667443250E0,7.170089722E-1,-8.461005249E0,-5.942642212E-1,8.512100895E0
5.677476250E0,1.057999878E0,-9.361382904E0,-4.965174866E-1,9.434054443E0
5.687509250E0,6.646179199E-1,-1.015608032E1,-3.962260437E-1,1.018551322E1
5.697542250E0,-4.595443726E-2,-1.093970078E1,-7.119195557E-1,1.096293730E1
5.707575250E0,-7.857160950E-1,-1.145956970E1,-1.329385529E0,1.156314635E1
5.717608250E0,-1.250050507E0,-1.150492538E1,-1.874851227E0,1.172352342E1
5.727641250E0,-1.177601166E0,-1.123907822E1,-2.024539948E0,1.148052201E1
5.737674250E0,-9.312135315E-1,-1.079150894E1,-1.988015900E0,1.101253972E1
5.747708250E0,-7.288343811E-1,-1.014724869E1,-1.877096558E0,1.034511223E1
5.757741250E0,-6.141728210E-1,-9.489815826E0,-1.643731842E0,9.650682206E0
5.767774250E0,-7.726931763E-1,-8.965156860E0,-1.529070282E0,9.127384521E0
5.777807250E0,-9.882449341E-1,-8.731792145E0,-1.347647552E0,8.890274238E0
5.787840250E0,-1.297501831E0,-8.783584442E0,-1.229393463E0,8.963608366E0
5.797873250E0,-1.556014252E0,-9.014105072E0,-1.166075134E0,9.221442502E0
5.807906250E0,-1.701362000E0,-9.391769714E0,-9.951306152E-1,9.596366811E0
5.817939250E0,-1.839225311E0,-9.827663269E0,-8.364605713E-1,1.003321391E1
5.827972250E0,-1.960772552E0,-1.016805542E1,-8.795709229E-1,1.039267170E1
5.838005250E0,-1.925296326E0,-1.034079620E1,-1.082249451E0,1.057402931E1
5.848038250E0,-1.724713440E0,-1.029918274E1,-1.509311371E0,1.055110527E1
5.858072250E0,-1.482816467E0,-1.012344818E1,-1.966909790E0,1.041881384E1
5.868105250E0,-1.292711792E0,-9.865534515E0,-2.471809845E0,1.025230311E1
5.878138250E0,-1.037342834E0,-9.560319214E0,-2.634970551E0,9.970900332E0
5.888171250E0,-7.232958984E-1,-9.229357452E0,-2.429897003E0,9.571237923E0
5.898204250E0,-4.288581848E-1,-9.006920013E0,-2.714155884E0,9.416749420E0
5.908237250E0,2.559677124E-2,-9.235345001E0,-3.231031036E0,9.784263592E0
5.918270250E0,4.514611816E-1,-9.550140381E0,-3.321592712E0,1.012136239E1
5.928303250E0,7.294331360E-1,-9.413773956E0,-3.120560760E0,9.944300491E0
5.938336250E0,4.209246826E-1,-8.780141602E0,-3.324436798E0,9.397869129E0
5.948369250E0,-1.939965820E-1,-8.110134888E0,-2.868185577E0,8.604557576E0
5.958402250E0,-1.796264648E-3,-7.572902069E0,-2.675536194E0,8.031646338E0
5.968436250E0,1.407672729E0,-7.209906921E0,-2.913391571E0,7.902667320E0
5.978469250E0,2.530188446E0,-6.937174072E0,-3.243904266E0,8.065305485E0
5.988502250E0,3.332819366E0,-6.521189117E0,-2.584525452E0,7.766167925E0
5.998535250E0,3.702251129E0,-5.729784851E0,-1.249302063E0,6.935261603E0
6.008568250E0,3.540138245E0,-4.755011902E0,-7.294331360E-1,5.972837657E0
6.018601250E0,2.780018921E0,-3.943998413E0,-1.946252747E0,5.203030697E0
6.028634250E0,2.081571350E0,-3.546425171E0,-3.315006409E0,5.281982418E0
6.038667250E0,1.297801208E0,-3.733386383E0,-4.539011078E0,6.018727725E0
6.048700250E0,8.446934509E-1,-4.674629059E0,-4.875960388E0,6.807396975E0
6.058733250E0,6.219566345E-1,-5.805078278E0,-4.721032562E0,7.508256277E0
6.068767250E0,5.742059326E-1,-6.693331146E0,-4.479285278E0,8.074304360E0
6.078800250E0,8.003855896E-1,-7.402855682E0,-4.353995819E0,8.625553254E0
6.088833250E0,1.687740326E0,-8.049361267E0,-4.451892242E0,9.352006670E0
6.098866250E0,3.395538940E0,-8.793912964E0,-5.125491486E0,1.073001644E1
6.108899250E0,4.356690216E0,-9.474697266E0,-6.152356110E0,1.210793639E1
6.118932250E0,4.260889435E0,-9.957742767E0,-5.841153259E0,1.230572595E1
6.128965250E0,2.379002838E0,-9.845326538E0,-6.359375610E0,1.195958893E1
6.138998250E0,1.071322174E0,-9.767039337E0,-7.573500824E0,1.240567222E1
6.149031250E0,1.101110229E0,-1.063029419E1,-7.843239899E0,1.325639508E1
6.159064250E0,5.195695496E-1,-1.180130905E1,-8.121660919E0,1.433534876E1
6.169097250E0,5.448669434E-2,-1.261067596E1,-8.596623230E0,1.526217704E1
6.179130250E0,7.503895569E-1,-1.305989182E1,-9.401499481E0,1.610937774E1
6.189164250E0,1.223106537E0,-1.338666229E1,-9.998308411E0,1.675305608E1
6.199197250E0,1.302291870E0,-1.380309631E1,-9.702224121E0,1.692201480E1
6.209230125E0,2.100282440E0,-1.457025101E1,-9.712402954E0,1.763616092E1
6.219263125E0,2.235750732E0,-1.554876617E1,-1.090272766E1,1.912151096E1
6.229296125E0,1.478176117E0,-1.697110840E1,-1.117575989E1,2.037403087E1
6.239329125E0,2.290237427E-1,-1.875988861E1,-9.880204010E0,2.120387474E1
6.249362125E0,-1.135987701E0,-2.087828339E1,-1.007854156E1,2.321142359E1
6.259395125E0,-1.817670135E0,-2.334964417E1,-1.025337799E1,2.556641484E1
6.269428125E0,-2.453547821E0,-2.551728653E1,-9.574240265E0,2.736453700E1
6.279461125E0,-2.839145966E0,-2.684996521E1,-8.638985138E0,2.834807658E1
6.289495125E0,-2.570604401E0,-2.693364120E1,-7.633675690E0,2.811231118E1
6.299528125E0,-2.024989014E0,-2.564182755E1,-6.882088623E0,2.662643506E1
6.309561125E0,-1.118174744E0,-2.373584106E1,-5.877228241E0,2.447820005E1
6.319594125E0,-1.496887207E-1,-2.163974991E1,-5.158423004E0,2.224658425E1
6.329627125E0,1.207987976E-1,-1.950593719E1,-5.224136353E0,2.019375594E1
6.339660125E0,-1.814227295E-1,-1.663655411E1,-5.147495728E0,1.741564122E1
6.349693125E0,-4.141886902E-1,-1.297352142E1,-5.840105438E0,1.423343395E1
6.359726125E0,-8.009843445E-1,-9.424401855E0,-7.176077271E0,1.187253180E1
6.369759125E0,-1.977388000E-1,-6.461613007E0,-6.890471191E0,9.448287491E0
6.379792125E0,1.574725342E0,-4.347858582E0,-5.758076019E0,7.385057453E0
6.389825125E0,3.395089874E0,-2.225571899E0,-5.535039825E0,6.864143894E0
6.399859125E0,4.079915771E0,-7.536827087E-1,-4.732408905E0,6.293603449E0
6.409892125E0,3.466042328E0,4.085005188E-1,-1.178948364E0,3.683780848E0
6.419925125E0,1.941911774E0,1.592987366E0,-3.942800903E-1,2.542456858E0
6.429958125E0,-6.242019653E-2,2.414329376E0,-1.124910736E0,2.664264773E0
6.439991125E0,-2.218536530E0,2.771486664E0,-1.452429657E0,3.835700010E0
6.450024125E0,-3.469185791E0,2.546504517E0,-2.892285461E0,5.185098890E0
6.460057125E0,-4.539011078E0,8.596623230E-1,-1.720821533E0,4.929793872E0
6.470090125E0,-3.958218842E0,1.574725342E-1,2.790048065E0,4.845272149E0
6.480123125E0,-3.041674805E0,2.292931824E0,6.381978607E0,7.432292574E0
6.490156125E0,-3.323388977E0,4.979245605E0,7.437882843E0,9.547769492E0
6.500189125E0,-4.286186829E0,6.640191650E0,6.565047913E0,1.027440494E1
6.510222125E0,-4.738546143E0,6.182593231E0,4.804708557E0,9.152240323E0
6.520256125E0,-1.992207184E0,2.895129547E0,3.826343079E0,5.195340789E0
6.530289125E0,8.436456299E-1,-1.191821594E0,1.897304535E0,2.394147272E0
6.540322125E0,1.679657135E0,-4.401746521E0,2.050735474E-1,4.715790038E0
6.550355125E0,7.135661316E-1,-6.189329224E0,-6.089337158E-1,6.260013828E0
6.560388125E0,-2.547702026E-1,-5.901926880E0,-1.573228455E-1,5.909517682E0
6.570421125E0,-3.305126953E-1,-3.622167664E0,8.252339172E-1,3.729657926E0
6.580454125E0,-1.618135071E-1,-1.121018829E0,1.133293304E0,1.602254830E0
6.590487125E0,-2.357597351E-1,8.032296753E-1,7.565267944E-1,1.128314386E0
6.600520125E0,-2.896476746E-1,2.093696136E0,3.345542908E-1,2.139949967E0
6.610553125E0,-2.287243652E-1,2.723586273E0,3.126997375E-1,2.751003117E0
6.620587125E0,-4.230203247E-1,2.844385071E0,2.796185303E-1,2.889231584E0
6.630620125E0,-8.021818542E-1,2.399510193E0,-2.270777893E-1,2.540218340E0
6.640653125E0,-8.785231018E-1,1.643731842E0,-8.783734131E-1,2.060387600E0
6.650686125E0,-7.295828247E-1,1.088087311E0,-1.608105927E0,2.074181710E0
6.660719125E0,-5.348377991E-1,5.818400574E-1,-2.483635254E0,2.606344835E0
6.670752125E0,-2.290237427E-1,-7.843688965E-2,-3.655697937E0,3.663704632E0
6.680785125E0,1.526824951E-1,-1.157093811E0,-4.729415131E0,4.871298134E0
6.690818125E0,4.986131287E-1,-2.345622253E0,-4.789440308E0,5.356239097E0
6.700851125E0,7.963439941E-2,-3.275039520E0,-4.149521027E0,5.286846910E0
6.710884125E0,-1.423988800E0,-4.170776825E0,-3.821702728E0,5.833398252E0
6.720917125E0,-2.748584290E0,-4.770878906E0,-3.593277740E0,6.574773460E0
6.730951125E0,-2.383643188E0,-4.630021820E0,-4.447700958E0,6.848423229E0
6.740984125E0,-1.332528992E0,-4.722080383E0,-6.630461884E0,8.248436303E0
6.751017125E0,-2.481838989E-1,-5.660928040E0,-4.929548950E0,7.510536224E0
6.761050125E0,3.170407104E-1,-7.029382324E0,2.050436096E0,7.329189509E0
6.771083125E0,-5.605543213E0,-7.238946533E0,-6.430028687E0,1.118792789E1
6.781116125E0,-3.611689453E0,-1.167122955E1,-8.077053680E0,1.464584228E1
6.791149125E0,-1.219214630E0,-2.170246948E1,-8.609047394E0,2.337946456E1
6.801182125E0,-1.215921478E0,-3.323014755E1,-1.082503922E1,3.497002496E1
6.811215125E0,3.606600037E0,-4.304029724E1,-8.578361206E0,4.403479342E1
6.821248125E0,1.159204422E1,-4.628719528E1,-1.426608353E1,4.980362512E1
6.831281125E0,1.781430496E1,-3.544868408E1,-8.665779419E0,4.060855079E1
6.841315125E0,7.558981018E0,-2.302871155E1,-6.625971222E0,2.512694260E1
6.851348125E0,-3.839216309E0,-1.423809174E1,-8.849148102E0,1.719797256E1
6.861381125E0,-3.542832642E0,-1.043285477E1,-4.310137024E0,1.183103558E1
6.871414125E0,-4.891528015E0,-7.949518890E0,-4.907095642E0,1.054521145E1
6.881447125E0,-4.108805695E0,-5.594466248E0,-5.533842316E0,8.877147493E0
6.891480125E0,-7.926017761E-1,-5.500461731E0,-8.960217133E0,1.054366103E1
6.901513125E0,1.217268677E0,-8.125552826E0,-1.048180298E1,1.331820354E1
6.911546125E0,-1.062789917E-1,-1.089898544E1,-7.037016449E0,1.297377275E1
6.921579125E0,-1.928290100E0,-1.315120193E1,-5.134921875E0,1.424920481E1
6.931612125E0,-1.278191986E0,-1.579739914E1,-6.349496155E0,1.707359645E1
6.941645125E0,2.455793152E0,-1.879746048E1,-7.058272247E0,2.022856020E1
6.951679125E0,5.608087921E0,-2.081227066E1,-6.909930725E0,2.263511438E1
6.961712125E0,5.658233643E0,-1.979917740E1,-6.068979492E0,2.146754634E1
6.971745125E0,3.059936829E0,-1.544233749E1,-5.282964020E0,1.660538194E1
6.981778125E0,8.909472656E-1,-1.127485382E1,-4.254602509E0,1.208378079E1
6.991811125E0,-1.057251434E0,-8.566535797E0,-3.386258240E0,9.272004154E0
7.001844125E0,-2.141746216E0,-6.915469208E0,-2.495161285E0,7.657455260E0
7.011877125E0,-2.598296814E0,-5.977519684E0,-2.120340729E0,6.854030399E0
7.021910125E0,-2.635120239E0,-5.638025665E0,-2.334844666E0,6.647006220E0
7.031943125E0,-2.070344696E0,-5.777385864E0,-2.274520111E0,6.545071147E0
7.041976125E0,-1.258882141E0,-6.167474670E0,-2.449655914E0,6.754505323E0
7.052009125E0,-5.396278381E-1,-6.852001190E0,-2.825524292E0,7.431332723E0
7.062043125E0,2.903961182E-2,-7.819439392E0,-3.050506439E0,8.393453714E0
7.072076125E0,4.909790039E-1,-8.790619812E0,-3.005450134E0,9.303160085E0
7.082109125E0,6.563850403E-1,-9.327104187E0,-3.024909668E0,9.827298323E0
7.092142125E0,6.542893982E-1,-9.435329132E0,-2.943029938E0,9.905299373E0
7.102175125E0,4.246669006E-1,-9.190887451E0,-2.744842072E0,9.601401570E0
7.112208125E0,1.079255676E-1,-8.637488251E0,-2.587369537E0,9.017335101E0
7.122241125E0,-4.935237122E-1,-8.031548309E0,-2.482437744E0,8.420916283E0
7.132274125E0,-1.198557587E0,-7.537425842E0,-2.544109497E0,8.044987368E0
7.142307125E0,-1.691781921E0,-7.225175171E0,-2.796784058E0,7.930150275E0
7.152340125E0,-1.981728973E0,-7.155719604E0,-2.998564453E0,8.007681410E0
7.162373125E0,-2.240540771E0,-7.092700653E0,-3.276386719E0,8.127800160E0
7.172407125E0,-2.598895569E0,-6.808591461E0,-3.860322418E0,8.247015523E0
7.182440125E0,-3.338956604E0,-6.435866547E0,-4.051474915E0,8.305628115E0
7.192473125E0,-3.547622681E0,-5.724994812E0,-3.416944427E0,7.552264661E0
7.202506125E0,-2.118544464E0,-4.589605865E0,-2.524799652E0,5.650427057E0
7.212538875E0,3.014730835E-1,-3.136876831E0,-2.287093964E0,3.893800338E0
7.222571875E0,2.373164978E0,-1.229692841E0,-3.371588745E0,4.302518700E0
7.232604875E0,3.456312561E0,7.185058594E-1,-4.282594299E0,5.550041542E0
7.242637875E0,3.421734467E0,2.077829132E0,-3.893703003E0,5.584493149E0
7.252670875E0,3.109184418E0,2.212698669E0,-3.300636292E0,5.045519108E0
7.262703875E0,3.322341156E0,4.900808716E-1,-4.667593689E0,5.750179203E0
7.272736875E0,3.777394867E0,-2.886896667E0,-5.945785675E0,7.612834665E0
7.282770875E0,3.496129761E0,-6.084397430E0,-7.107070770E0,9.987655898E0
7.292803875E0,2.456092529E0,-8.464148712E0,-8.794661407E0,1.245071376E1
7.302836875E0,1.122665405E0,-1.048599426E1,-1.041743683E1,1.482361101E1
7.312869875E0,-3.770658875E-1,-1.245320343E1,-1.105660767E1,1.665752165E1
7.322902875E0,-2.064506836E0,-1.458222610E1,-1.066771637E1,1.818525994E1
7.332935875E0,-4.149221649E0,-1.627146332E1,-1.013811768E1,1.961524888E1
7.342968875E0,-4.829407196E0,-1.731374588E1,-1.022074585E1,2.067734548E1
7.353001875E0,-3.230132904E0,-1.700179459E1,-1.065619034E1,2.032361115E1
7.363034875E0,-1.233285370E0,-1.479238907E1,-1.069301376E1,1.829416056E1
7.373067875E0,-4.146377563E-1,-1.250993546E1,-1.103400467E1,1.668591228E1
7.383100875E0,2.721340942E-1,-1.181777481E1,-1.157782379E1,1.654629452E1
7.393134875E0,6.424639893E-1,-1.244541962E1,-1.090242828E1,1.655790361E1
7.403167875E0,2.405497742E-1,-1.402253998E1,-1.120225479E1,1.794937336E1
7.413200875E0,-7.108717346E-1,-1.660931076E1,-1.188797882E1,2.043767558E1
7.423233875E0,-1.977388000E0,-2.000514908E1,-1.230111969E1,2.356763880E1
7.433266875E0,-2.808759155E0,-2.341969849E1,-1.158725418E1,2.627995176E1
7.443299875E0,-2.876717834E0,-2.522524384E1,-1.122800125E1,2.776069963E1
7.453332875E0,-2.322719879E0,-2.564691696E1,-1.096424973E1,2.798882186E1
7.463365875E0,-2.419867859E0,-2.507061539E1,-9.883946228E0,2.705704916E1
7.473398875E0,-2.355950775E0,-2.317495743E1,-7.467371521E0,2.446202758E1
7.483431875E0,-2.093995514E0,-2.140773239E1,-6.767576752E0,2.254941060E1
7.493464875E0,-1.914069672E0,-2.004586441E1,-6.412515106E0,2.113340230E1
7.503497875E0,-1.649719391E0,-1.907947403E1,-5.528902588E0,1.993280380E1
7.513531875E0,-1.416654053E0,-1.742795837E1,-5.174589386E0,1.823504914E1
7.523564875E0,-1.744322662E0,-1.464838852E1,-5.877377930E0,1.587959442E1
7.533597875E0,-2.386187897E0,-1.093386292E1,-7.598798218E0,1.352719429E1
7.543630875E0,-1.437311096E0,-7.027136993E0,-8.003107452E0,1.074691800E1
7.553663875E0,4.405339050E-1,-4.203259277E0,-6.502777405E0,7.755486616E0
7.563696875E0,1.871857452E0,-2.067201233E0,-3.974983978E0,4.855684183E0
7.573729875E0,1.699116669E0,1.987866211E-1,-3.083587646E0,3.526333272E0
7.583762875E0,1.925146637E0,2.192191315E0,-1.935475159E0,3.501136447E0
7.593795875E0,3.140319672E0,2.067201233E0,1.493144989E0,4.045294864E0
7.603828875E0,3.240012360E0,1.251098328E0,2.019600220E0,4.017674970E0
7.613861875E0,7.949967957E-1,7.542814636E-1,-2.995271301E-1,1.136079633E0
7.623895875E0,-2.459535370E0,-6.807843018E-1,-3.701053619E0,4.495617799E0
7.633928875E0,-4.121828613E0,-3.368894348E0,-5.516179047E0,7.665973619E0
7.643961875E0,-3.182382202E0,-4.748724976E0,-4.065845032E0,7.014915623E0
7.653994875E0,-1.529818726E0,-4.426744537E0,-1.846709747E0,5.034555534E0
7.664027875E0,-1.922152863E0,-3.015778656E0,-4.941224670E-1,3.610228461E0
7.674060875E0,-4.076921997E0,-1.427431641E0,2.809507599E0,5.152881428E0
7.684093875E0,-6.203699341E0,6.439608765E-1,4.794230347E0,7.866715689E0
7.694126875E0,-7.165599060E0,2.994822235E0,6.331982574E0,1.002041783E1
7.704159875E0,-5.824837189E0,5.175936584E0,8.644224243E0,1.163794056E1
7.714192875E0,-3.059038696E0,6.879992981E0,7.524103546E0,1.064444246E1
7.724225875E0,-9.939331055E-2,6.939120026E0,3.924389191E0,7.972584040E0
7.734259875E0,3.068618774E0,4.839735718E0,7.306306458E-1,5.776961497E0
7.744292875E0,4.659211121E0,1.460961914E0,-2.725083160E0,5.591845510E0
7.754325875E0,4.514013062E0,-1.901196442E0,-3.464695129E0,5.999581166E0
7.764358875E0,2.595452728E0,-3.854634247E0,-6.662644958E-1,4.694516846E0
7.774391875E0,3.682342529E-1,-4.329746246E0,2.150577850E0,4.848431098E0
7.784424875E0,-8.164022827E-1,-3.954626312E0,2.592159576E0,4.798424036E0
7.794457875E0,-1.116677856E0,-3.064427490E0,1.487007751E0,3.584533070E0
7.804490875E0,-7.776329041E-1,-1.786684570E0,5.688171387E-1,2.029903353E0
7.814523875E0,-5.243595886E-1,-4.305047607E-1,4.212240601E-1,7.985718728E-1
7.824556875E0,-7.041357422E-1,5.960604858E-1,4.358935547E-1,1.020342314E0
7.834589875E0,-1.055006104E0,1.142274628E0,6.379733276E-1,1.680725787E0
7.844622875E0,-1.563648376E0,1.267713776E0,7.988887024E-1,2.165714113E0
7.854656875E0,-2.025737457E0,1.034199371E0,7.743397522E-1,2.402661574E0
7.864689875E0,-2.045646057E0,6.033952332E-1,4.828958130E-1,2.186765183E0
7.874722875E0,-1.686991882E0,1.035845947E-1,-6.316864014E-2,1.691349064E0
7.884755875E0,-1.266366577E0,-3.712280273E-1,-6.779402161E-1,1.483609616E0
7.894788875E0,-9.879455566E-1,-8.315208435E-1,-1.460063782E0,1.949166382E0
7.904821875E0,-9.030720520E-1,-1.366508331E0,-2.559677124E0,3.038886495E0
7.914854875E0,-9.595046997E-1,-1.896256714E0,-3.761527863E0,4.320362329E0
7.924887875E0,-1.069076843E0,-2.529889069E0,-5.195994873E0,5.877212495E0
7.934920875E0,-1.122964783E0,-3.430715790E0,-7.333100739E0,8.173446469E0
7.944953875E0,-8.713380432E-1,-4.510719910E0,-1.156629776E1,1.244528296E1
7.954986875E0,-1.021026764E0,-5.887856140E0,-1.819526276E1,1.915142116E1
7.965020875E0,-3.046165466E-1,-8.351283417E0,-1.785891220E1,1.971744078E1
7.975053875E0,5.843847656E-1,-1.142933258E1,-2.659070435E0,1.174911930E1
7.985086875E0,-4.054169312E0,-1.407328445E1,-1.522334290E-1,1.464639202E1
7.995119875E0,-4.500690765E0,-1.732362534E1,-3.323089600E-2,1.789875181E1
8.005152875E0,-1.959125977E0,-2.368389908E1,-1.133592682E0,2.379181125E1
8.015185875E0,-1.066083069E0,-3.291175964E1,-3.119662628E1,4.536022429E1
8.025218875E0,1.112845825E1,-4.619917831E1,-3.541709976E1,5.926700275E1
8.035251875E0,3.061733093E1,-5.234734314E1,-3.761527863E0,6.076030266E1
8.045284875E0,2.566413116E0,-3.854409714E1,-1.576521606E0,3.866160008E1
8.055317875E0,-1.214215027E1,-1.911674652E1,-6.945257263E0,2.368793805E1
8.065350875E0,-8.554261322E0,-6.005212097E0,-3.394042053E0,1.098897086E1
8.075383875E0,-1.466036362E1,2.490371246E0,1.496887207E-4,1.487038030E1
8.085417875E0,-1.994766861E1,5.784720612E0,-6.439908142E0,2.174499695E1
8.095450875E0,-1.365685043E1,4.071533203E0,-9.242530060E0,1.698562063E1
8.105483875E0,-4.622537384E0,-6.182144165E-2,-9.492809601E0,1.055865085E1
8.115516875E0,-1.407073975E-2,-4.453688507E0,-1.448672470E1,1.515588110E1
8.125549875E0,4.969515839E0,-1.115824631E1,-1.891885803E1,2.251945243E1
8.135582875E0,1.047611481E1,-1.831157089E1,-1.322035812E1,2.489659573E1
8.145615875E0,1.013931519E1,-2.421514435E1,-9.363179169E0,2.787199405E1
8.155648875E0,4.818928986E0,-2.658411804E1,-1.111408813E1,2.921404395E1
8.165681875E0,1.694027252E0,-2.272574158E1,-1.047132477E1,2.507942784E1
8.175714875E0,6.240522766E-1,-1.491423569E1,-7.631580048E0,1.676498975E1
8.185747875E0,-1.316362610E0,-8.230933685E0,-6.012546844E0,1.027773318E1
8.195781875E0,-2.872975616E0,-3.778292999E0,-6.209986267E0,7.816227755E0
8.205814875E0,-3.888763275E0,-1.403780823E0,-6.100264435E0,7.369281280E0
8.215847875E0,-3.607947235E0,-1.293011169E0,-5.705834656E0,6.873551502E0
8.225880875E0,-2.531385956E0,-2.933449860E0,-5.237308960E0,6.514786879E0
8.235913875E0,-1.596430206E0,-5.192552032E0,-4.796176300E0,7.246688424E0
8.245946875E0,-1.385668488E0,-7.261549530E0,-4.543651428E0,8.677266104E0
8.255979875E0,-1.429527283E0,-8.727301483E0,-4.594994659E0,9.966108335E0
8.266012875E0,-1.160686340E0,-1.002570145E1,-5.177583160E0,1.134324687E1
8.276045875E0,-1.232237549E0,-1.099957626E1,-5.716612244E0,1.245747739E1
8.286078875E0,-1.678309937E0,-1.091230774E1,-5.839656372E0,1.248986673E1
8.296111875E0,-2.174977112E0,-1.003079086E1,-5.482349396E0,1.163629862E1
8.306144875E0,-2.623594208E0,-8.879834290E0,-4.830005951E0,1.044335488E1
8.316178875E0,-2.893482971E0,-7.619604950E0,-4.116290131E0,9.130962038E0
8.326211875E0,-2.959046631E0,-6.570736084E0,-3.432362366E0,7.981957220E0
8.336244875E0,-2.823578339E0,-5.941295013E0,-2.857108612E0,7.171795500E0
8.346277875E0,-2.453996887E0,-5.663023682E0,-2.521955566E0,6.667248144E0
8.356310875E0,-1.927092590E0,-5.527405701E0,-2.514022064E0,6.370730458E0
8.366343875E0,-1.458866272E0,-5.327421570E0,-2.705623627E0,6.150618716E0
8.376376875E0,-1.164727936E0,-5.035827942E0,-2.765499115E0,5.862093447E0
8.386409875E0,-1.030906219E0,-4.649331665E0,-2.787653046E0,5.518157488E0
8.396442875E0,-1.030157776E0,-4.185296631E0,-2.899021454E0,5.194444948E0
8.406475875E0,-9.466314697E-1,-3.697910156E0,-2.909499664E0,4.799566539E0
8.416508875E0,-8.509803772E-1,-3.244203644E0,-2.930905151E0,4.454125042E0
8.426542875E0,-8.443940735E-1,-3.054997101E0,-3.046464844E0,4.396243474E0
8.436575875E0,-9.184899902E-1,-2.857407990E0,-2.930755463E0,4.194965061E0
8.446608875E0,-8.331674194E-1,-2.492017822E0,-2.690954132E0,3.761057686E0
8.456641875E0,-1.027014313E0,-2.191742249E0,-3.059038696E0,3.900796102E0
8.466674875E0,-1.467099152E0,-2.333198090E0,-4.154909821E0,4.985927082E0
8.476707875E0,-1.329684906E0,-2.950514374E0,-5.093009033E0,6.034263669E0
8.486740875E0,-3.712280273E-1,-4.086951141E0,-5.258115692E0,6.669989544E0
8.496773875E0,6.721023560E-1,-5.699398041E0,-5.999224548E0,8.302141578E0
8.506806875E0,9.364526367E-1,-7.443271637E0,-7.210805054E0,1.040552477E1
8.516839875E0,9.873468018E-1,-8.974138184E0,-6.866071930E0,1.134252854E1
8.526872875E0,6.710545349E-1,-1.007509872E1,-6.713988190E0,1.212582228E1
8.536906875E0,-2.649490356E-2,-1.075648178E1,-8.516390076E0,1.371974862E1
8.546939875E0,-1.407373352E0,-1.080138840E1,-1.038196060E1,1.504778379E1
8.556972875E0,-2.589165802E0,-1.063673080E1,-1.026041336E1,1.500399627E1
8.567005875E0,-2.524949341E0,-1.038330780E1,-1.018721558E1,1.476373297E1
8.577038875E0,-6.421646118E-1,-1.007150620E1,-1.023272095E1,1.437206284E1
8.587071875E0,1.929487610E0,-9.705517273E0,-9.336534576E0,1.360481039E1
8.597104875E0,3.266507263E0,-9.219178619E0,-8.801397400E0,1.315780834E1
8.607137875E0,2.944975891E0,-8.900042267E0,-9.182504883E0,1.312257716E1
8.617170875E0,2.339784393E0,-9.554331665E0,-1.104118973E1,1.478741746E1
8.627203875E0,1.698218536E0,-1.071905960E1,-1.132829269E1,1.568796992E1
8.637236875E0,-2.668949890E-1,-1.103789658E1,-1.007914032E1,1.494976466E1
8.647269875E0,-2.045945435E0,-1.073283096E1,-9.489965515E0,1.447200742E1
8.657303875E0,-2.925516357E0,-1.030367340E1,-1.031759445E1,1.487202363E1
8.667336875E0,-3.069067841E0,-9.874066772E0,-1.088701035E1,1.501477160E1
8.677369875E0,-2.643203430E0,-9.331295471E0,-1.151480484E1,1.505491050E1
8.687402875E0,-1.946851501E0,-9.412576447E0,-1.360416000E1,1.665713047E1
8.697435875E0,-9.707313538E-1,-1.013392639E1,-1.346420105E1,1.687967693E1
8.707468875E0,-8.378077698E-1,-1.106723557E1,-1.486124588E1,1.854837605E1
8.717501875E0,-1.027164001E0,-1.255424332E1,-1.515553391E1,1.970670696E1
8.727534875E0,-1.687590637E0,-1.450798050E1,-1.481723740E1,2.080576806E1
8.737567875E0,-2.868934021E0,-1.715926712E1,-1.461904953E1,2.272416862E1
8.747600875E0,-3.931574249E0,-1.968870712E1,-1.248418900E1,2.364228075E1
8.757633875E0,-3.838767242E0,-2.169229065E1,-1.126991409E1,2.474474836E1
8.767667875E0,-2.705773315E0,-2.248369492E1,-9.822274475E0,2.468430315E1
8.777700875E0,-1.298399963E0,-2.200978043E1,-7.970924377E0,2.344465637E1
8.787733875E0,-3.770658875E-1,-2.084744751E1,-6.512058105E0,2.184411012E1
8.797766875E0,4.695735168E-1,-1.952389984E1,-5.036576385E0,2.016854645E1
8.807799875E0,6.123765564E-1,-1.820858505E1,-3.935466156E0,1.863908443E1
8.817832875E0,2.345622253E-1,-1.657997177E1,-3.366499329E0,1.691992320E1
8.827865875E0,-1.219963074E-1,-1.439361832E1,-3.265309753E0,1.475985702E1
8.837898875E0,-7.420069885E-1,-1.210966782E1,-4.486320648E0,1.293528902E1
8.847931875E0,-1.085392914E0,-9.033564606E0,-5.887257385E0,1.083711986E1
8.857964875E0,-1.171763306E0,-5.387596436E0,-6.728058929E0,8.698620670E0
8.867997875E0,-1.220711517E0,-2.690804443E0,-6.036497040E0,6.720852749E0
8.878030875E0,-9.006770325E-1,-1.099014587E0,-4.443060608E0,4.664744339E0
8.888064875E0,6.511459351E-2,1.621128845E-1,-4.805906067E0,4.809080330E0
8.898097875E0,5.453160095E-1,9.102571106E-1,-5.153932343E0,5.262029661E0
8.908130875E0,1.032403107E0,3.956272888E-1,-3.667822723E0,3.830835504E0
8.918163875E0,7.717950439E-1,-1.321302338E0,-3.250191193E0,3.592387820E0
8.928196875E0,-6.638694763E-1,-3.477418671E0,-4.775668945E0,5.944760480E0
8.938229875E0,-1.865869904E0,-5.339097290E0,-3.486699371E0,6.644132966E0
8.948262875E0,-1.922152863E0,-5.510341187E0,-1.604064331E0,6.052400680E0
8.958295875E0,-1.965412903E0,-4.134701843E0,1.764830017E-1,4.581457570E0
8.968328875E0,-3.503015442E0,-1.799557800E0,2.525398407E0,4.678371787E0
8.978361875E0,-6.091732178E0,1.423090668E0,4.208947449E0,7.539869137E0
8.988394875E0,-7.295528870E0,4.790039062E0,6.691534882E0,1.099753858E1
8.998428875E0,-4.803660736E0,7.145840149E0,1.138951538E1,1.427792872E1
9.008461875E0,-1.108894043E0,8.217162323E0,1.025203079E1,1.318542900E1
9.018494875E0,1.717678070E0,8.272098083E0,5.295537872E0,9.970995237E0
9.028527875E0,4.177812195E0,6.581663361E0,-1.033001862E0,7.863809520E0
9.038560875E0,5.186265106E0,2.367476807E0,-5.055886230E0,7.619991979E0
9.048593875E0,4.608616333E0,-2.624791718E0,-4.968168640E0,7.267157333E0
9.058626875E0,2.902314606E0,-5.719905396E0,-2.529140625E0,6.894729879E0
9.068659875E0,7.705975342E-1,-6.165977783E0,1.845661926E-1,6.216684588E0
9.078692875E0,-9.550140381E-2,-5.193450165E0,1.085093536E0,5.306455796E0
9.088725875E0,-1.264869690E-1,-3.565136261E0,6.990463257E-1,3.635225066E0
9.098758875E0,-8.008346558E-2,-1.652862854E0,4.430786133E-2,1.655394866E0
9.108792875E0,-1.531315613E-1,3.742218018E-2,-4.132905579E-1,4.423333357E-1
9.118825875E0,-3.156935120E-1,1.287023621E0,-4.788542175E-1,1.409039941E0
9.128858875E0,-5.935157776E-1,2.027084656E0,-4.426295471E-1,2.158067213E0
9.138891875E0,-9.514215088E-1,2.236349487E0,-3.465293884E-1,2.454902143E0
9.148924875E0,-1.295256500E0,1.836530914E0,-2.435435486E-1,2.260497437E0
9.158957875E0,-1.290017395E0,1.008602600E0,-3.776646423E-1,1.680492388E0
9.168990875E0,-9.910890198E-1,1.368154907E-1,-7.960446167E-1,1.278539384E0
9.179023875E0,-7.189549255E-1,-6.219566345E-1,-1.286125488E0,1.599326424E0
9.189056875E0,-6.551875305E-1,-1.276844788E0,-1.782193909E0,2.288191085E0
9.199089875E0,-7.691006470E-1,-1.878294067E0,-2.338586884E0,3.096529189E0
9.209122667E0,-8.183482361E-1,-2.484683075E0,-2.719544678E0,3.773495339E0
9.219156667E0,-9.312135315E-1,-3.062780914E0,-3.199895782E0,4.526269832E0
9.229189667E0,-1.122216339E0,-3.255729675E0,-3.766317902E0,5.103361222E0
9.239222667E0,-1.063538361E0,-3.180885315E0,-4.402345276E0,5.534418593E0
9.249255667E0,-1.331930237E0,-3.447480927E0,-6.296656036E0,7.301167039E0
9.259288667E0,-2.898422699E0,-4.519401855E0,-1.017524048E1,1.150484098E1
9.269321667E0,-5.083878021E0,-6.291267242E0,-1.383273468E1,1.602405716E1
9.279354667E0,-9.109157410E0,-7.725434875E0,-1.140957367E1,1.651779235E1
9.289387667E0,-1.450827988E1,-1.107322311E1,-8.259973297E0,2.003331261E1
9.299420667E0,-9.724228363E0,-1.920566162E1,-4.409979401E0,2.197421156E1
9.309453667E0,1.254990234E0,-2.816887253E1,-6.713539124E0,2.898503040E1
9.319486667E0,6.769223328E0,-3.746603897E1,-3.526815948E0,3.823564948E1
9.329519667E0,1.172362061E0,-4.399860443E1,-2.300850357E1,4.966530843E1
9.339553667E0,1.523666519E1,-4.641817291E1,-2.761921555E1,5.612150934E1
9.349586667E0,1.331106949E1,-3.877162399E1,-5.567073212E0,4.136926035E1
9.359619667E0,-4.909041595E0,-2.279923874E1,-6.503076782E0,2.421144325E1
9.369652667E0,-7.363038483E0,-1.121228394E1,-6.827901306E0,1.505157410E1
9.379685667E0,-9.662706299E0,-4.253854065E0,-8.378227386E0,1.347805110E1
9.389718667E0,-1.338815918E1,-1.932780762E0,-9.527537384E0,1.654546513E1
9.399751667E0,-8.341553650E0,-3.406765594E0,-1.208466980E1,1.507404436E1
9.409784667E0,-3.256478119E0,-6.091133423E0,-8.945996704E0,1.130209773E1
9.419817667E0,-2.632276154E0,-7.016958160E0,-7.234755249E0,1.041672996E1
9.429850667E0,-1.152004395E0,-8.234376526E0,-9.227411499E0,1.242083708E1
9.439883667E0,7.929011536E-1,-1.120988892E1,-1.012868729E1,1.512880061E1
9.449916667E0,1.816322937E0,-1.419423294E1,-8.973090363E0,1.689057810E1
9.459950667E0,2.323767700E0,-1.548005905E1,-7.653284912E0,1.742426166E1
9.469983667E0,2.684966583E0,-1.475721222E1,-6.979386292E0,1.654376593E1
9.480016667E0,2.610421600E0,-1.238808884E1,-6.571334839E0,1.426399269E1
9.490049667E0,2.708916779E0,-9.064849548E0,-5.918542328E0,1.115969851E1
9.500082667E0,2.601140900E0,-5.786816254E0,-5.322781219E0,8.281616765E0
9.510115667E0,1.720073090E0,-3.130440216E0,-4.655917969E0,5.868209225E0
9.520148667E0,6.527925110E-1,-1.388961639E0,-4.068389740E0,4.348234995E0
9.530181667E0,-1.517843628E-1,-8.776249695E-1,-3.618874512E0,3.726864206E0
9.540214667E0,-8.074209595E-1,-1.768871613E0,-3.419040070E0,3.933277308E0
9.550247667E0,-1.172212372E0,-3.583098907E0,-3.570674744E0,5.192532884E0
9.560280667E0,-1.322050781E0,-5.511538696E0,-3.980821838E0,6.926169185E0
9.570314667E0,-1.403631134E0,-7.173682251E0,-4.598886566E0,8.636067105E0
9.580347667E0,-1.241518250E0,-8.369994507E0,-5.119653625E0,9.889844734E0
9.590380667E0,-9.183403015E-1,-8.938063202E0,-5.430108032E0,1.049849494E1
9.600413667E0,-5.870791626E-1,-8.897048492E0,-5.571114807E0,1.051377449E1
9.610446667E0,-3.423381042E-1,-8.608298950E0,-5.706583099E0,1.033368748E1
9.620479667E0,-2.260299683E-1,-8.275690613E0,-5.893843689E0,1.016245729E1
9.630512667E0,-2.547702026E-1,-7.889643402E0,-5.744005280E0,9.762426825E0
9.640545667E0,-4.899311829E-1,-7.490124207E0,-5.314698029E0,9.197173932E0
9.650578667E0,-8.047265625E-1,-6.675218811E0,-4.757706299E0,8.236619467E0
9.660611667E0,-1.266965332E0,-5.589077454E0,-4.102219391E0,7.047779215E0
9.670644667E0,-1.789678345E0,-4.464466095E0,-3.908522186E0,6.197656958E0
9.680678667E0,-2.068548431E0,-3.614982605E0,-4.350403290E0,6.022707085E0
9.690711667E0,-2.215991821E0,-3.106639709E0,-4.324956207E0,5.767761804E0
9.700744667E0,-2.515668640E0,-2.552492065E0,-4.403692474E0,5.677703044E0
9.710777667E0,-2.621648254E0,-2.002685394E0,-4.644541626E0,5.696977732E0
9.720810667E0,-1.933379517E0,-2.074835358E0,-5.078788605E0,5.816957264E0
9.730843667E0,-3.517684937E-2,-3.293151855E0,-5.962401123E0,6.811483958E0
9.740876667E0,1.933678894E0,-5.427862701E0,-6.815776520E0,8.924999560E0
9.750909667E0,1.891766052E0,-7.254364471E0,-7.023694153E0,1.027311356E1
9.760942667E0,9.493258667E-1,-8.340954895E0,-7.360643463E0,1.116475796E1
9.770975667E0,7.679031372E-1,-9.247918854E0,-9.155860291E0,1.303623627E1
9.781008667E0,3.788621521E-1,-1.010608429E1,-1.098370926E1,1.493045027E1
9.791041667E0,-6.369255066E-1,-1.068358337E1,-9.520502014E0,1.432426565E1
9.801075667E0,-1.545985107E0,-1.072384964E1,-7.145241394E0,1.297865539E1
9.811108667E0,-2.595153351E0,-1.106843307E1,-8.473429413E0,1.417899988E1
9.821141667E0,-2.566113739E0,-1.221938965E1,-1.057386154E1,1.636169218E1
9.831174667E0,-3.047512665E0,-1.295705566E1,-9.818532257E0,1.654013907E1
9.841207667E0,-4.129163361E0,-1.281799484E1,-8.269553375E0,1.580305334E1
9.851240667E0,-4.131259003E0,-1.306932220E1,-1.036115387E1,1.718219990E1
9.861273667E0,-2.749332733E0,-1.424198364E1,-1.233285370E1,1.903922816E1
9.871306667E0,-1.616039429E0,-1.580772766E1,-1.352317841E1,2.086557431E1
9.881339667E0,-1.471440125E0,-1.746523087E1,-1.447819244E1,2.273362007E1
9.891372667E0,-1.106199646E0,-1.927332092E1,-1.453118225E1,2.416277788E1
9.901405667E0,-1.397643585E0,-2.105671234E1,-1.375429779E1,2.518966554E1
9.911438667E0,-2.157762909E0,-2.282633240E1,-1.166778671E1,2.572614698E1
9.921472667E0,-3.301983490E0,-2.417113586E1,-9.657167816E0,2.623752645E1
9.931505667E0,-4.883594513E0,-2.476480133E1,-8.494834900E0,2.663281998E1
9.941538667E0,-5.868995361E0,-2.395348846E1,-6.978787537E0,2.563041536E1
9.951571667E0,-6.438411255E0,-2.144680115E1,-5.039270782E0,2.295240007E1
9.961604667E0,-6.808441772E0,-1.864253265E1,-4.596940613E0,2.037230390E1
9.971637667E0,-6.759044495E0,-1.621877289E1,-5.166655884E0,1.831468289E1
9.981670667E0,-5.802234192E0,-1.436652466E1,-5.049599304E0,1.629605491E1
9.991703667E0,-4.200415192E0,-1.256082962E1,-4.061054993E0,1.385316196E1
1.000173667E1,-2.322570190E0,-1.076606186E1,-3.927981720E0,1.169322285E1
1.001176967E1,-5.433700562E-2,-8.672964478E0,-5.112318878E0,1.006772415E1
1.002180267E1,1.905836792E0,-6.386918335E0,-6.441255341E0,9.269018829E0
1.003183667E1,3.444936218E0,-3.541934509E0,-6.111341400E0,7.858840839E0
1.004186967E1,3.984713745E0,-3.646417236E-1,-5.170847168E0,6.538238880E0
1.005190267E1,5.533692627E0,1.605561218E0,-3.536994781E0,6.760910663E0
1.006193567E1,7.361990662E0,6.042933655E-1,1.544787598E-1,7.388365222E0
1.007196867E1,7.589517517E0,-1.650168457E0,-6.887178040E-1,7.797317763E0
1.008200167E1,5.568121033E0,-3.005899200E0,-3.911216583E0,7.438885468E0
1.009203467E1,2.841540985E0,-5.045557709E0,-7.288792877E0,9.309055235E0
1.010206767E1,-1.622625732E-1,-7.198081512E0,-8.044870605E0,1.079623312E1
1.011210067E1,-2.176923065E0,-7.461383972E0,-4.809797974E0,9.140317355E0
1.012213367E1,-3.422931976E0,-5.975274353E0,-1.801354065E0,7.117952190E0
1.013216667E1,-5.101092224E0,-3.461551666E0,-1.721120911E0,6.400448344E0
1.014220067E1,-7.953410797E0,-2.125579834E-2,3.843108215E0,8.833270961E0
1.015223367E1,-8.774902496E0,3.247945862E0,8.106841736E0,1.238018373E1
1.016226667E1,-6.796915741E0,6.181695099E0,9.570348358E0,1.326661168E1
1.017229967E1,-4.410428467E0,8.671467590E0,9.848769379E0,1.384357207E1
1.018233267E1,-1.720821533E0,9.720785522E0,7.083270264E0,1.215021051E1
1.019236567E1,7.045848083E-1,8.646619263E0,3.680695953E0,9.423798975E0
1.020239867E1,2.110910339E0,5.201832733E0,-3.466790771E-1,5.624517102E0
1.021243212E1,2.532882843E0,1.091230774E0,-3.046015778E0,4.109074375E0
1.022246512E1,1.370250549E0,-2.481988678E0,-3.551364899E0,4.544232279E0
1.023249812E1,-5.104385376E-2,-4.623435516E0,-2.537822571E0,5.274400900E0
1.024253112E1,-2.868035889E-1,-5.563480682E0,-6.312373352E-1,5.606517116E0
1.025256412E1,4.064048767E-1,-5.364993439E0,4.231700134E-1,5.396979932E0
1.026259812E1,7.505392456E-1,-4.099075928E0,5.486091614E-1,4.203177921E0
1.027263112E1,8.183482361E-1,-2.568059692E0,1.606159973E-1,2.700078132E0
1.028266412E1,7.152127075E-1,-9.886940002E-1,-2.390528870E-1,1.243459419E0
1.029269712E1,3.194357300E-1,3.336561584E-1,-4.201762390E-1,6.244306923E-1
1.030273012E1,-1.402583313E-1,1.158740387E0,-4.186793518E-1,1.240017775E0
1.031276312E1,-6.378236389E-1,1.550326080E0,-2.712359619E-1,1.698204610E0
1.032279612E1,-1.165626068E0,1.609902191E0,-2.326162720E-1,2.001144554E0
1.033282912E1,-1.408421173E0,1.324595490E0,-3.218307495E-1,1.960045521E0
1.034286212E1,-1.349892883E0,8.599617004E-1,-3.421884155E-1,1.636715563E0
1.035289512E1,-1.311123505E0,2.817141724E-1,-5.477110291E-1,1.448583822E0
1.036292812E1,-1.524729309E0,-4.049079895E-1,-6.306385803E-1,1.698957023E0
1.037296212E1,-1.775906982E0,-1.203347626E0,-9.837542725E-1,2.360013472E0
1.038299512E1,-1.969753876E0,-2.025138702E0,-1.372495880E0,3.140837792E0
1.039302812E1,-2.048190765E0,-2.769391022E0,-2.013762360E0,3.989968782E0
1.040306112E1,-1.980082397E0,-3.486699371E0,-3.460653534E0,5.296595292E0
1.041309412E1,-2.319726105E0,-4.302652588E0,-6.771318970E0,8.351329779E0
1.042312712E1,-3.829037476E0,-5.575904846E0,-1.206550964E1,1.383216418E1
1.043316012E1,-6.092929688E0,-7.826025696E0,-1.459824280E1,1.764877228E1
1.044319313E1,-9.077872467E0,-1.014709900E1,-1.003647903E1,1.691455876E1
1.045322612E1,-8.748108215E0,-1.319431229E1,5.199886780E0,1.666307584E1
1.046325912E1,-6.117927704E0,-1.576461731E1,7.704927521E0,1.858273678E1
1.047329212E1,-4.823419647E0,-2.157747940E1,-6.586902466E0,2.307033330E1
1.048332512E1,8.542735291E-1,-3.249667282E1,-3.193069977E1,4.556679839E1
1.049335912E1,4.158202972E0,-4.611146072E1,-4.139970886E1,6.210872206E1
1.050339212E1,2.233011429E1,-5.211742126E1,2.570155334E0,5.675795364E1
1.051342512E1,5.152884521E0,-4.319552444E1,-4.177812195E-1,4.350379400E1
1.052345812E1,-1.629960480E0,-2.678455124E1,-1.097457825E1,2.899155608E1
1.053349112E1,-4.248465271E0,-1.109747269E1,-2.133363647E0,1.207288688E1
1.054352412E1,-1.521780441E1,-1.137035522E0,-4.446952515E0,1.589496170E1
1.055355713E1,-2.050974976E1,3.260669403E0,-1.070274353E1,2.336301605E1
1.056359012E1,-1.248598526E1,3.507506104E0,-7.680528259E0,1.507292080E1
1.057362312E1,-3.167263641E0,2.090852051E0,-8.511899414E0,9.319638024E0
1.058365612E1,2.453398132E0,-1.492546234E0,-1.381342484E1,1.410877608E1
1.059368912E1,4.901257782E0,-7.563321991E0,-1.530432449E1,1.776087035E1
1.060372312E1,7.417974243E0,-1.431578018E1,-1.267893402E1,2.051153997E1
1.061375612E1,9.141490173E0,-2.054672287E1,-1.274674301E1,2.584983792E1
1.062378912E1,8.988657990E0,-2.449356537E1,-1.187061493E1,2.866430211E1
1.063382212E1,4.633165283E0,-2.195933533E1,-1.018212616E1,2.464455968E1
1.064385512E1,6.339317322E-1,-1.453372696E1,-8.337961121E0,1.676760819E1
1.065388812E1,-9.237290955E-1,-8.505762177E0,-6.896159363E0,1.098900722E1
1.066392113E1,-1.952689362E0,-4.937632141E0,-6.066883850E0,8.062275520E0
1.067395412E1,-2.723436584E0,-3.255430298E0,-5.287454681E0,6.780273613E0
1.068398712E1,-3.229833527E0,-3.177741852E0,-4.652624817E0,6.494365679E0
1.069402012E1,-3.268303528E0,-4.051624603E0,-4.249962158E0,6.720092873E0
1.070405312E1,-3.035986633E0,-5.311853943E0,-4.237987061E0,7.442683755E0
1.071408712E1,-2.636617126E0,-6.773713989E0,-4.391717377E0,8.492475057E0
1.072412012E1,-2.217937775E0,-8.026009827E0,-4.654271393E0,9.539304163E0
1.073415312E1,-1.787882080E0,-8.820707245E0,-5.082381134E0,1.033595649E1
1.074418612E1,-1.406924286E0,-9.255852356E0,-5.476361847E0,1.084623335E1
1.075421912E1,-1.072819061E0,-9.461524658E0,-5.569019165E0,1.103110892E1
1.076425212E1,-8.548722839E-1,-9.349258118E0,-5.298831024E0,1.078040093E1
1.077428512E1,-1.037791901E0,-9.014105072E0,-5.297334137E0,1.050680024E1
1.078431812E1,-1.590143280E0,-8.846004639E0,-5.480702820E0,1.052703458E1
1.079435112E1,-2.401456146E0,-8.987161102E0,-5.253625031E0,1.068347473E1
1.080438413E1,-3.396736450E0,-9.493258667E0,-4.873565369E0,1.119872395E1
1.081441712E1,-4.199367371E0,-1.028017227E1,-4.277055817E0,1.189999305E1
1.082445012E1,-4.730762329E0,-1.088446564E1,-2.843037872E0,1.220387515E1
1.083448413E1,-4.599784698E0,-1.091515182E1,-1.228495331E0,1.190830632E1
1.084451712E1,-3.982767792E0,-1.009306137E1,-1.627116394E-1,1.085167278E1
1.085455012E1,-3.000360718E0,-8.087382202E0,-1.068777466E-1,8.626664371E0
1.086458312E1,-1.424288177E0,-4.746180267E0,-8.470884705E-1,5.027164491E0
1.087461612E1,2.266287231E-1,7.174580383E-1,-2.628084869E0,2.733667261E0
1.088464912E1,8.728349304E-1,6.474037170E0,-4.510570221E0,7.938528945E0
1.089468212E1,-1.764830017E-1,1.012913635E1,-4.400998077E0,1.104533085E1
1.090471512E1,-2.032473450E0,1.079135925E1,-2.427951050E0,1.124630291E1
1.091474813E1,-2.614163818E0,9.594148865E0,1.301842804E0,1.002877558E1
1.092478112E1,-2.859054565E-1,8.137827301E0,3.758085022E0,8.968231606E0
1.093481412E1,2.734363861E0,6.395450592E0,3.054398346E0,7.596570493E0
1.094484813E1,2.959346008E0,4.158053284E0,1.712738342E0,5.383364054E0
1.095488112E1,9.029223633E-1,1.796114960E0,-1.347198486E0,2.419967253E0
1.096491412E1,-1.940414886E0,-1.411414948E0,-9.114695892E0,9.425231206E0
1.097494712E1,-1.757944336E0,-7.274722137E0,-2.066871918E1,2.198199042E1
1.098498012E1,5.184468842E0,-1.758977188E1,-2.957804214E1,3.480142769E1
1.099501312E1,1.885928192E0,-2.536819656E1,-1.659449158E1,3.037234388E1
1.100504612E1,-1.407088943E1,-2.577969086E1,-1.122246277E1,3.144083429E1
1.101507912E1,-1.831995346E1,-3.006213547E1,-1.895912430E1,3.998501066E1
1.102511213E1,-3.809128876E0,-2.745006729E1,-1.314132248E1,3.067099629E1
1.103514512E1,5.545368347E0,-1.505868530E1,-4.640949097E0,1.670489514E1
1.104517812E1,6.736142120E0,-5.006339264E0,-4.933291168E0,9.735317419E0
1.105521213E1,7.592211914E0,-5.644761658E-1,-1.182241516E1,1.406164341E1
1.106524512E1,7.688312073E0,-5.219645691E-1,-1.091245743E1,1.335905373E1
1.107527812E1,5.444178772E0,-3.112477570E0,-1.217223770E1,1.369269768E1
1.108531112E1,3.255130920E0,-8.384664001E0,-1.363200211E1,1.633186913E1
1.109534412E1,-1.233734436E0,-1.375474686E1,-1.396925079E1,1.964319550E1
1.110537712E1,-9.332043915E0,-1.919263870E1,-1.214694031E1,2.455590729E1
1.111541012E1,-1.392164978E1,-2.691852264E1,-1.246787292E1,3.276991073E1
1.112544312E1,-1.022703278E1,-3.158042816E1,-1.205817490E1,3.531735019E1
1.113547612E1,-5.097200317E0,-2.996828064E1,-1.012464569E1,3.204040802E1
1.114550912E1,-2.483335876E0,-2.629761383E1,-1.007165588E1,2.826958971E1
1.115554212E1,-1.693727875E0,-2.327764389E1,-8.379873962E0,2.479797788E1
1.116557513E1,-1.758243713E0,-2.109248795E1,-6.494993591E0,2.213976988E1
1.117560912E1,-1.255888367E0,-1.991967682E1,-5.296436005E0,2.065001246E1
1.118564212E1,-6.727011108E-1,-1.896960251E1,-4.154311066E0,1.943081693E1
1.119567512E1,-1.889071655E-1,-1.797746567E1,-4.286186829E0,1.848232548E1
1.120570812E1,1.595681763E-1,-1.682141968E1,-5.020859070E0,1.755547344E1
1.121574067E1,2.216889954E-1,-1.434122726E1,-6.180347900E0,1.561783102E1
1.122577367E1,6.661148071E-1,-1.057206528E1,-7.612719269E0,1.304476017E1
1.123580667E1,9.714797974E-1,-6.513105927E0,-8.503367157E0,1.075507205E1
1.124583967E1,1.143921204E0,-1.976789246E0,-8.408763885E0,8.713412737E0
1.125587267E1,1.080752563E0,2.213297424E0,-4.458777924E0,5.093860242E0
1.126590567E1,2.694546661E0,4.427043915E0,4.066294098E0,6.587415823E0
1.127593867E1,1.790426788E0,4.970863037E0,3.126548309E0,6.139251725E0
1.128597267E1,-2.032323761E0,4.059258728E0,-8.337661743E-1,4.615526766E0
1.129600567E1,-6.210435333E0,1.323697357E0,-2.318678284E-1,6.354167484E0
1.130603867E1,-7.588469696E0,-2.097588043E0,2.212399292E-1,7.876147220E0
1.131607167E1,-7.085665283E0,-4.090693359E0,-2.605481873E0,8.586556962E0
1.132610467E1,-6.049070892E0,-4.675377502E0,-4.910239105E0,9.086300761E0
1.133613767E1,-4.449796600E0,-4.206851807E0,-2.899320831E0,6.775275138E0
1.134617067E1,-2.855462036E0,-2.616259460E0,6.509962463E-1,3.927120207E0
1.135620367E1,-2.060315552E0,-4.909790039E-1,4.432432709E0,4.912475982E0
1.136623667E1,-1.857038269E0,1.529968414E0,8.123756561E0,8.472591997E0
1.137626967E1,-1.220561829E0,3.433110809E0,9.141490173E0,9.840877176E0
1.138630267E1,-1.021475830E0,5.192252655E0,6.954088898E0,8.738549817E0
1.139633667E1,-7.789801025E-1,5.599256287E0,3.078647919E0,6.437123113E0
1.140636967E1,6.933581543E-1,4.078568573E0,-1.252146149E0,4.322422598E0
1.141640267E1,2.978506165E0,1.296753387E0,-5.342839508E0,6.252919504E0
1.142643567E1,4.353247375E0,-1.357826385E0,-3.736230469E0,5.895241583E0
1.143646867E1,4.400399323E0,-3.284769287E0,-6.475534058E-1,5.529244874E0
1.144650167E1,3.115171967E0,-3.881428528E0,7.774832153E-1,5.037287360E0
1.145653467E1,1.547182617E0,-3.549718323E0,9.485774231E-1,3.986737181E0
1.146656767E1,3.818559265E-1,-2.916235657E0,5.602848816E-1,2.994021293E0
1.147660067E1,1.517843628E-1,-1.966610413E0,2.170486450E-1,1.984365169E0
1.148663367E1,2.912942505E-1,-8.234376526E-1,-3.068618774E-2,8.739814358E-1
1.149666667E1,2.293231201E-1,7.080276489E-2,-1.416055298E-1,2.786651234E-1
1.150670067E1,-1.091230774E-1,6.593788147E-1,-1.131646729E-1,6.778602441E-1
1.151673367E1,-6.197113037E-1,9.624984741E-1,-2.136058044E-1,1.164505411E0
1.152676667E1,-1.200952606E0,1.033600616E0,-4.168830872E-1,1.638416585E0
1.153679967E1,-1.228645020E0,8.890013123E-1,-6.789880371E-1,1.661600635E0
1.154683267E1,-8.882528687E-1,4.701722717E-1,-9.636959839E-1,1.392395444E0
1.155686567E1,-5.816903687E-1,-1.604663086E-1,-1.419947205E0,1.542842566E0
1.156689867E1,-5.439688110E-1,-9.351054382E-1,-1.952090607E0,2.231811369E0
1.157693167E1,-8.422984314E-1,-1.838027802E0,-2.617456970E0,3.307399861E0
1.158696467E1,-1.531465302E0,-2.703378296E0,-3.636388092E0,4.782986362E0
1.159699767E1,-2.315684509E0,-3.414998474E0,-4.739893341E0,6.284202273E0
1.160703067E1,-2.945125580E0,-3.981270905E0,-5.487588501E0,7.391746090E0
1.161706367E1,-3.440744934E0,-4.525239716E0,-6.116131439E0,8.350064908E0
1.162709767E1,-4.336332550E0,-5.285508728E0,-1.066113007E1,1.266491519E1
1.163713067E1,-5.452860718E0,-6.389163666E0,-1.581640961E1,1.790848724E1
1.164716367E1,-5.075645142E0,-7.794740753E0,-8.001161499E0,1.226942306E1
1.165719667E1,-5.116959229E0,-8.084987183E0,5.448669434E0,1.101082595E1
1.166722967E1,-4.552932129E0,-7.805218964E0,2.664010162E0,9.420593622E0
1.167726267E1,1.728904724E-1,-1.060499680E1,3.259022827E0,1.109581353E1
1.168729567E1,2.006128235E0,-1.640229126E1,4.072880402E0,1.701905003E1
1.169732867E1,3.892655182E0,-2.501897278E1,-1.319745575E1,2.855301388E1
1.170736167E1,5.908213806E-1,-3.970882507E1,-5.854520462E1,7.074376893E1
1.171739467E1,1.072220306E1,-5.655703903E1,-2.961815872E1,6.473715802E1
1.172742767E1,8.716673584E0,-5.126733902E1,1.757674896E1,5.489319222E1
1.173746167E1,-4.310586090E0,-3.535647583E1,-2.742297363E-1,3.561933095E1
1.174749467E1,-8.095764771E0,-1.948063980E1,-7.409142609E0,2.235916207E1
1.175752767E1,-1.115151031E1,-5.750441895E0,-5.205874329E0,1.358399396E1
1.176756067E1,-1.712169525E1,1.510957947E0,-7.833659821E0,1.888919449E1
1.177759367E1,-1.834450241E1,4.388274536E0,-6.935677185E0,2.009679925E1
1.178762667E1,-1.135912857E1,3.972738647E0,-6.111042023E0,1.349656582E1
1.179765967E1,-1.426683197E0,-4.535568237E-2,-8.767717438E0,8.883149844E0
1.180769267E1,6.360273743E0,-6.735543365E0,-8.688831482E0,1.270104008E1
1.181772567E1,7.979756012E0,-1.553110291E1,-8.737929382E0,1.952544682E1
1.182775867E1,6.994055786E0,-2.497017426E1,-8.205187225E0,2.719837341E1
1.183779167E1,7.541317749E0,-3.259666489E1,-6.533164215E0,3.408953314E1
1.184782467E1,6.348148956E0,-3.203458374E1,-5.238656158E0,3.307502183E1
1.185785867E1,1.638343048E0,-2.193059509E1,-3.823498993E0,2.232161091E1
1.186789167E1,-1.830693054E0,-1.248703308E1,-2.833008728E0,1.293458042E1
1.187792467E1,-4.929099884E0,-6.255042572E0,-1.954485626E0,8.200097396E0
1.188795767E1,-7.939190369E0,-1.835183716E0,-1.644629974E0,8.312848533E0
1.189799067E1,-9.771230621E0,8.090675354E-1,-1.738933868E0,9.957681916E0
1.190802367E1,-9.601932678E0,1.400188293E0,-1.491049347E0,9.817375748E0
1.191805667E1,-7.613018646E0,-2.421963501E-1,-1.186283112E0,7.708695065E0
1.192808967E1,-5.784570923E0,-3.349285126E0,-1.369352417E0,6.823056328E0
1.193812267E1,-4.580774231E0,-6.439459076E0,-1.651515656E0,8.073266359E0
1.194815567E1,-3.649710388E0,-9.013805695E0,-2.537373505E0,1.005024096E1
1.195818867E1,-3.091371460E0,-1.086216202E1,-3.920347595E0,1.195459186E1
1.196822267E1,-2.377805328E0,-1.177361664E1,-4.990023193E0,1.300662671E1
1.197825567E1,-1.438957672E0,-1.179472275E1,-5.259313202E0,1.299409324E1
1.198828867E1,-1.315763855E0,-1.113863708E1,-5.372028809E0,1.243620377E1
1.199832167E1,-1.925146637E0,-1.009635452E1,-5.350174255E0,1.158736073E1
1.200835467E1,-2.356699219E0,-9.202263794E0,-4.982389069E0,1.072659736E1
1.201838767E1,-2.771037598E0,-8.628357239E0,-4.439468079E0,1.009138617E1
1.202842067E1,-3.406765594E0,-8.277187500E0,-3.899690552E0,9.763476385E0
1.203845367E1,-3.855532379E0,-8.127798157E0,-3.429967346E0,9.627611791E0
1.204848667E1,-4.162244568E0,-8.117020569E0,-3.081791382E0,9.628485908E0
1.205851967E1,-4.395309906E0,-7.952362976E0,-3.015329590E0,9.573454894E0
1.206855267E1,-4.649331665E0,-7.312593384E0,-3.111429749E0,9.207133213E0
1.207858667E1,-4.055516510E0,-6.346801758E0,-2.857557678E0,8.055727317E0
1.208861967E1,-3.394191742E0,-4.989274750E0,-2.578238525E0,6.562066291E0
1.209865267E1,-2.670297089E0,-3.039579163E0,-1.830842743E0,4.440891034E0
1.210868567E1,-1.167422333E0,-5.364843750E-1,-7.259902954E-1,1.475720941E0
1.211871867E1,-2.644999695E-1,2.751128998E0,1.616638184E-2,2.763861854E0
1.212875167E1,8.170010376E-1,6.662794647E0,4.519102478E-1,6.727893138E0
1.213878467E1,2.007625122E0,8.927884369E0,5.240602112E-1,9.165823315E0
1.214881767E1,3.061583405E0,8.114775238E0,4.460723877E-2,8.673226615E0
1.215885067E1,4.003873901E0,5.654790802E0,-6.494993591E-1,6.959131745E0
1.216888367E1,4.448898468E0,2.462678833E0,-1.713636475E0,5.366007322E0
1.217891667E1,3.777544556E0,-1.216969299E-1,-3.380270691E0,5.070590001E0
1.218895067E1,1.767075348E0,-1.857637024E0,-6.962770844E0,7.419807842E0
1.219898367E1,3.799099731E-1,-4.553530884E0,-1.254481293E1,1.335107885E1
1.220901667E1,2.054777069E0,-8.891959076E0,-1.805784851E1,2.023301603E1
1.221904992E1,3.964655457E0,-1.500075577E1,-2.417502777E1,2.872582695E1
1.222908292E1,-1.364712067E0,-1.898517014E1,-1.653356827E1,2.521225900E1
1.223911592E1,-9.814640350E0,-1.855182129E1,-8.022716675E0,2.246911705E1
1.224914892E1,-1.382135834E1,-1.844823669E1,-1.105496109E1,2.556520190E1
1.225918192E1,-1.062011536E1,-1.943767914E1,-1.271231461E1,2.553846438E1
1.226921492E1,-1.768572235E0,-1.546523987E1,-7.127727814E0,1.712033866E1
1.227924792E1,3.109334106E0,-9.209299164E0,-1.630858612E0,9.855904296E0
1.228928092E1,4.078269196E0,-4.830904083E0,-4.519401855E0,7.771416024E0
1.229931392E1,6.001769257E0,-3.270848236E0,-9.881700897E0,1.201531086E1
1.230934792E1,7.163503418E0,-3.862867126E0,-1.054586975E1,1.332114456E1
1.231938092E1,6.001020813E0,-5.668113098E0,-9.653575287E0,1.270162481E1
1.232941392E1,4.252806244E0,-8.226892090E0,-1.142469223E1,1.470685918E1
1.233944692E1,1.594933319E0,-1.074510544E1,-1.263103363E1,1.665965527E1
1.234947992E1,-3.296594696E0,-1.338007599E1,-1.283431091E1,1.883118442E1
1.235951292E1,-1.011491592E1,-1.790516602E1,-1.240275833E1,2.401530571E1
1.236954592E1,-1.324116486E1,-2.445419724E1,-1.388138351E1,3.108100734E1
1.237957892E1,-9.465566254E0,-2.747132309E1,-1.440170151E1,3.242960905E1
1.238961192E1,-5.574707336E0,-2.502002060E1,-1.424153458E1,2.932405326E1
1.239964492E1,-4.566254425E0,-2.012549881E1,-1.451022583E1,2.522762445E1
1.240967792E1,-3.134332123E0,-1.717109253E1,-1.190878555E1,2.113030122E1
1.241971192E1,-3.540587311E0,-1.639151367E1,-1.028675858E1,1.967320210E1
1.242974492E1,-4.953050079E0,-1.721944199E1,-8.186326447E0,1.969918344E1
1.243977792E1,-5.712121582E0,-1.833537140E1,-5.516927490E0,1.998125787E1
1.244981092E1,-4.827012177E0,-1.967328918E1,-4.554728394E0,2.076256017E1
1.245984392E1,-3.288960571E0,-2.128259262E1,-4.676275635E0,2.203709518E1
1.246987692E1,-1.463207245E0,-2.259296768E1,-4.533771973E0,2.308978676E1
1.247990992E1,2.056723022E-1,-2.263712585E1,-5.694608002E0,2.334331442E1
1.248994292E1,1.108145599E0,-2.067231171E1,-6.989116058E0,2.184994740E1
1.249997592E1,1.865121460E0,-1.627580429E1,-6.880891113E0,1.776871256E1
1.251000892E1,2.562970276E0,-1.061966629E1,-6.873256989E0,1.290688926E1
1.252004192E1,3.476670227E0,-5.301076355E0,-5.632936249E0,8.480484489E0
1.253007592E1,2.910098419E0,-7.824229431E-1,-3.689377899E0,4.763650675E0
1.254010892E1,2.902913361E0,1.796564026E0,-3.393293610E0,4.813417684E0
1.255014192E1,3.134332123E0,1.285676422E0,-2.075134735E0,3.972805795E0
1.256017492E1,6.143225098E-1,3.905378723E-1,-4.850513306E0,4.904833463E0
1.257020792E1,-2.490670624E0,-9.865983582E-1,-6.066285095E0,6.631487867E0
1.258024092E1,-4.542603607E0,-3.072211304E0,-5.802383881E0,7.983820422E0
1.259027392E1,-4.591851196E0,-4.382736053E0,-5.368585968E0,8.313554476E0
1.260030692E1,-3.740721130E0,-4.720284119E0,-7.777376862E0,9.836750865E0
1.261033992E1,-4.737947388E0,-3.685036926E0,-9.734706573E0,1.143643977E1
1.262037292E1,-8.632099457E0,-8.910969543E-1,-1.230740662E0,8.764811315E0
1.263040592E1,-7.989336090E0,1.479673004E0,1.252729935E1,1.493158238E1
1.264043892E1,-3.711681519E0,3.247047729E0,2.088067841E1,2.145513061E1
1.265047292E1,-7.538323975E-1,5.931714935E0,1.829480576E1,1.924716662E1
1.266050592E1,5.355862427E-1,8.513096924E0,1.174801987E1,1.451811429E1
1.267053892E1,1.811532898E0,9.718091125E0,6.548881531E0,1.185794231E1
1.268057192E1,2.290087738E0,7.800578613E0,9.839039612E-1,8.189114455E0
1.269060492E1,1.513652344E0,2.743644562E0,-3.396287384E0,4.620984407E0
1.270063792E1,8.089178467E-1,-3.132386169E0,-7.775730286E0,8.421886527E0
1.271067092E1,1.868264923E0,-7.413333893E0,-7.040010223E0,1.039277043E1
1.272070392E1,1.827998657E0,-8.005053406E0,-1.003213806E0,8.272176078E0
1.273073692E1,6.090834045E-1,-5.869444427E0,8.803193665E-1,5.966265387E0
1.274076992E1,-4.191284180E-3,-3.626358948E0,1.221459961E0,3.826546906E0
1.275080292E1,-5.842350769E-1,-1.583556976E0,3.641926575E-1,1.726736695E0
1.276083692E1,-8.824150085E-1,4.210743713E-1,-4.101470947E-1,1.060273791E0
1.277086992E1,-1.100212097E0,1.969304810E0,-2.956352234E-1,2.275088631E0
1.278090292E1,-1.747915192E0,2.841690674E0,-1.118174744E-1,3.338100740E0
1.279093592E1,-2.151925049E0,3.173700256E0,9.834548950E-2,3.835730252E0
1.280096892E1,-2.219135284E0,2.837948456E0,3.086581421E-1,3.615768618E0
1.281100192E1,-2.071093140E0,1.891167297E0,4.550537109E-1,2.841305056E0
1.282103492E1,-1.613045654E0,8.120613098E-1,4.249662781E-1,1.855250978E0
1.283106792E1,-9.482780457E-1,-1.131646729E-1,3.341052246E-1,1.011762717E0
1.284110092E1,-1.511856079E-1,-8.668473816E-1,3.454815674E-1,9.453248037E-1
1.285113392E1,5.022056580E-1,-1.257534943E0,1.362167358E-1,1.360940724E0
1.286116692E1,8.397537231E-1,-1.572779388E0,-5.539979553E-1,1.867012334E0
1.287120092E1,7.253915405E-1,-1.847308502E0,-1.358724518E0,2.405176481E0
1.288123392E1,7.229965210E-2,-2.171534271E0,-2.478246460E0,3.295829766E0
1.289126692E1,-7.960446167E-1,-2.802322540E0,-3.717220001E0,4.722755889E0
1.290129992E1,-1.626966705E0,-3.696712646E0,-4.497696991E0,6.044996549E0
1.291133292E1,-2.114203491E0,-4.578678589E0,-4.786745911E0,6.953207205E0
1.292136592E1,-2.108964386E0,-5.309159546E0,-5.174290009E0,7.707670398E0
1.293139892E1,-2.001936951E0,-6.197412415E0,-8.412506104E0,1.063888768E1
1.294143192E1,-1.272503815E0,-7.980354767E0,-1.863669479E1,2.031333850E1
1.295146492E1,4.969665527E-2,-1.169353317E1,-1.693608124E1,2.058086576E1
1.296149792E1,-3.053799591E0,-1.357631790E1,-3.325484619E0,1.430737389E1
1.297153192E1,-7.636669464E0,-1.324086548E1,-1.749262390E0,1.538503032E1
1.298156492E1,-9.585616608E0,-1.277668076E1,-2.940185852E0,1.624106861E1
1.299159792E1,-7.970774689E0,-1.537482788E1,-1.234183502E0,1.736207909E1
1.300163092E1,9.795629883E-1,-2.350801483E1,-4.776118011E0,2.400828208E1
1.301166392E1,4.995112610E0,-2.879367325E1,-2.373913422E0,2.931999717E1
1.302169692E1,1.683249664E0,-2.961217117E1,-1.396775391E1,3.278432797E1
1.303172992E1,5.489684143E0,-2.904829376E1,-2.801080124E1,4.072523773E1
1.304176292E1,6.776558075E0,-2.639880341E1,-2.192041626E1,3.497603765E1
1.305179592E1,6.319109344E0,-2.448952377E1,-5.169799347E0,2.581462266E1
1.306182892E1,-4.142635345E0,-2.145638123E1,-8.870852966E0,2.358452364E1
1.307186192E1,-8.682993622E0,-1.642249924E1,-1.738918900E1,2.544556451E1
1.308189492E1,-8.947343903E0,-8.731642456E0,-1.454405548E1,1.917879279E1
1.309192892E1,-6.699767761E0,-2.361339569E0,-6.613397369E0,9.705660069E0
1.310196192E1,-3.394341431E0,5.281018066E-1,-8.952283630E0,9.588734404E0
1.311199492E1,-1.406026154E0,-4.567002869E-1,-1.039992325E1,1.050446992E1
1.312202792E1,-8.695417786E-1,-4.054468689E0,-9.277706909E0,1.016221751E1
1.313206092E1,-1.890568542E-1,-8.441994781E0,-9.198222198E0,1.248640501E1
1.314209392E1,1.110091553E0,-1.232102829E1,-1.030487091E1,1.610063371E1
1.315212692E1,2.577490082E0,-1.556119034E1,-1.087189178E1,1.915703868E1
1.316215992E1,3.282224579E0,-1.764740204E1,-1.046653473E1,2.077864640E1
1.317219292E1,2.799179077E0,-1.765294052E1,-9.817334747E0,2.039219885E1
1.318222592E1,1.421144714E0,-1.566342773E1,-9.125473480E0,1.818342341E1
1.319225892E1,-3.438349915E-1,-1.254092102E1,-8.344098358E0,1.506708001E1
1.320229192E1,-1.847458191E0,-9.807006226E0,-7.429051208E0,1.244111228E1
1.321232575E1,-3.023861847E0,-8.020022278E0,-6.638395386E0,1.084125413E1
1.322235875E1,-3.768712921E0,-7.028035126E0,-5.897585907E0,9.918568160E0
1.323239175E1,-4.001179504E0,-6.559659119E0,-5.351970520E0,9.363874926E0
1.324242475E1,-3.842210083E0,-6.179749146E0,-5.140160980E0,8.909160046E0
1.325245775E1,-3.297642517E0,-5.855074310E0,-4.911885681E0,8.323638765E0
1.326249075E1,-2.545756073E0,-5.920188904E0,-4.513414307E0,7.867681955E0
1.327252375E1,-1.980830841E0,-6.139482880E0,-3.966002655E0,7.572721962E0
1.328255675E1,-1.659449158E0,-6.108048248E0,-3.895798645E0,7.432312695E0
1.329258975E1,-1.311422882E0,-5.992787933E0,-4.225562897E0,7.449075042E0
1.330262275E1,-9.163943481E-1,-5.695057068E0,-4.485123138E0,7.306831268E0
1.331265575E1,-8.717871094E-1,-5.244793396E0,-4.570745087E0,7.011389390E0
1.332268975E1,-1.139280853E0,-4.890779572E0,-4.221670990E0,6.560502391E0
1.333272275E1,-1.404978333E0,-4.664450226E0,-3.793710938E0,6.174407073E0
1.334275575E1,-1.626966705E0,-4.463418274E0,-3.692671051E0,6.017054332E0
1.335278875E1,-1.856140137E0,-4.196523285E0,-3.897894287E0,6.020767705E0
1.336282175E1,-2.081721039E0,-3.792363739E0,-4.355343018E0,6.138778218E0
1.337285475E1,-2.145039368E0,-3.590433655E0,-4.704267426E0,6.294643733E0
1.338288775E1,-1.726509705E0,-3.709585876E0,-4.811893616E0,6.316342558E0
1.339292075E1,-9.340576172E-1,-4.066294098E0,-5.111570435E0,6.598133344E0
1.340295375E1,-4.137396240E-1,-4.527335358E0,-5.441334686E0,7.090561972E0
1.341298675E1,-4.662803650E-1,-4.866529999E0,-5.904172211E0,7.665492881E0
1.342302075E1,-7.473957825E-1,-4.820425873E0,-6.042634277E0,7.765857007E0
1.343305375E1,-3.176394653E-1,-4.361779633E0,-5.419929199E0,6.964312523E0
1.344308675E1,8.650511169E-1,-3.858077087E0,-4.030069427E0,5.645753434E0
1.345311975E1,1.453028412E0,-3.413052521E0,-3.498075714E0,5.098701087E0
1.346315275E1,1.443897400E0,-3.486849060E0,-4.234244843E0,5.672017759E0
1.347318575E1,1.489702148E0,-4.282145233E0,-5.366490326E0,7.025325523E0
1.348321875E1,1.140478363E0,-5.658083954E0,-8.198301544E0,1.002630306E1
1.349325175E1,4.206253052E-2,-7.326813812E0,-1.151809799E1,1.365102748E1
1.350328475E1,-1.416654053E0,-8.580756226E0,-1.136167328E1,1.430817619E1
1.351331775E1,-3.014281769E0,-9.134155426E0,-1.074405762E1,1.442059167E1
1.352335075E1,-3.231031036E0,-1.009590546E1,-1.093775482E1,1.523159050E1
1.353338375E1,-2.722688141E0,-1.163904648E1,-1.087683151E1,1.616124678E1
1.354341775E1,-4.326303406E0,-1.326137283E1,-1.133038834E1,1.797104923E1
1.355345075E1,-5.646557922E0,-1.537153473E1,-1.177735886E1,2.017111494E1
1.356348375E1,-5.688770142E0,-1.761072830E1,-1.265393600E1,2.241923178E1
1.357351675E1,-4.202211456E0,-1.924128754E1,-1.376387787E1,2.402769363E1
1.358354975E1,-2.326312408E0,-1.964724335E1,-1.454824677E1,2.455763394E1
1.359358275E1,-1.713187408E0,-1.915940781E1,-1.557361450E1,2.474985631E1
1.360361575E1,-2.011067963E0,-1.852951767E1,-1.601280121E1,2.457228565E1
1.361364875E1,-2.096390533E0,-1.785202652E1,-1.542527298E1,2.368604548E1
1.362368175E1,-1.537602539E0,-1.720103027E1,-1.449929855E1,2.254926435E1
1.363371475E1,-9.154962158E-1,-1.668699921E1,-1.321886124E1,2.130803530E1
1.364374775E1,-1.947450256E-1,-1.644959290E1,-1.093521011E1,1.975362884E1
1.365378175E1,-5.972579956E-2,-1.643387558E1,-8.856632538E0,1.866857717E1
1.366381475E1,-4.165837097E-1,-1.691153229E1,-7.279212799E0,1.841630813E1
1.367384775E1,-1.118174744E-1,-1.782672913E1,-5.742209015E0,1.872906134E1
1.368388075E1,5.483097839E-1,-1.804287964E1,-4.432582397E0,1.858746718E1
1.369391375E1,1.114133148E0,-1.744397507E1,-3.829037476E0,1.789399583E1
1.370394675E1,1.504371643E0,-1.658251648E1,-3.687282257E0,1.705400356E1
1.371397975E1,1.748663635E0,-1.546583862E1,-4.289479980E0,1.614464702E1
1.372401275E1,1.333277435E0,-1.312575485E1,-5.034929810E0,1.412138759E1
1.373404575E1,-7.394622803E-2,-9.514215088E0,-5.567522278E0,1.102374987E1
1.374407875E1,-1.132245483E0,-5.812862091E0,-5.506149902E0,8.086348513E0
1.375411175E1,-1.345551910E0,-3.245251465E0,-4.084855499E0,5.387783539E0
1.376414475E1,-2.088307343E0,-8.776249695E-1,-3.845802612E0,4.463345256E0
1.377417875E1,-2.780467987E0,7.051835632E-1,-5.102289734E0,5.853344908E0
1.378421175E1,-3.262765045E0,2.926414490E-1,-4.961133270E0,5.945091932E0
1.379424475E1,-4.788991241E0,-7.646099854E-1,-4.699327698E0,6.752980553E0
1.380427775E1,-5.820047150E0,-2.314786377E0,-5.237758026E0,8.164881747E0
1.381431075E1,-5.925727386E0,-2.800226898E0,-5.103337555E0,8.306597976E0
1.382434375E1,-5.544320526E0,-1.760039978E0,1.008153534E0,5.903694129E0
1.383437675E1,-5.346432037E0,1.130149841E-1,6.037694550E0,8.065411545E0
1.384440975E1,-5.353467407E0,2.894231415E0,1.013198044E1,1.181918848E1
1.385444275E1,-4.743934937E0,5.732030182E0,1.378827713E1,1.566772718E1
1.386447575E1,-3.657344513E0,8.259374542E0,1.410052780E1,1.674569560E1
1.387450875E1,-3.676504669E0,1.018826340E1,1.119147720E1,1.557454846E1
1.388454275E1,-2.302062836E0,9.548493805E0,5.261558533E0,1.114258612E1
1.389457575E1,2.159409485E0,4.881947937E0,-1.340163116E0,5.503862477E0
1.390460875E1,5.156776428E0,-1.894310760E0,-1.004321503E1,1.144757286E1
1.391464175E1,5.498066711E0,-6.796616364E0,-5.058580627E0,1.010009750E1
1.392467475E1,3.770509186E0,-8.465645599E0,1.222657471E0,9.347662073E0
1.393470775E1,1.470991058E0,-7.586074677E0,1.971849518E0,7.974994308E0
1.394474075E1,9.759704590E-2,-4.739893341E0,1.447489929E0,4.956948776E0
1.395477375E1,-1.006806335E0,-1.662442932E0,2.833607483E-1,1.964094909E0
1.396480675E1,-1.721869354E0,6.526428223E-1,-8.397537231E-2,1.843319991E0
1.397483975E1,-1.993105316E0,1.987866211E0,-3.158432007E-2,2.815151584E0
1.398487375E1,-2.386038208E0,2.551444244E0,-1.850152588E-1,3.498181915E0
1.399490675E1,-2.883902893E0,2.485132141E0,-6.155200195E-1,3.856376868E0
1.400493975E1,-3.302282867E0,1.853146362E0,-8.747808838E-1,3.886446342E0
1.401497275E1,-3.411256256E0,8.798703003E-1,-1.065484314E0,3.680502386E0
1.402500575E1,-2.835852814E0,-1.119671631E-1,-1.313817902E0,3.127413517E0
1.403503875E1,-1.830393677E0,-8.485853577E-1,-1.886227570E0,2.761936380E0
1.404507175E1,-6.357279968E-1,-1.282832336E0,-2.661465454E0,3.022119662E0
1.405510475E1,4.411326599E-1,-1.730401611E0,-3.544778595E0,3.969174101E0
1.406513775E1,1.093027039E0,-2.300715637E0,-4.244124298E0,4.949807229E0
1.407517075E1,1.387764130E0,-2.820584564E0,-4.407135315E0,5.413356468E0
1.408520375E1,1.167721710E0,-3.078049164E0,-3.464395752E0,4.779121109E0
1.409523675E1,1.099763031E0,-2.631228333E0,-1.407223663E0,3.180113158E0
1.410527075E1,1.207089844E0,-1.808838501E0,-7.050338745E-2,2.175760405E0
1.411530375E1,7.503895569E-1,-1.175804901E0,-8.678952026E-1,1.642815795E0
1.412533675E1,1.231938171E-1,-1.319955139E0,-2.697241058E0,3.005423034E0
1.413536975E1,-1.428629150E0,-2.368524628E0,-5.870791626E0,6.489767675E0
1.414540275E1,-4.602329407E0,-3.393143921E0,-9.305698700E0,1.092203689E1
1.415543575E1,-4.042942657E0,-5.575755157E0,-2.542762299E0,7.341666774E0
1.416546875E1,-2.339634705E-1,-9.293274536E0,9.009764099E-1,9.339777781E0
1.417550175E1,-3.562142487E0,-1.241084152E1,-8.613238678E0,1.552113807E1
1.418553475E1,-5.106481018E0,-2.141072617E1,-3.618575134E0,2.230671265E1
1.419556775E1,-3.598666534E0,-3.647345306E1,-6.871610413E0,3.728917013E1
1.420560075E1,-8.627908173E0,-4.802642853E1,-3.014536240E1,5.735609393E1
1.421563462E1,1.063987427E0,-5.536162491E1,-3.840952698E1,6.738941567E1
1.422566762E1,1.180310532E1,-4.965653870E1,8.000862122E-1,5.104630514E1
1.423570062E1,-4.896617432E0,-3.000151154E1,-3.126997375E-1,3.040008779E1
1.424573362E1,-9.407636719E0,-1.550685333E1,-8.505163422E0,2.003257182E1
1.425576662E1,-1.068478088E1,-5.775290222E0,-1.305450302E1,1.783083197E1
1.426579962E1,-1.626981674E1,-5.113366699E-1,-7.551197205E0,1.794405142E1
1.427583262E1,-1.723740463E1,9.665400696E-1,-7.635172577E0,1.887745159E1
1.428586562E1,-1.067056046E1,9.445358276E-2,-7.445966034E0,1.301200185E1
1.429589862E1,-3.374732208E0,-2.149380341E0,-6.448889465E0,7.589257451E0
1.430593163E1,-1.067280579E-1,-5.827681274E0,-6.974596252E0,9.089458334E0
1.431596462E1,1.287472687E0,-1.040860519E1,-8.699609070E0,1.362643923E1
1.432599862E1,3.005150757E0,-1.517664001E1,-8.136779480E0,1.748051811E1
1.433603163E1,4.630171509E0,-1.959664856E1,-7.696395264E0,2.155693909E1
1.434606462E1,5.741610260E0,-2.294024551E1,-8.192912750E0,2.502688099E1
1.435609762E1,4.920567627E0,-2.236050110E1,-8.533753967E0,2.443417590E1
1.436613062E1,1.822460175E0,-1.730970428E1,-8.090825043E0,1.919397492E1
1.437616362E1,-1.694925385E0,-1.149923721E1,-6.936425629E0,1.353584977E1
1.438619662E1,-4.092938690E0,-6.949747925E0,-6.101911011E0,1.011357807E1
1.439622962E1,-5.219496002E0,-3.845503235E0,-5.537584534E0,8.526187666E0
1.440626262E1,-5.550757141E0,-2.179767151E0,-5.068011017E0,7.826047875E0
1.441629563E1,-5.331762543E0,-1.865121460E0,-4.448150024E0,7.189743286E0
1.442632862E1,-4.389172668E0,-2.885998535E0,-3.901187439E0,6.543171073E0
1.443636262E1,-3.014431458E0,-4.407584381E0,-3.707639923E0,6.500783867E0
1.444639563E1,-1.944007416E0,-5.608387299E0,-3.731290741E0,7.011112859E0
1.445642862E1,-1.218316498E0,-6.396797791E0,-3.839964752E0,7.559672371E0
1.446646162E1,-7.219487000E-1,-6.724017334E0,-4.016447754E0,7.865460673E0
1.447649462E1,-3.661386108E-1,-6.689289551E0,-4.053271179E0,7.830048495E0
1.448652762E1,-5.972579956E-2,-6.484814758E0,-4.027973785E0,7.634196908E0
1.449656062E1,1.818717957E-1,-6.171665955E0,-3.930526428E0,7.319260619E0
1.450659362E1,1.140628052E-1,-5.624703369E0,-3.629652100E0,6.695123052E0
1.451662662E1,-9.220825195E-2,-4.970114594E0,-3.299289093E0,5.966225771E0
1.452665963E1,-2.821632385E-1,-4.427642670E0,-2.917283478E0,5.309819073E0
1.453669262E1,-4.875361633E-1,-4.079017639E0,-2.626288605E0,4.875804369E0
1.454672662E1,-7.885601807E-1,-4.038751373E0,-2.626138916E0,4.881592509E0
1.455675963E1,-1.104702759E0,-4.362378387E0,-2.873873749E0,5.339462867E0
1.456679262E1,-1.431922302E0,-4.933141479E0,-3.357068939E0,6.136464634E0
1.457682562E1,-1.632505188E0,-5.605842590E0,-4.036356354E0,7.098078398E0
1.458685862E1,-1.648821259E0,-6.242019653E0,-4.716242523E0,7.995271380E0
1.459689162E1,-1.565145264E0,-6.687193909E0,-5.299280090E0,8.674711035E0
1.460692462E1,-1.521136780E0,-6.863676910E0,-5.907764740E0,9.182897258E0
1.461695762E1,-1.410367126E0,-6.833290100E0,-6.406078491E0,9.472108037E0
1.462699062E1,-1.173858948E0,-6.613097992E0,-6.559060364E0,9.387879565E0
1.463702362E1,-9.574090576E-1,-6.138135681E0,-6.271358643E0,8.827416438E0
1.464705662E1,-1.148711243E0,-5.317542114E0,-6.144123230E0,8.206463423E0
1.465709062E1,-1.691183167E0,-4.242178345E0,-6.037544861E0,7.570213046E0
1.466712362E1,-2.222428436E0,-3.206482086E0,-5.746849365E0,6.946005554E0
1.467715662E1,-2.747386780E0,-2.290686493E0,-5.577102356E0,6.625665960E0
1.468718962E1,-3.254532166E0,-1.986519012E0,-6.326893158E0,7.387003075E0
1.469722262E1,-3.512595520E0,-2.544708252E0,-8.112529907E0,9.199293933E0
1.470725562E1,-2.216141510E0,-4.282444611E0,-8.158035278E0,9.476505402E0
1.471728862E1,3.832031250E-2,-6.723717957E0,-6.759194183E0,9.533968618E0
1.472732162E1,8.488847351E-1,-8.531209259E0,-5.416935425E0,1.014126847E1
1.473735462E1,1.510359192E-1,-8.818312225E0,-4.258793793E0,9.794016894E0
1.474738762E1,4.873864746E-1,-8.803193665E0,-8.353828125E0,1.214578975E1
1.475742062E1,1.880689087E0,-9.805958405E0,-1.319820419E1,1.654951376E1
1.476745462E1,1.295106812E0,-1.052820648E1,-1.153591095E1,1.567155623E1
1.477748762E1,-5.712121582E-1,-1.039992325E1,-8.735234985E0,1.359371241E1
1.478752062E1,-1.486109619E0,-1.037417679E1,-9.713750153E0,1.428947192E1
1.479755362E1,-2.664159851E0,-1.077564194E1,-1.119342316E1,1.576403910E1
1.480758663E1,-4.138893127E0,-1.116767670E1,-1.091140961E1,1.615259418E1
1.481761962E1,-4.825515289E0,-1.147124542E1,-1.199904785E1,1.728734273E1
1.482765262E1,-4.498894501E0,-1.226519440E1,-1.345192657E1,1.875178322E1
1.483768562E1,-4.459077301E0,-1.290616150E1,-1.193647797E1,1.813647930E1
1.484771862E1,-4.499792633E0,-1.386910904E1,-1.330074097E1,1.973600845E1
1.485775162E1,-3.801195374E0,-1.477472580E1,-1.301977524E1,2.005632459E1
1.486778462E1,-2.914439392E0,-1.471320374E1,-1.501662277E1,2.122430872E1
1.487781862E1,-1.290167084E0,-1.397718430E1,-1.620724686E1,2.144064044E1
1.488785162E1,2.761756897E-1,-1.315180069E1,-1.646426239E1,2.107410901E1
1.489788462E1,6.819818115E-1,-1.341704910E1,-1.624242371E1,2.107839258E1
1.490791762E1,4.682263184E-1,-1.469688766E1,-1.346225510E1,1.993614946E1
1.491795063E1,-1.641636200E0,-1.633867355E1,-9.730515289E0,1.908743437E1
1.492798362E1,-5.147346039E0,-1.845377518E1,-7.163204041E0,2.045356892E1
1.493801662E1,-7.377857666E0,-2.077903976E1,-4.894970856E0,2.258676641E1
1.494804962E1,-8.508157196E0,-2.287453217E1,-3.210074615E0,2.461579858E1
1.495808262E1,-9.088200989E0,-2.385933426E1,-2.712808685E0,2.567532978E1
1.496811562E1,-8.786727905E0,-2.330324066E1,-3.679199066E0,2.517506938E1
1.497814862E1,-7.743547211E0,-2.213851273E1,-4.529880066E0,2.388715309E1
1.498818262E1,-6.137536926E0,-1.890104507E1,-4.562661896E0,2.038962354E1
1.499821562E1,-4.382436676E0,-1.401146301E1,-5.882766724E0,1.581561859E1
1.500824862E1,-2.900518341E0,-9.531728668E0,-7.005581818E0,1.217969764E1
1.501828162E1,-1.534010010E0,-5.355862427E0,-7.109316101E0,9.032210387E0
1.502831463E1,-1.326691132E0,-1.520987091E0,-5.582341461E0,5.935995896E0
1.503834762E1,-2.600242767E0,1.580263824E0,-3.640279999E0,4.744484658E0
1.504838062E1,-1.959575043E0,2.549198914E0,-1.566642151E0,3.576690800E0
1.505841362E1,3.296145630E-1,1.528770905E0,-1.404080200E0,2.101720116E0
1.506844662E1,1.311273193E0,1.781295776E-1,-1.425635376E0,1.945148776E0
1.507847962E1,2.604583740E-1,-1.078207855E0,-1.792522430E0,2.107962857E0
1.508851262E1,-2.664010162E0,-2.424358521E0,-3.351231079E0,4.919879483E0
1.509854662E1,-5.411097565E0,-3.361110535E0,-5.892197113E0,8.677270752E0
1.510857962E1,-7.099885712E0,-3.830384674E0,-6.385870514E0,1.028880781E1
1.511861262E1,-6.474785614E0,-3.216960297E0,-3.068020020E0,7.853943541E0
1.512864562E1,-5.859864349E0,-1.088536377E0,7.164102173E-1,6.003013013E0
1.513867862E1,-6.888225861E0,1.938468933E0,6.244714050E0,9.497461286E0
1.514871162E1,-6.859036560E0,4.087549896E0,1.121887024E1,1.377016689E1
1.515874462E1,-5.634133759E0,5.729335785E0,1.296229477E1,1.525089628E1
1.516877763E1,-3.484304352E0,7.436984711E0,1.308429108E1,1.544822939E1
1.517881062E1,-1.052012329E0,7.760611725E0,1.096739319E1,1.347655511E1
1.518884362E1,1.033600616E0,6.333778839E0,6.151457977E0,8.889629906E0
1.519887662E1,3.659290466E0,3.633394318E0,-1.688039703E0,5.425996593E0
1.520891062E1,5.389243011E0,-1.643582153E-1,-9.611063690E0,1.102014061E1
1.521894412E1,5.845344543E0,-4.121080170E0,-6.899003448E0,9.937182859E0
1.522897712E1,4.521198120E0,-5.941594391E0,-1.005159760E0,7.533533201E0
1.523901012E1,2.266885986E0,-5.915847931E0,9.493258667E-1,6.406032190E0
1.524904312E1,-8.726852417E-2,-4.936135254E0,1.942809906E0,5.305427162E0
1.525907612E1,-1.304237823E0,-3.505260773E0,1.267414398E0,3.948952854E0
1.526910912E1,-1.509760437E0,-1.870360565E0,5.689668274E-1,2.470090782E0
1.527914213E1,-1.546883240E0,-2.652484131E-1,4.107458496E-1,1.622318289E0
1.528917512E1,-1.627864838E0,1.109642487E0,4.673281860E-1,2.024758260E0
1.529920812E1,-1.570084991E0,2.126178589E0,5.575904846E-1,2.701242200E0
1.530924112E1,-1.521735535E0,2.686164093E0,4.953199768E-1,3.126739268E0
1.531927512E1,-1.194366302E0,2.711311798E0,5.275030518E-1,3.009315869E0
1.532930812E1,-7.307803345E-1,2.271077271E0,7.421566772E-1,2.498525245E0
1.533934112E1,-4.020639038E-1,1.573827209E0,5.393284607E-1,1.711567310E0
1.534937412E1,-8.247848511E-2,8.900491333E-1,-7.469467163E-2,8.969779563E-1
1.535940712E1,1.956431580E-1,2.833607483E-1,-6.860234070E-1,7.675921273E-1
1.536944012E1,4.240681458E-1,-3.793112183E-1,-1.495689697E0,1.600249500E0
1.537947312E1,4.056564331E-1,-1.227746887E0,-2.385140076E0,2.713081779E0
1.538950612E1,1.898052979E-1,-2.255659332E0,-3.379671936E0,4.067702972E0
1.539953912E1,-7.484436035E-3,-3.308719482E0,-4.633165283E0,5.693320751E0
1.540957212E1,-9.879455566E-2,-4.270768890E0,-5.699398041E0,7.122665604E0
1.541960612E1,-3.864962769E-1,-5.162314911E0,-7.502548370E0,9.115212925E0
1.542963912E1,-1.259331207E0,-6.309978333E0,-1.341704910E1,1.488015283E1
1.543967212E1,-2.258353729E0,-8.793314209E0,-1.331990112E1,1.611962476E1
1.544970513E1,-5.250780945E0,-1.105945175E1,-6.575975189E0,1.389696453E1
1.545973812E1,-1.239138199E1,-1.194545929E1,-4.022734680E0,1.767548414E1
1.546977112E1,-1.702619385E1,-1.651380936E1,-7.264692993E0,2.480671161E1
1.547980412E1,-1.253687943E1,-2.439911179E1,-1.198886902E1,2.993698352E1
1.548983712E1,1.318458252E0,-3.203967316E1,-1.183349213E1,3.418055769E1
1.549987012E1,3.363954620E0,-3.343058075E1,-1.034828064E1,3.515688883E1
1.550990312E1,-3.677552490E0,-3.129841461E1,-2.206875778E1,3.847265548E1
1.551993612E1,5.419629822E0,-3.876937866E1,-2.272634033E1,4.526503788E1
1.552997012E1,9.079519043E0,-3.687102631E1,-1.852996674E0,3.801767804E1
1.554000312E1,-6.013744354E0,-2.119457565E1,5.529501343E-1,2.203816944E1
1.555003612E1,-1.039603134E1,-1.051952454E1,-2.508184204E0,1.500096171E1
1.556006913E1,-1.220831268E1,-3.138074341E0,-7.355703735E0,1.459440943E1
1.557010212E1,-1.245589783E1,2.010319519E0,-9.014404449E0,1.550645875E1
1.558013512E1,-9.738598480E0,4.392316132E0,-1.001267853E1,1.464194224E1
1.559016812E1,-3.722459106E0,2.517614594E0,-1.022239243E1,1.116657476E1
1.560020112E1,-6.304888916E-1,-2.181264038E0,-1.120479950E1,1.143253956E1
1.561023412E1,1.388063507E0,-7.576195221E0,-1.274659332E1,1.489298814E1
1.562026712E1,4.050576782E0,-1.302845718E1,-1.383707565E1,1.943225493E1
1.563030012E1,5.170697479E0,-1.795531174E1,-1.300854858E1,2.276733775E1
1.564033412E1,3.809577942E0,-2.069611221E1,-1.147139511E1,2.396737054E1
1.565036712E1,1.621128845E0,-1.993314880E1,-1.050934570E1,2.259214083E1
1.566040012E1,1.174906769E0,-1.573243423E1,-9.391769714E0,1.836015336E1
1.567043313E1,4.442761230E-1,-1.035890854E1,-8.180638275E0,1.320708938E1
1.568046612E1,-6.497987366E-1,-5.717660065E0,-7.539371796E0,9.484513803E0
1.569049912E1,-1.539548492E0,-2.691253510E0,-7.084467773E0,7.733223044E0
1.570053212E1,-2.386786652E0,-1.702858887E0,-6.493047638E0,7.124334814E0
1.571056512E1,-3.306923218E0,-2.452949066E0,-6.051615601E0,7.319477554E0
1.572059812E1,-3.812122650E0,-3.696712646E0,-5.515131226E0,7.656019588E0
1.573063112E1,-3.819906464E0,-5.143154755E0,-5.141208801E0,8.214362675E0
1.574066412E1,-3.680097198E0,-6.537205811E0,-5.035528564E0,9.035193585E0
1.575069812E1,-3.521576843E0,-7.424111481E0,-5.035378876E0,9.637114462E0
1.576073112E1,-3.254083099E0,-7.810308380E0,-5.061275024E0,9.859334596E0
1.577076412E1,-2.930755463E0,-7.775281219E0,-5.125940552E0,9.763175312E0
1.578079712E1,-2.722837830E0,-7.331903229E0,-5.279521179E0,9.436312558E0
1.579083012E1,-2.606080627E0,-6.595285034E0,-5.406756592E0,8.917536530E0
1.580086312E1,-2.399809570E0,-5.827980652E0,-5.366490326E0,8.277902081E0
1.581089612E1,-2.196831665E0,-5.180876312E0,-5.298531647E0,7.729294039E0
1.582092912E1,-1.977537689E0,-4.727169800E0,-5.234464874E0,7.325053730E0
1.583096212E1,-1.819167023E0,-4.376598816E0,-5.103337555E0,6.964771357E0
1.584099512E1,-1.601519623E0,-4.137246552E0,-4.885540466E0,6.599256002E0
1.585102812E1,-1.462907867E0,-4.079466705E0,-4.738695831E0,6.421634232E0
1.586106212E1,-1.209035797E0,-4.163741455E0,-5.059029694E0,6.662754078E0
1.587109512E1,-9.859996033E-1,-4.266876984E0,-5.611081696E0,7.117771576E0
1.588112812E1,-1.118025055E0,-3.943549347E0,-5.907016296E0,7.189881988E0
1.589116112E1,-1.642234955E0,-3.136577454E0,-6.045029297E0,7.005528743E0
1.590119412E1,-2.084116058E0,-2.245480499E0,-6.152505798E0,6.873067002E0
1.591122712E1,-2.320474548E0,-1.353186035E0,-6.302643585E0,6.851206517E0
1.592126013E1,-2.535277863E0,-7.908055115E-1,-5.691913605E0,6.280994163E0
1.593129312E1,-2.740650787E0,-1.437161407E0,-6.173462219E0,6.905666906E0
1.594132612E1,-1.729503479E0,-3.148253174E0,-5.759123840E0,6.787502320E0
1.595135912E1,4.635859680E-1,-5.102738800E0,-4.093687134E0,6.558287090E0
1.596139212E1,1.155746613E0,-6.663992157E0,-5.752387848E0,8.878879865E0
1.597142612E1,-1.696571960E0,-8.023016052E0,-9.120384064E0,1.226493165E1
1.598145912E1,-4.148024139E0,-9.498198395E0,-1.267833527E1,1.637565456E1
1.599149212E1,-4.789739685E0,-1.094658646E1,-1.105765549E1,1.628008311E1
1.600152512E1,-6.549180908E0,-1.239168137E1,-8.902287598E0,1.660410377E1
1.601155812E1,-8.112080841E0,-1.528052399E1,-1.247490829E1,2.132893823E1
1.602159112E1,-6.742578735E0,-1.894086227E1,-1.458866272E1,2.484044508E1
1.603162413E1,-4.755610657E0,-2.076362183E1,-1.607896362E1,2.668851617E1
1.604165712E1,-3.140768738E0,-2.075643677E1,-1.716196152E1,2.711506996E1
1.605169012E1,-1.073567505E0,-1.998868332E1,-1.711660583E1,2.633777142E1
1.606172312E1,7.563771057E-1,-1.918964493E1,-1.568273758E1,2.479441140E1
1.607175712E1,4.096980286E-1,-1.801309158E1,-1.403601196E1,2.283963556E1
1.608179012E1,-2.634521484E-2,-1.747780472E1,-1.232447113E1,2.138613898E1
1.609182312E1,-1.017134857E0,-1.734952148E1,-9.921218719E0,2.001177253E1
1.610185612E1,-2.262095947E0,-1.789184372E1,-7.879015503E0,1.968029560E1
1.611188912E1,-3.109932861E0,-1.911824341E1,-5.574857025E0,2.015584144E1
1.612192212E1,-3.949237518E0,-2.000365219E1,-3.824995880E0,2.074543736E1
1.613195512E1,-4.337530060E0,-2.043849792E1,-2.856060791E0,2.108799297E1
1.614198813E1,-4.499493256E0,-2.059043198E1,-2.403551788E0,2.121292978E1
1.615202112E1,-4.266577606E0,-1.999092865E1,-2.102378082E0,2.054898796E1
1.616205412E1,-3.846401367E0,-1.829495544E1,-2.543061676E0,1.886709731E1
1.617208712E1,-3.589086456E0,-1.507889328E1,-4.126768341E0,1.604009916E1
1.618212112E1,-3.130589905E0,-1.101873642E1,-5.714965668E0,1.280132720E1
1.619215412E1,-1.554816742E0,-6.908284149E0,-6.419251099E0,9.557647705E0
1.620218712E1,-1.110390930E0,-3.231629791E0,-5.600902863E0,6.560984073E0
1.621222012E1,-2.508034515E0,1.092727661E-2,-3.514391785E0,4.317557892E0
1.622225312E1,-3.281625824E0,2.054926758E0,-1.905088348E0,4.315223476E0
1.623228612E1,-1.564546509E0,1.453178101E0,-2.757266235E0,3.487413004E0
1.624231912E1,7.132667542E-1,-3.058140564E-1,-2.883004761E0,2.985630277E0
1.625235212E1,-2.885998535E-1,-1.885179749E0,-2.766696625E0,3.360327778E0
1.626238512E1,-2.454745331E0,-3.556454315E0,-4.749772797E0,6.421408222E0
1.627241812E1,-4.766537933E0,-4.682861938E0,-6.580765228E0,9.378462070E0
1.628245212E1,-6.482270050E0,-5.174290009E0,-5.990392914E0,1.023122228E1
1.629248512E1,-6.830895081E0,-4.673581238E0,-1.861079865E0,8.483342941E0
1.630251812E1,-7.174430695E0,-2.850372620E0,1.610500946E0,7.886113945E0
1.631255113E1,-7.317533112E0,-5.107379150E-1,6.649921417E0,9.900939294E0
1.632258412E1,-5.708678741E0,2.147584076E0,1.175879745E1,1.324652588E1
1.633261712E1,-3.866908722E0,4.937931519E0,1.100107315E1,1.266332347E1
1.634265012E1,-2.616109772E0,7.163353729E0,8.842262421E0,1.167661217E1
1.635268312E1,-1.112785950E0,8.417745209E0,7.766748962E0,1.150735054E1
1.636271612E1,4.293072510E-1,7.896529083E0,5.510341187E0,9.638637677E0
1.637274912E1,2.252964935E0,5.774541779E0,1.997296600E0,6.512325043E0
1.638278212E1,2.728675690E0,2.779569855E0,-2.733316040E0,4.758434214E0
1.639281612E1,2.352208557E0,-4.670288086E-1,-7.232958984E0,7.620150699E0
1.640284912E1,2.207309875E0,-3.251987457E0,-5.692362671E0,6.917415130E0
1.641288212E1,1.493893433E0,-4.467010803E0,-7.809260559E-1,4.774489356E0
1.642291513E1,8.996292114E-1,-4.588707733E0,7.090754700E-1,4.729519997E0
1.643294812E1,9.731263733E-1,-3.974235535E0,1.391656036E0,4.321831735E0
1.644298112E1,1.230141907E0,-2.802771606E0,9.392967224E-1,3.201727053E0
1.645301412E1,1.286574554E0,-1.252295837E0,1.685494995E-1,1.803310257E0
1.646304712E1,1.015338593E0,8.397537231E-2,-9.430389404E-2,1.023160567E0
1.647308012E1,4.912783813E-1,9.580078125E-1,8.936416626E-2,1.080332991E0
1.648311312E1,-1.040336609E-1,1.392853546E0,3.585044861E-1,1.442008832E0
1.649314612E1,-7.979905701E-1,1.444196777E0,5.685177612E-1,1.745195040E0
