"Time (s)","Acceleration x (m/s^2)","Acceleration y (m/s^2)","Acceleration z (m/s^2)","Absolute acceleration (m/s^2)"
4.434291666E-3,2.776725769E0,3.600313110E0,7.328460388E0,8.624314010E0
1.446629166E-2,3.077749786E0,3.514092407E0,8.774902496E0,9.940840156E0
2.449929167E-2,3.575464783E0,3.101250916E0,1.049722092E1,1.151491870E1
3.453129167E-2,3.584745483E0,2.695893860E0,1.077579163E1,1.167201478E1
4.456329167E-2,3.234473877E0,2.727478180E0,9.906249847E0,1.077194247E1
5.459529167E-2,2.901117096E0,2.993924103E0,8.681945801E0,9.631004352E0
6.462829166E-2,2.999312897E0,3.286415863E0,7.987090759E0,9.142758111E0
7.466029167E-2,3.104693756E0,3.400179291E0,7.888146515E0,9.133630054E0
8.469229166E-2,2.906356201E0,3.269351349E0,8.079897766E0,9.188052706E0
9.472529167E-2,2.844235382E0,3.124003601E0,8.135881348E0,9.167422686E0
1.047572917E-1,2.604583740E0,3.039429474E0,7.969277802E0,8.918036592E0
1.147892917E-1,2.079775085E0,2.758014679E0,7.471862183E0,8.231696900E0
1.248212917E-1,2.118095398E0,2.388133850E0,7.433242493E0,8.089660398E0
1.348542917E-1,3.107537842E0,2.148332520E0,8.693322144E0,9.478711618E0
1.448862917E-1,3.671115875E0,2.171085205E0,9.473350067E0,1.038918015E1
1.549182917E-1,3.599115601E0,2.491119690E0,9.211993561E0,1.019902622E1
1.649502917E-1,3.736978912E0,2.951412506E0,8.644523621E0,9.869328032E0
1.749832917E-1,4.149521027E0,3.198997650E0,8.339757385E0,9.849043809E0
1.850152917E-1,4.672683105E0,2.552791443E0,7.730224915E0,9.386537636E0
1.950472917E-1,4.966821442E0,1.492097168E0,6.927144928E0,8.653381191E0
2.050802917E-1,5.033582611E0,2.016606445E0,7.353159027E0,9.136334229E0
2.151122917E-1,5.332960052E0,2.260748749E0,6.959178314E0,9.054369698E0
2.251442917E-1,5.473667450E0,2.152823181E0,6.186634827E0,8.536400499E0
2.351762917E-1,5.386548615E0,1.982776794E0,5.811065826E0,8.167912575E0
2.452092917E-1,5.081333313E0,1.939516754E0,5.628445587E0,7.826945330E0
2.552412917E-1,4.698130188E0,2.096839600E0,5.335055695E0,7.411611352E0
2.652732917E-1,4.250560913E0,2.082319794E0,5.311105499E0,7.114152474E0
2.753052917E-1,4.229754181E0,1.754651184E0,5.397176514E0,7.078074281E0
2.853382917E-1,4.944368134E0,1.319356384E0,5.237608337E0,7.322569126E0
2.953697083E-1,5.363197174E0,1.716480560E0,4.466561737E0,7.187514396E0
3.054017083E-1,6.050418091E0,1.436412964E0,3.782933350E0,7.278834110E0
3.154347083E-1,6.929240570E0,1.363065491E0,3.699556732E0,7.972392516E0
3.254667083E-1,8.086035004E0,1.806293793E0,3.260370026E0,8.903744833E0
3.354987083E-1,9.473649445E0,2.349963226E0,2.607427826E0,1.010302137E1
3.455307083E-1,1.062745010E1,2.824027405E0,2.169288940E0,1.120819526E1
3.555637083E-1,1.102592148E1,2.654280396E0,1.926793213E0,1.150342040E1
3.655957083E-1,1.088266937E1,2.086511078E0,1.623224487E0,1.119914635E1
3.756277083E-1,1.023960663E1,1.295106812E0,1.238823853E0,1.039526479E1
3.856597083E-1,9.518406372E0,6.397695923E-1,7.479945374E-1,9.569161971E0
3.956927083E-1,9.106762390E0,1.749861145E-1,4.617897034E-1,9.120142055E0
4.057247083E-1,8.878337402E0,-2.089654541E-1,1.811233521E-1,8.882643033E0
4.157567083E-1,9.355844421E0,-9.294172668E-1,-1.398092651E-1,9.402935070E0
4.257897083E-1,1.154100037E1,-2.643502808E0,-1.463955688E-1,1.184078664E1
4.358217083E-1,1.393437332E1,-3.969894562E0,8.831634521E-2,1.448912083E1
4.458537083E-1,1.479508347E1,-4.987478485E0,5.763015747E-1,1.562374987E1
4.558857083E-1,1.441322754E1,-5.806874542E0,8.857081604E-1,1.556423461E1
4.659187083E-1,1.322245377E1,-5.994135132E0,7.553292847E-1,1.453731275E1
4.759507083E-1,1.151345764E1,-6.368057556E0,8.933422852E-1,1.318749121E1
4.859827083E-1,1.025337799E1,-5.984704742E0,1.179846497E0,1.193065333E1
4.960157083E-1,9.933642883E0,-4.899012451E0,1.220561829E0,1.114304066E1
5.060477083E-1,9.655521240E0,-4.482428741E0,1.401086426E0,1.073705272E1
5.160797083E-1,7.888595581E0,-4.666096802E0,1.451531525E0,9.279512022E0
5.261117083E-1,7.017257538E0,-4.015699310E0,1.279988251E0,8.185726249E0
5.361447083E-1,7.392676849E0,-3.732787628E0,7.915539551E-1,8.319370898E0
5.461767083E-1,8.241262207E0,-3.552562408E0,2.591111755E-1,8.978097852E0
5.562087083E-1,8.872050476E0,-3.712280273E0,-1.404080200E-1,9.618420811E0
5.662407083E-1,9.969119110E0,-3.631897430E0,-4.716691589E-1,1.062056903E1
5.762737083E-1,1.164114212E1,-3.054997101E0,-1.048270111E0,1.208089680E1
5.863057083E-1,1.261187347E1,-2.835403748E0,-1.427281952E0,1.300522974E1
5.963377083E-1,1.202943466E1,-3.973187714E0,-1.223555603E0,1.272755307E1
6.063707083E-1,1.132020950E1,-5.429808655E0,-8.969348145E-1,1.258707501E1
6.164027083E-1,1.075648178E1,-6.356082458E0,-6.418652344E-1,1.251054257E1
6.264347083E-1,1.063987427E1,-5.826932831E0,-6.459068298E-1,1.214813839E1
6.364667083E-1,1.095182556E1,-4.174219666E0,-3.382965088E-1,1.172523081E1
6.464997083E-1,1.092982132E1,-2.516267395E0,-2.294728088E-1,1.121807708E1
6.565317083E-1,1.011910721E1,-1.383722534E0,-2.405497742E-1,1.021610899E1
6.665637083E-1,8.685987396E0,-5.646258545E-1,-7.120692444E-1,8.733396934E0
6.765967083E-1,6.386169891E0,-2.986289978E-1,-1.687590637E0,6.612133341E0
6.866287083E-1,4.473896484E0,-3.493734741E-1,-1.750908966E0,4.817000497E0
6.966607083E-1,4.201163635E0,-7.090754700E-1,-6.656657410E-1,4.312270260E0
7.066927083E-1,4.613855438E0,-7.162605286E-1,8.524772644E-1,4.746304735E0
7.167257083E-1,4.640050964E0,-7.882608032E-1,1.922901306E0,5.084188970E0
7.267577083E-1,4.711901550E0,-2.360142059E0,2.223476257E0,5.719801870E0
7.367897083E-1,6.805298309E0,-3.799399109E0,1.280437317E0,7.898546600E0
7.468217083E-1,8.536148987E0,-2.771187286E0,-3.475772095E-1,8.981432426E0
7.568547083E-1,8.257129211E0,-2.070195007E0,-1.642534332E0,8.669706409E0
7.668867083E-1,7.613617401E0,-2.496358795E0,-2.490221558E0,8.390481546E0
7.769187083E-1,6.571035461E0,-4.351301422E0,-2.915038147E0,8.402962484E0
7.869517083E-1,5.859265594E0,-5.342240753E0,-3.770958252E0,8.780128456E0
7.969837083E-1,4.729115753E0,-5.124293976E0,-4.396208038E0,8.243152896E0
8.070157083E-1,2.947520599E0,-4.688699799E0,-4.783901825E0,7.318298993E0
8.170477083E-1,1.012793884E0,-4.810696106E0,-4.430037689E0,6.617687089E0
8.270807083E-1,6.481521606E-2,-4.981940002E0,-2.743195496E0,5.687622414E0
8.371127083E-1,3.592529297E-3,-4.874014435E0,-1.567091217E0,5.119746527E0
8.471447083E-1,2.462379456E-1,-4.432283020E0,-1.789828033E0,4.786360860E0
8.571777083E-1,5.821394348E-1,-4.175566864E0,-2.142943726E0,4.729318425E0
8.672097083E-1,1.069825287E0,-4.298461304E0,-3.042273560E0,5.373706741E0
8.772417083E-1,1.858984222E0,-4.972808990E0,-3.680097198E0,6.459703320E0
8.872737083E-1,3.360811157E0,-6.631360016E0,-3.693868561E0,8.301484942E0
8.973067083E-1,5.424868927E0,-8.493038635E0,-2.780318298E0,1.045423732E1
9.073387083E-1,6.921456757E0,-1.080513062E1,-3.650608521E0,1.334107769E1
9.173707083E-1,6.800059204E0,-1.260334122E1,-5.255570984E0,1.525470555E1
9.274037083E-1,7.669900360E0,-1.478011459E1,-6.686146088E0,1.794390449E1
9.374357083E-1,8.751551056E0,-1.564471664E1,-6.659351807E0,1.912312138E1
9.474677083E-1,8.869356079E0,-1.569456299E1,-6.401737518E0,1.913026471E1
9.574997083E-1,8.973240051E0,-1.490106308E1,-6.740483093E0,1.865461954E1
9.675327083E-1,9.158704376E0,-1.409409119E1,-8.246651001E0,1.872251385E1
9.775647083E-1,9.290580139E0,-1.276740005E1,-1.073552536E1,1.909379188E1
9.875967083E-1,7.638166351E0,-1.034917877E1,-1.259301270E1,1.800086262E1
9.976297083E-1,3.708238678E0,-7.306306458E0,-1.266755768E1,1.508642322E1
1.007661708E0,-1.599423981E0,-6.186784515E0,-1.639989624E1,1.760088226E1
1.017693708E0,-1.775906982E0,-5.092559967E0,-1.500644394E1,1.594620244E1
1.027725708E0,2.785856781E0,-5.823939056E0,-1.015129028E1,1.203029337E1
1.037758708E0,5.288951569E0,-6.965914307E0,-7.825726318E0,1.173622440E1
1.047790708E0,5.940247192E0,-7.095844116E0,-6.344706116E0,1.122019769E1
1.057822708E0,6.952891388E0,-6.390510864E0,-5.415887604E0,1.088637526E1
1.067855708E0,7.286697235E0,-6.146218872E0,-4.173321533E0,1.040617969E1
1.077887708E0,7.188351746E0,-6.179150391E0,-3.215762787E0,1.000976676E1
1.087919708E0,7.269932098E0,-6.027216339E0,-2.658621368E0,9.810581894E0
1.097951708E0,7.091203766E0,-6.327940979E0,-2.263742523E0,9.769981479E0
1.107984708E0,6.756499786E0,-6.646478577E0,-2.197879486E0,9.729164459E0
1.118016708E0,6.587501221E0,-6.719975739E0,-2.442171478E0,9.722008424E0
1.128048708E0,6.947203217E0,-6.386169891E0,-2.816692657E0,9.847870630E0
1.138081708E0,7.265890503E0,-5.810167694E0,-3.159180450E0,9.825051377E0
1.148113708E0,7.380552063E0,-5.186265106E0,-3.266207886E0,9.593644170E0
1.158145708E0,7.595355377E0,-4.506229248E0,-3.251837769E0,9.411162214E0
1.168177708E0,7.609426117E0,-3.698059845E0,-3.437601471E0,9.132147410E0
1.178210708E0,7.483388214E0,-2.906805267E0,-3.646267548E0,8.817362591E0
1.188242708E0,6.856491852E0,-2.567610626E0,-3.972139893E0,8.329585834E0
1.198274708E0,6.358477478E0,-2.866089935E0,-4.324956207E0,8.206701746E0
1.208307708E0,6.615942078E0,-3.334765320E0,-4.362677765E0,8.597924551E0
1.218339708E0,6.812183990E0,-3.894301758E0,-4.422403564E0,9.007168822E0
1.228371708E0,6.944658508E0,-4.244872742E0,-4.523144073E0,9.311608814E0
1.238403708E0,7.324718170E0,-4.315825195E0,-4.528981934E0,9.632731738E0
1.248436708E0,8.363557892E0,-3.963308258E0,-4.381388855E0,1.023979889E1
1.258468708E0,1.068403244E1,-2.813249817E0,-3.833079071E0,1.169424726E1
1.268500708E0,1.241862534E1,-2.393971710E0,-2.998863831E0,1.299794369E1
1.278533708E0,1.071127579E1,-2.581531677E0,-3.001109161E0,1.141938663E1
1.288565708E0,8.014483795E0,-2.679727478E0,-2.921474762E0,8.941359217E0
1.298597792E0,6.799460449E0,-2.689756622E0,-2.862647095E0,7.852528349E0
1.308629792E0,6.880591736E0,-2.758164368E0,-2.540666656E0,7.836134275E0
1.318662792E0,5.443430328E0,5.734574890E-1,-1.879341888E0,5.787202534E0
1.328694792E0,4.537663879E0,3.439547424E0,-1.674268341E0,5.934985631E0
1.338726792E0,8.029752045E0,-3.863465881E-1,-1.610650635E0,8.198803391E0
1.348759792E0,1.119477036E1,-3.389551392E0,-1.931732941E0,1.185510582E1
1.358791792E0,1.214080307E1,-3.878734131E0,-2.175875244E0,1.292973746E1
1.368823792E0,1.232042953E1,-3.850143585E0,-2.340981903E0,1.311856645E1
1.378855792E0,1.155013138E1,-3.182232513E0,-2.990630951E0,1.234811776E1
1.388888792E0,1.067190765E1,-2.527943115E0,-3.932322693E0,1.165089143E1
1.398920792E0,1.027553192E1,-2.869532776E0,-4.543801117E0,1.159598651E1
1.408952792E0,9.799072723E0,-3.140169983E0,-4.582271118E0,1.126408906E1
1.418985792E0,9.033265228E0,-3.309467926E0,-4.156406708E0,1.047989386E1
1.429017792E0,8.295898590E0,-2.881208496E0,-3.402424622E0,9.418056547E0
1.439049792E0,7.749834137E0,-2.647993469E0,-2.699935455E0,8.623308531E0
1.449081792E0,7.586224365E0,-2.617456970E0,-2.199825439E0,8.321124508E0
1.459114792E0,7.769443359E0,-2.390079803E0,-1.946103058E0,8.358471672E0
1.469146792E0,8.517437897E0,-2.521207123E0,-2.124532013E0,9.133283635E0
1.479178792E0,9.945019226E0,-3.191363525E0,-2.350711670E0,1.070579534E1
1.489211792E0,1.094987961E1,-3.997736664E0,-2.538720703E0,1.193008234E1
1.499243792E0,1.134520752E1,-5.375022583E0,-2.513872375E0,1.280328691E1
1.509275792E0,1.104253693E1,-7.058721313E0,-2.038610687E0,1.326344985E1
1.519308792E0,9.128317566E0,-7.374863892E0,-1.603914642E0,1.184429572E1
1.529340792E0,7.785909119E0,-7.315886536E0,-1.383572845E0,1.077296851E1
1.539372792E0,8.166866913E0,-7.661517792E0,-1.490450592E0,1.129681429E1
1.549404792E0,1.011341904E1,-6.810238037E0,-1.901645508E0,1.234005034E1
1.559437792E0,1.063149170E1,-5.956712952E0,-2.359543304E0,1.241283568E1
1.569469792E0,8.741821289E0,-2.527943115E0,-2.862946472E0,9.539727373E0
1.579501792E0,8.225993958E0,-4.836442566E-1,-3.270848236E0,8.865626686E0
1.589534792E0,8.493038635E0,2.249821472E-1,-3.601660309E0,9.227907629E0
1.599566792E0,8.409961395E0,8.271798706E-1,-3.779041443E0,9.257042262E0
1.609598792E0,8.431815948E0,1.010997620E0,-3.716022491E0,9.269652611E0
1.619630792E0,8.810678101E0,1.078656921E0,-3.092868347E0,9.399860848E0
1.629663792E0,8.989705811E0,-2.993774414E-4,-2.295027466E0,9.278036523E0
1.639695792E0,9.420509949E0,-1.791474609E0,-1.773961029E0,9.752042181E0
1.649727792E0,9.931547241E0,-3.101400604E0,-1.646126862E0,1.053394750E1
1.659760792E0,9.768685913E0,-3.790717163E0,-1.422791290E0,1.057454945E1
1.669792792E0,9.453591156E0,-4.045337677E0,-1.278491364E0,1.036193432E1
1.679824792E0,9.136999512E0,-3.974235535E0,-1.192869415E0,1.003505085E1
1.689856792E0,8.795709229E0,-3.769461365E0,-1.214723969E0,9.646185471E0
1.699889792E0,8.505163422E0,-3.451073456E0,-1.264869690E0,9.265398435E0
1.709921792E0,8.479267273E0,-3.112028503E0,-1.294508057E0,9.124606622E0
1.719953792E0,8.624764709E0,-2.836900635E0,-1.333726501E0,9.176785815E0
1.729986792E0,8.825197906E0,-2.628084869E0,-1.393152924E0,9.312992174E0
1.740018792E0,8.946595459E0,-2.484683075E0,-1.447340240E0,9.397340797E0
1.750050792E0,8.966204681E0,-2.320624237E0,-1.528172150E0,9.386875591E0
1.760082792E0,8.996741180E0,-2.220931549E0,-1.679657135E0,9.417809560E0
1.770115792E0,9.056466980E0,-2.172432404E0,-1.929936676E0,9.511241364E0
1.780147792E0,9.160800018E0,-2.153871002E0,-2.234702911E0,9.672296231E0
1.790179792E0,9.248966675E0,-2.120789795E0,-2.507884827E0,9.814816361E0
1.800212792E0,9.369615784E0,-2.147284698E0,-2.745440826E0,9.996898361E0
1.810244792E0,9.633816376E0,-2.176923065E0,-2.972219238E0,1.031423769E1
1.820276792E0,9.881551208E0,-2.171384583E0,-3.293900299E0,1.064000679E1
1.830309792E0,1.011970596E1,-2.061213684E0,-3.544628906E0,1.091885730E1
1.840341792E0,1.024200165E1,-1.876048737E0,-3.742367706E0,1.106451412E1
1.850373792E0,1.015413437E1,-1.713786163E0,-3.927832031E0,1.102140519E1
1.860405792E0,1.011955627E1,-1.534459076E0,-4.007466431E0,1.099180472E1
1.870438792E0,9.971065063E0,-1.437610474E0,-3.933370514E0,1.081481696E1
1.880470792E0,9.752519531E0,-1.354533234E0,-3.743265839E0,1.053368106E1
1.890502792E0,9.681866455E0,-1.196312256E0,-3.578159180E0,1.039100208E1
1.900535792E0,9.685908051E0,-8.701405334E-1,-3.162174225E0,1.022610899E1
1.910567792E0,9.511071625E0,-7.047344971E-1,-2.380350037E0,9.829710090E0
1.920599792E0,9.979447632E0,-1.034947815E0,-1.659449158E0,1.016928038E1
1.930632792E0,1.010548553E1,-1.267713776E0,-1.577569427E0,1.030614678E1
1.940664792E0,9.608369293E0,-1.323847046E0,-1.445094910E0,9.806203688E0
1.950696792E0,9.211993561E0,-1.332379303E0,-1.608105927E0,9.445743202E0
1.960728792E0,9.021888885E0,-1.257984009E0,-2.446213074E0,9.431911854E0
1.970761792E0,8.262068939E0,-1.411414948E0,-1.267713776E0,8.477085202E0
1.980793792E0,6.772067413E0,-2.076631622E0,6.941065979E-1,7.117238222E0
1.990825792E0,5.837860107E0,-2.276466064E0,3.610491943E-1,6.276405412E0
2.000858792E0,6.291117554E0,-2.409090271E0,-1.820514221E0,6.978262537E0
2.010890792E0,7.422464905E0,-2.830913086E0,-3.111729126E0,8.531700435E0
2.020922792E0,8.550818481E0,-2.958597565E0,-3.655997314E0,9.758899150E0
2.030955792E0,9.226513367E0,-2.643502808E0,-3.925886078E0,1.036963054E1
2.040987792E0,9.301956482E0,-2.184407501E0,-3.716471558E0,1.025232614E1
2.051019792E0,9.251960449E0,-1.750310211E0,-2.974464569E0,9.874704930E0
2.061051792E0,9.214987335E0,-1.582359467E0,-2.295626221E0,9.627551756E0
2.071084792E0,9.498647461E0,-1.686542816E0,-1.744472351E0,9.803668397E0
2.081116792E0,1.016730698E1,-1.881886597E0,-1.426533508E0,1.043794166E1
2.091148792E0,9.959389343E0,-1.827699280E0,-1.350491638E0,1.021536825E1
2.101181792E0,1.016386414E1,-1.901346130E0,-1.276246033E0,1.041863980E1
2.111213792E0,1.085722229E1,-2.132914581E0,-1.284778290E0,1.113908684E1
2.121245792E0,1.092338470E1,-2.450703735E0,-1.377884674E0,1.127939929E1
2.131278792E0,1.047147446E1,-2.713108063E0,-1.315763855E0,1.089697055E1
2.141310792E0,1.019963974E1,-2.860401764E0,-1.140178986E0,1.065432106E1
2.151342792E0,1.045470932E1,-3.072959747E0,-9.256750488E-1,1.093621977E1
2.161374792E0,1.055664734E1,-3.033441925E0,-8.967851257E-1,1.102038096E1
2.171407792E0,1.007764343E1,-2.919528809E0,-7.387138367E-1,1.051799619E1
2.181439792E0,8.815767517E0,-3.367547150E0,-4.234693909E-1,9.446557947E0
2.191471792E0,7.867190094E0,-3.732937317E0,-4.215234375E-1,8.718095147E0
2.201504792E0,7.203919373E0,-3.847449188E0,-4.939727783E-1,8.181890288E0
2.211536792E0,6.860383759E0,-3.797752533E0,-7.006929016E-1,7.872659027E0
2.221568792E0,6.979685669E0,-3.693718872E0,-1.692081299E0,8.076057842E0
2.231601792E0,7.317084045E0,-3.504811707E0,-3.200195160E0,8.721506354E0
2.241633792E0,7.547305298E0,-3.294648743E0,-4.413871307E0,9.343382017E0
2.251665792E0,7.680228882E0,-3.310964813E0,-5.458848267E0,9.987363419E0
2.261697792E0,7.719297638E0,-3.477268982E0,-5.978717194E0,1.036455570E1
2.271730792E0,7.815846863E0,-3.421884155E0,-5.671256561E0,1.024499411E1
2.281762792E0,7.997568970E0,-3.152294769E0,-4.774920502E0,9.833510947E0
2.291794792E0,7.807164917E0,-3.220552826E0,-3.704496460E0,9.222097298E0
2.301828042E0,7.021897888E0,-3.657643890E0,-3.035836945E0,8.479487882E0
2.311860042E0,6.612648926E0,-3.841162262E0,-2.859054565E0,8.164303176E0
2.321892042E0,6.594237213E0,-3.644321594E0,-3.181633759E0,8.178498498E0
2.331925042E0,6.355034637E0,-3.377875671E0,-3.530707855E0,8.016383677E0
2.341957042E0,6.009553070E0,-2.998115387E0,-3.642974396E0,7.640332874E0
2.351989042E0,5.715564423E0,-2.432292023E0,-3.577710114E0,7.168244611E0
2.362021042E0,5.401218109E0,-1.767674103E0,-3.181035004E0,6.512819089E0
2.372054042E0,4.722679138E0,-1.283730469E0,-2.627336426E0,5.554688007E0
2.382086042E0,4.042194214E0,-1.093027039E0,-2.141596527E0,4.703241207E0
2.392118042E0,3.754791870E0,-1.066083069E0,-1.744921417E0,4.275481944E0
2.402151042E0,3.661086731E0,-1.213077393E0,-1.433868256E0,4.114740695E0
2.412183042E0,3.421884155E0,-1.589843903E0,-1.306483154E0,3.992967949E0
2.422215042E0,3.594325562E0,-1.872755585E0,-1.292113037E0,4.253932983E0
2.432248042E0,4.279151459E0,-1.892963562E0,-1.260079651E0,4.845848634E0
2.442280042E0,5.093308411E0,-1.830693054E0,-1.296603699E0,5.565465729E0
2.452312042E0,5.885910187E0,-1.771266632E0,-1.637893982E0,6.361133618E0
2.462345042E0,6.420598297E0,-1.772464142E0,-2.262395325E0,7.034496729E0
2.472377042E0,7.100334778E0,-1.894161072E0,-2.648741913E0,7.811429693E0
2.482409042E0,8.140821075E0,-2.046095123E0,-2.947969666E0,8.896628473E0
2.492441042E0,9.382489014E0,-2.251617737E0,-3.281476135E0,1.019161264E1
2.502474042E0,1.110450806E1,-2.773133240E0,-3.479514313E0,1.196274998E1
2.512506042E0,1.316422485E1,-3.414848785E0,-3.670816498E0,1.408662138E1
2.522538042E0,1.456171875E1,-4.273762665E0,-4.071832581E0,1.571268662E1
2.532571042E0,1.514236130E1,-5.249134369E0,-4.546345825E0,1.665874478E1
2.542603042E0,1.511017822E1,-5.659580841E0,-4.972210236E0,1.688405212E1
2.552635042E0,1.553589294E1,-5.463488617E0,-5.569318542E0,1.738479182E1
2.562668042E0,1.610021942E1,-5.529201965E0,-5.967939606E0,1.803899784E1
2.572700042E0,1.592074265E1,-6.379733276E0,-6.117328949E0,1.820968853E1
2.582732042E0,1.484193604E1,-7.242688751E0,-5.482798462E0,1.740116906E1
2.592764042E0,1.416983368E1,-7.745792542E0,-4.889282684E0,1.687265758E1
2.602797042E0,1.382674713E1,-7.394922180E0,-4.567751312E0,1.633181442E1
2.612829042E0,1.426578415E1,-6.765331421E0,-4.344864807E0,1.637559638E1
2.622861042E0,1.660422134E1,-7.001689911E0,-4.459676056E0,1.856374258E1
2.632894042E0,1.881168091E1,-8.159981232E0,-4.749473419E0,2.104809089E1
2.642926042E0,1.990949799E1,-9.160051575E0,-6.023324432E0,2.272828837E1
2.652958042E0,2.059252762E1,-9.642797699E0,-7.840096436E0,2.405208626E1
2.662991042E0,2.035826477E1,-1.003243744E1,-9.561816101E0,2.462797338E1
2.673023042E0,1.989797195E1,-1.033420990E1,-1.214828751E1,2.550109942E1
2.683055042E0,1.986369324E1,-1.011925690E1,-1.630170044E1,2.761722481E1
2.693087042E0,1.949605774E1,-1.002719833E1,-1.849239487E1,2.868117225E1
2.703120042E0,1.874941040E1,-9.810299377E0,-1.799393143E1,2.777703966E1
2.713152042E0,1.882006348E1,-9.224567413E0,-1.716270996E1,2.708959295E1
2.723184042E0,2.011442184E1,-8.290809174E0,-1.656395508E1,2.734395894E1
2.733217042E0,2.196262848E1,-7.564369812E0,-1.468117035E1,2.747932865E1
2.743249042E0,2.227472946E1,-6.338568878E0,-1.205757614E1,2.610988645E1
2.753281042E0,2.262140854E1,-4.593198395E0,-9.805958405E0,2.507952185E1
2.763314042E0,2.082185074E1,-1.999691620E0,-8.055947571E0,2.241531900E1
2.773346042E0,1.789633438E1,1.886077881E-2,-8.201445007E0,1.968610780E1
2.783378042E0,1.688129517E1,1.451980591E-1,-7.426356812E0,1.844315549E1
2.793411042E0,1.521031998E1,-1.298849030E0,-5.845344543E0,1.634652548E1
2.803443042E0,1.212733109E1,-2.380499725E0,-4.546794891E0,1.316860972E1
2.813475042E0,7.527097321E0,-2.023342438E0,-3.701352997E0,8.628506400E0
2.823507042E0,4.065545654E0,-1.340312805E0,-2.024390259E0,4.735320032E0
2.833540042E0,1.990560608E0,-3.415896606E-1,8.422984314E-1,2.188259966E0
2.843572042E0,-1.899100800E0,7.783813477E-2,1.498384094E-1,1.906592293E0
2.853604042E0,-2.501597900E0,-3.113525391E-2,1.049916687E0,2.713169090E0
2.863637042E0,-8.527317352E0,1.013692017E0,1.031894165E1,1.342472605E1
2.873669042E0,-1.000459534E1,9.741741943E-1,5.917195129E0,1.166422485E1
2.883701042E0,-7.274422760E0,-6.514453125E-1,3.442840576E-1,7.311644069E0
2.893734042E0,-5.433101807E0,-1.945953369E-1,1.035396881E0,5.534302963E0
2.903766042E0,-4.270319824E0,-3.487747192E-2,1.724563751E0,4.605536665E0
2.913798042E0,-4.137994995E0,-2.351609802E-1,2.420316925E0,4.799608034E0
2.923830042E0,-3.770359497E0,-5.031037903E-1,2.880010986E0,4.771078226E0
2.933863042E0,-2.830913086E0,-7.117698669E-1,2.956950989E0,4.155026401E0
2.943895042E0,-1.894460449E0,-7.798782349E-1,2.890938263E0,3.543263255E0
2.953927042E0,-1.278940430E0,-7.417076111E-1,2.778821411E0,3.147644713E0
2.963960042E0,-9.244775391E-1,-4.499642944E-1,2.237996063E0,2.462874939E0
2.973992042E0,-7.605683899E-1,-1.583706665E-1,1.567689972E0,1.749627787E0
2.984024042E0,-5.843847656E-1,9.565109253E-2,1.272204437E0,1.403267193E0
2.994057042E0,-2.353106689E-1,2.245330811E-1,1.182091827E0,1.226020923E0
3.004089042E0,2.513273621E-1,1.987866211E-1,1.015937347E0,1.065274733E0
3.014121042E0,7.038363647E-1,1.049317932E-1,7.424560547E-1,1.028414947E0
3.024154042E0,1.072070618E0,4.266128540E-2,5.617817688E-1,1.211096260E0
3.034186042E0,1.359173584E0,-1.121168518E-1,3.956272888E-1,1.420015483E0
3.044218042E0,1.268312531E0,-2.574645996E-1,1.745370483E-1,1.305897345E0
3.054250042E0,1.190474396E0,-3.737727356E-1,-1.255888367E-1,1.254076513E0
3.064283042E0,1.245110779E0,-4.321513367E-1,-4.893324280E-1,1.405881167E0
3.074315042E0,1.207987976E0,-4.147874451E-1,-7.803273010E-1,1.496727855E0
3.084347042E0,9.680369568E-1,-2.766247559E-1,-8.369096375E-1,1.309211422E0
3.094380042E0,4.989125061E-1,-1.838177490E-1,-6.891668701E-1,8.704330121E-1
3.104412042E0,1.023870850E-1,-1.540296936E-1,-4.423301697E-1,4.794415926E-1
3.114444042E0,-1.332229614E-1,-1.200503540E-1,-3.016227722E-1,3.509084520E-1
3.124477042E0,-2.881507874E-1,-1.255888367E-1,-2.179467773E-1,3.824973593E-1
3.134509042E0,-3.740721130E-1,-1.660047913E-1,-1.745370483E-1,4.449165289E-1
3.144541042E0,-3.758683777E-1,-1.927990723E-1,-1.661544800E-1,4.539337296E-1
3.154574042E0,-3.739224243E-1,-2.333647156E-1,-1.417552185E-1,4.630028206E-1
3.164606042E0,-3.462300110E-1,-2.695893860E-1,-1.219963074E-1,4.554522550E-1
3.174638042E0,-3.276686096E-1,-2.829116821E-1,-1.300794983E-1,4.520247930E-1
3.184670042E0,-3.336561584E-1,-2.722837830E-1,-1.525328064E-1,4.568710404E-1
3.194703042E0,-3.246748352E-1,-2.764750671E-1,-1.573228455E-1,4.545356851E-1
3.204735042E0,-3.028202820E-1,-2.838098145E-1,-1.504371643E-1,4.414515538E-1
3.214767042E0,-2.630030823E-1,-2.956352234E-1,-1.749861145E-1,4.326556909E-1
3.224800042E0,-1.222956848E-1,-3.514691162E-1,-3.168910217E-1,4.887808239E-1
3.234832042E0,3.411405945E-1,-4.170327759E-1,-4.784051514E-1,7.205308669E-1
3.244864042E0,1.625769196E0,-5.432203674E-1,-6.593788147E-1,1.836571334E0
3.254897042E0,6.033652954E0,-1.081351318E0,-1.186432800E0,6.243549586E0
3.264929042E0,1.475736191E1,-2.236199799E0,-2.921175385E0,1.520899687E1
3.274961042E0,1.745220795E1,-3.553610229E0,-3.007994843E0,1.806255078E1
3.284994042E0,1.467847595E1,-3.858975220E0,-2.714155884E0,1.541804100E1
3.295026458E0,1.320314392E1,-4.368515625E0,-4.917274475E0,1.475081443E1
3.305058458E0,1.383662659E1,-5.916596375E0,-1.129236740E1,1.881424751E1
3.315090458E0,1.745714767E1,-8.917855225E0,-2.293171326E1,3.016858664E1
3.325123458E0,2.310116089E1,-1.216520233E1,-3.587799133E1,4.437213139E1
3.335155458E0,3.095847153E1,-1.216475327E1,-4.504837143E1,5.599789237E1
3.345187458E0,3.513748123E1,-1.261905853E1,-4.166600510E1,5.594585960E1
3.355220458E0,3.630131104E1,-1.118803436E1,-2.747805908E1,4.688284363E1
3.365252458E0,3.396422104E1,-7.057374115E0,-1.391745850E1,3.737740616E1
3.375284458E0,2.565679642E1,-2.524051208E0,-8.268505554E0,2.707416150E1
3.385317458E0,1.883952301E1,-7.920030212E-1,-6.172564087E0,1.984075209E1
3.395349458E0,1.494312561E1,-1.098565521E0,-6.030359802E0,1.615144231E1
3.405381458E0,1.269150787E1,-1.580563202E0,-7.062463531E0,1.460996041E1
3.415414458E0,1.179711777E1,-2.413431244E0,-9.508377228E0,1.534294220E1
3.425446458E0,1.110989685E1,-2.964435425E0,-1.102921463E1,1.593302422E1
3.435478458E0,1.049766998E1,-3.041076050E0,-1.104388412E1,1.553758653E1
3.445510458E0,9.968520355E0,-2.646197205E0,-9.778265991E0,1.421225681E1
3.455543458E0,9.983788605E0,-2.117945709E0,-8.545429688E0,1.331112683E1
3.465575458E0,1.020652542E1,-1.724863129E0,-7.277416534E0,1.265342268E1
3.475607458E0,1.009545639E1,-1.285676422E0,-5.847589874E0,1.173735536E1
3.485640458E0,9.915231171E0,-9.747729492E-1,-4.805606689E0,1.106145773E1
3.495672458E0,9.611063690E0,-8.170010376E-1,-3.920497284E0,1.041202838E1
3.505704458E0,9.271270294E0,-8.396040344E-1,-3.050805817E0,9.796366874E0
3.515737458E0,8.812624054E0,-9.812095642E-1,-2.118843842E0,9.116721678E0
3.525769458E0,8.367898865E0,-1.113833771E0,-1.312470703E0,8.543122171E0
3.535801458E0,7.862400055E0,-1.095721436E0,-8.596623230E-1,7.984795514E0
3.545834458E0,7.465575256E0,-8.376580811E-1,-5.694158936E-1,7.533971027E0
3.555866458E0,7.169490967E0,-3.644920349E-1,-2.480342102E-1,7.183033909E0
3.565898458E0,6.558461609E0,8.412506104E-2,1.989363098E-1,6.562017324E0
3.575930458E0,5.376220093E0,2.866539001E-1,4.231700134E-1,5.400461629E0
3.585963458E0,4.253105621E0,3.848497009E-1,4.284091187E-1,4.291916948E0
3.595995458E0,3.720962219E0,4.590953064E-1,5.962101746E-1,3.796286990E0
3.606027458E0,4.172273712E0,6.256988525E-1,1.291514282E0,4.412184960E0
3.616060458E0,5.780229950E0,9.499246216E-1,2.715353394E0,6.456512922E0
3.626092458E0,4.462669830E0,8.080197144E-1,2.904859314E0,5.385770651E0
3.636124458E0,2.138752441E0,6.153703308E-1,1.918260956E0,2.938140185E0
3.646157458E0,6.553372192E-1,7.767347717E-1,7.473957825E-1,1.261500786E0
3.656189458E0,4.839436340E-1,8.436456299E-1,-5.727090454E-1,1.128687309E0
3.666221458E0,2.161355438E0,9.159452820E-1,-1.530118103E0,2.802083956E0
3.676254458E0,4.459376678E0,1.112636261E0,-1.616189117E0,4.871967475E0
3.686286458E0,6.176755371E0,1.112187195E0,-1.204994202E0,6.390718136E0
3.696318458E0,7.539970551E0,7.867639160E-1,-1.159788208E0,7.669110903E0
3.706351458E0,9.055419159E0,3.411405945E-1,-2.010768585E0,9.282250985E0
3.716383458E0,1.032388138E1,-2.487826538E-1,-3.194506989E0,1.080968521E1
3.726415458E0,1.137275024E1,-1.042282562E0,-3.503913574E0,1.194584494E1
3.736447458E0,1.186462738E1,-2.602637787E0,-2.766996002E0,1.245790405E1
3.746480458E0,1.166090103E1,-4.664001160E0,-2.154769135E0,1.274254879E1
3.756512458E0,1.082997894E1,-6.170618134E0,-2.358345795E0,1.268569143E1
3.766544458E0,1.070888077E1,-6.504873047E0,-4.055965576E0,1.316982754E1
3.776577458E0,1.214394653E1,-5.506299591E0,-6.212680664E0,1.471027442E1
3.786609458E0,1.240096207E1,-5.001998291E0,-6.871909790E0,1.503419407E1
3.796641458E0,1.169248535E1,-4.669988708E0,-7.082222443E0,1.444579119E1
3.806674458E0,1.113220047E1,-4.482129364E0,-7.377258911E0,1.408684919E1
3.816706458E0,1.114612152E1,-3.962709503E0,-7.264243927E0,1.388194264E1
3.826738458E0,1.137783966E1,-3.148702240E0,-6.650220795E0,1.354972316E1
3.836771458E0,1.126796814E1,-2.678979034E0,-5.989794159E0,1.303923574E1
3.846803458E0,1.175759995E1,-2.274969177E0,-5.047503662E0,1.299591992E1
3.856835458E0,1.267234772E1,-2.084265747E0,-3.871100006E0,1.341335065E1
3.866868458E0,1.223585541E1,-2.676134949E0,-3.523971863E0,1.301138861E1
3.876900458E0,1.036025574E1,-3.583098907E0,-3.483106842E0,1.150241409E1
3.886932458E0,8.619525604E0,-4.142635345E0,-3.537593536E0,1.019667678E1
3.896964458E0,7.516469421E0,-3.812871094E0,-3.402723999E0,9.089214991E0
3.906997458E0,7.004384308E0,-2.694696350E0,-3.293900299E0,8.195887208E0
3.917029458E0,6.744973755E0,-1.780697021E0,-3.163371735E0,7.659795922E0
3.927061458E0,6.675518188E0,-1.461860046E0,-2.664758606E0,7.334883524E0
3.937094458E0,6.206543427E0,-2.087708588E0,-2.186054077E0,6.903516559E0
3.947126458E0,5.046755219E0,-3.004701691E0,-1.351539459E0,6.026991737E0
3.957158458E0,4.019591217E0,-3.099155273E0,-3.670367432E-1,5.088869514E0
3.967191458E0,4.250261536E0,-2.269730072E0,6.004014587E-1,4.855602911E0
3.977223458E0,4.301305389E0,-1.538051605E0,1.357826385E0,4.765555926E0
3.987255458E0,4.148922272E0,-6.554869080E-1,2.118245087E0,4.704272670E0
3.997288458E0,4.060156860E0,1.392105103E-1,2.164049835E0,4.602973494E0
4.007320458E0,3.720662842E0,3.373983765E-1,1.188528442E0,3.920429760E0
4.017352458E0,2.427951050E0,5.078938293E-1,5.484594727E-1,2.540415367E0
4.027385458E0,1.255738678E0,9.303153992E-1,2.267784119E-1,1.579175360E0
4.037417458E0,1.229094086E0,1.519041138E0,-1.658551025E-1,1.961037013E0
4.047449458E0,1.252595215E0,2.405348053E0,-1.257235565E0,2.989203120E0
4.057481458E0,1.123114471E0,3.452869720E0,-2.367177429E0,4.334423192E0
4.067514458E0,9.559121704E-1,4.866230621E0,-4.967869263E0,7.019522316E0
4.077546458E0,1.461860046E0,5.016518097E0,-9.915829926E0,1.120830816E1
4.087578458E0,2.819985809E0,2.980302429E0,-1.697410217E1,1.746295127E1
4.097611458E0,6.488107910E0,-2.643203430E0,-2.008253815E1,2.126947125E1
4.107643458E0,9.729766846E0,-7.380252686E0,-1.224289078E1,1.729233550E1
4.117675458E0,1.053883438E1,-5.847440186E0,-6.877747650E0,1.387670709E1
4.127708458E0,1.561358139E1,-2.352208557E0,-9.018296356E0,1.818368714E1
4.137740458E0,2.544094528E1,-5.186714172E-1,-1.222792191E1,2.823176918E1
4.147772458E0,3.148971680E1,-1.273551636E0,-1.447564774E1,3.468095407E1
4.157805458E0,2.519829987E1,-3.224893799E0,-1.374816055E1,2.888539726E1
4.167837458E0,2.205887833E1,-6.158942413E0,-1.111289062E1,2.545629633E1
4.177869458E0,2.209345642E1,-9.091344452E0,-1.015593063E1,2.595989768E1
4.187902458E0,2.178419952E1,-9.911938019E0,-1.124955643E1,2.644523367E1
4.197934458E0,2.199121902E1,-9.351054382E0,-1.345671661E1,2.742515550E1
4.207966458E0,2.168480621E1,-8.163723450E0,-1.586924973E1,2.808398633E1
4.217999458E0,2.116823044E1,-7.177274780E0,-1.725521759E1,2.823738280E1
4.228031458E0,2.091869934E1,-6.372697906E0,-1.789214310E1,2.825477031E1
4.238063458E0,2.043206131E1,-5.848188629E0,-1.817056412E1,2.796139911E1
4.248095458E0,1.914922897E1,-5.154082031E0,-1.851065689E1,2.712751279E1
4.258128458E0,1.669912399E1,-4.595743103E0,-1.798480042E1,2.496867323E1
4.268160458E0,1.436787186E1,-3.725901947E0,-1.655168060E1,2.223232372E1
4.278192458E0,1.358006012E1,-2.095941467E0,-1.518083130E1,2.047605046E1
4.288225458E0,1.268776566E1,-1.311422882E0,-1.373453888E1,1.874397998E1
4.298257042E0,1.229363525E1,-8.324189758E-1,-9.720186768E0,1.569421613E1
4.308289042E0,1.432580933E1,-2.850073242E-1,-4.020639038E0,1.488205565E1
4.318322042E0,1.472428070E1,-8.818162537E-1,1.773961029E0,1.485695055E1
4.328354042E0,1.322260345E1,-3.874243469E0,2.780917053E0,1.405633324E1
4.338386042E0,1.332633774E1,-6.476132812E0,-8.553213501E-1,1.484126505E1
4.348419042E0,1.380144974E1,-6.741231537E0,-2.718047791E0,1.559846150E1
4.358451042E0,1.019679565E1,-4.767436066E0,-3.210972748E0,1.170527378E1
4.368483042E0,1.399290161E0,-6.575825500E-1,-1.224004669E0,1.971957199E0
4.378516042E0,-5.194647675E0,2.433040466E0,-6.048921204E-1,5.768010476E0
4.388548042E0,-8.969048767E0,3.247047729E0,-1.951940918E0,9.736386809E0
4.398580042E0,-7.153474274E0,2.076631622E0,-4.957690430E-1,7.465278295E0
4.408613042E0,-2.865042114E0,1.421144714E0,3.533252563E0,4.765710051E0
4.418645042E0,4.378395081E-1,1.720372467E0,5.319039001E0,5.607455819E0
4.428677042E0,1.269959106E0,2.343077545E0,5.002147980E0,5.667829649E0
4.438709042E0,5.089416504E-3,2.664159851E0,3.980672150E0,4.789939914E0
4.448742042E0,-1.075962524E0,1.725910950E0,3.182232513E0,3.776647684E0
4.458774042E0,-1.202599182E0,9.340576172E-2,2.569107513E0,2.838183018E0
4.468806042E0,-9.798623657E-1,-6.521937561E-1,2.122136993E0,2.426716376E0
4.478839042E0,-1.523531799E0,-3.888912964E-1,2.249821472E0,2.744828272E0
4.488871042E0,-1.910626831E0,7.286846924E-1,2.464475098E0,3.202360657E0
4.498903042E0,-1.547631683E0,1.347797241E0,1.697619781E0,2.663387721E0
4.508936042E0,-1.009949799E0,1.177601166E0,7.464976501E-1,1.721627673E0
4.518968042E0,-3.436853027E-1,9.442364502E-1,-4.260140991E-1,1.091416545E0
4.529000042E0,5.026547241E-1,6.529421997E-1,-1.556313629E0,1.760996139E0
4.539033042E0,1.196761322E0,2.384541321E-1,-2.366728363E0,2.662799500E0
4.549065042E0,1.394949188E0,-1.199006653E-1,-2.701432343E0,3.042695533E0
4.559097042E0,1.416803741E0,-5.198689270E-1,-2.597698059E0,3.004268921E0
4.569130042E0,1.503323822E0,-9.276210022E-1,-2.474653931E0,3.040456432E0
4.579162042E0,1.351539459E0,-1.157842255E0,-2.219284973E0,2.844729054E0
4.589194042E0,6.444099426E-1,-1.145118713E0,-1.784588928E0,2.216149518E0
4.599227042E0,-1.567240906E-1,-9.126521301E-1,-1.449136505E0,1.719736306E0
4.609259042E0,-5.198689270E-1,-6.256988525E-1,-1.045575714E0,1.324760857E0
4.619291042E0,-5.369334412E-1,-3.616479492E-1,-7.116201782E-1,9.620239277E-1
4.629324042E0,-3.662882996E-1,-2.116598511E-1,-7.030879211E-1,8.205483751E-1
4.639356042E0,-1.118174744E-1,-2.041754150E-1,-6.725514221E-1,7.116994893E-1
4.649388042E0,1.791773987E-1,-2.787203979E-1,-4.114942932E-1,5.283153923E-1
4.659421042E0,2.561174011E-1,-3.757186890E-1,-4.924758911E-2,4.573685401E-1
4.669453042E0,1.689985657E-1,-4.478686523E-1,2.058219910E-1,5.210657702E-1
4.679485042E0,-6.900650024E-2,-5.093907166E-1,4.050576782E-1,6.544558976E-1
4.689517042E0,-4.387376404E-1,-5.539979553E-1,5.146298218E-1,8.742129632E-1
4.699550042E0,-7.056326294E-1,-5.739065552E-1,7.117698669E-1,1.154946962E0
4.709582042E0,-8.177494812E-1,-6.462062073E-1,9.315129089E-1,1.397860142E0
4.719614042E0,-7.044351196E-1,-7.206015015E-1,9.871971130E-1,1.410692561E0
4.729647042E0,-2.496807861E-1,-7.105723572E-1,7.435038757E-1,1.058324895E0
4.739679042E0,5.421725464E-1,-6.002517700E-1,2.866539001E-1,8.581513363E-1
4.749711042E0,1.296154633E0,-6.352789307E-1,2.017803955E-1,1.457501794E0
4.759744042E0,1.932631073E0,-8.424481201E-1,6.113287354E-1,2.195109228E0
4.769776042E0,3.106190643E0,-9.583071899E-1,6.572831726E-1,3.316442997E0
4.779808042E0,5.965694275E0,-1.165177002E0,3.814068604E-1,6.090370828E0
4.789841042E0,1.025921585E1,-1.776505737E0,-5.281018066E-1,1.042527573E1
4.799873042E0,1.549697388E1,-3.811523895E0,-2.518063660E0,1.615625447E1
4.809905042E0,2.107976440E1,-8.294850769E0,-4.206103363E0,2.304023268E1
4.819938042E0,2.341760284E1,-1.219693634E1,-5.832471313E0,2.704010171E1
4.829970042E0,2.490700562E1,-1.426069473E1,-9.452243958E0,3.021706900E1
4.840002042E0,2.468052658E1,-1.309596680E1,-1.780562302E1,3.313114773E1
4.850035042E0,2.384301819E1,-7.429949341E0,-2.713362534E1,3.687719197E1
4.860067042E0,2.011621811E1,-3.369044037E0,-3.815176300E1,4.326164247E1
4.870099042E0,1.408705582E1,-2.370769958E0,-5.055556915E1,5.253504796E1
4.880132042E0,8.559650116E0,-4.676275635E0,-4.682876907E1,4.783376189E1
4.890164042E0,5.063969421E0,-5.705684967E0,-3.307701599E1,3.394536219E1
4.900196042E0,2.387535095E0,-4.428540802E0,-2.355322083E1,2.408456993E1
4.910229042E0,-2.378553772E-1,-3.696712646E0,-1.763752258E1,1.802233233E1
4.920261042E0,-1.529070282E0,-3.752247162E0,-1.368678818E1,1.427394778E1
4.930293042E0,-1.966760101E0,-4.072281647E0,-1.140119110E1,1.226534882E1
4.940325042E0,-2.015109558E0,-4.370311890E0,-1.090063202E1,1.191570690E1
4.950358042E0,-1.653910675E0,-4.442611542E0,-1.137649246E1,1.232464192E1
4.960390042E0,-5.162763977E-1,-3.914060669E0,-1.206341400E1,1.269300475E1
4.970422042E0,1.243464203E0,-3.604504395E0,-1.215846634E1,1.274232941E1
4.980455042E0,2.409838715E0,-3.582200775E0,-1.159054733E1,1.236851941E1
4.990487042E0,3.230731659E0,-3.373684387E0,-1.093895233E1,1.189453873E1
5.000519042E0,3.616329803E0,-2.891387329E0,-1.005668701E1,1.107135563E1
5.010552042E0,3.722010040E0,-2.390678558E0,-8.886420593E0,9.926589226E0
5.020584042E0,3.762425995E0,-2.115850067E0,-7.743547211E0,8.865393070E0
5.030616042E0,3.721411285E0,-2.016157379E0,-6.610702972E0,7.849534147E0
5.040649042E0,3.340603180E0,-1.818867645E0,-5.413492584E0,6.616177981E0
5.050681042E0,2.795436859E0,-1.440304871E0,-4.510270844E0,5.498316873E0
5.060713042E0,2.424059143E0,-9.818083191E-1,-3.706143036E0,4.536023204E0
5.070746042E0,2.390678558E0,-6.445596313E-1,-2.950963440E0,3.852140484E0
5.080778042E0,2.451152802E0,-5.034031677E-1,-2.863096161E0,3.802483982E0
5.090810042E0,2.652184753E0,-5.715115356E-1,-3.256178741E0,4.238326250E0
5.100843042E0,3.144960022E0,-7.411088562E-1,-3.664379883E0,4.885457584E0
5.110875042E0,3.898043976E0,-1.023272095E0,-4.096381531E0,5.746492344E0
5.120907042E0,4.326153717E0,-1.265019379E0,-3.980073395E0,6.013057811E0
5.130940042E0,4.236190796E0,-1.485810242E0,-3.517834625E0,5.703341563E0
5.140972042E0,4.570894775E0,-1.580114136E0,-3.138523407E0,5.765428770E0
5.151004042E0,4.144581299E0,-1.372046814E0,-2.676733704E0,5.121032115E0
5.161037042E0,3.263363800E0,-9.123527527E-1,-2.162552948E0,4.019771895E0
5.171069042E0,2.837798767E0,-7.653584290E-1,-1.775008850E0,3.433588762E0
5.181101042E0,2.619702301E0,-6.288423157E-1,-1.577569427E0,3.122019875E0
5.191134042E0,2.537223816E0,-4.342469788E-1,-1.522933044E0,2.990886188E0
5.201166042E0,2.532134399E0,-3.225791931E-1,-1.531016235E0,2.976537026E0
5.211198042E0,2.333347778E0,-2.923420715E-1,-1.426084442E0,2.750216824E0
5.221231042E0,1.897005157E0,-3.176394653E-1,-1.174308014E0,2.253557789E0
5.231263042E0,1.905986481E0,-3.974235535E-1,-1.072369995E0,2.222770198E0
5.241295042E0,2.704875183E0,-5.665718079E-1,-1.135239258E0,2.987661551E0
5.251328042E0,3.316054230E0,-7.863148499E-1,-1.179098053E0,3.606213931E0
5.261360042E0,3.441942444E0,-8.746311951E-1,-1.291514282E0,3.778882990E0
5.271392042E0,3.453019409E0,-9.942324829E-1,-1.577419739E0,3.924295389E0
5.281425042E0,3.451971588E0,-1.285077667E0,-1.920356598E0,4.153950158E0
5.291457042E0,3.721261597E0,-1.739981689E0,-2.386786652E0,4.751007753E0
5.301489292E0,4.483326874E0,-2.248923340E0,-3.385360107E0,6.051325400E0
5.311522292E0,5.338199158E0,-2.694097595E0,-4.331991577E0,7.383812235E0
5.321554292E0,6.509962463E0,-3.236868896E0,-5.497168579E0,9.114592361E0
5.331586292E0,7.972121887E0,-3.876937866E0,-7.685168610E0,1.173231397E1
5.341618292E0,1.016251694E1,-4.919220428E0,-1.040112076E1,1.535118214E1
5.351651292E0,1.258043884E1,-6.148015137E0,-1.194710587E1,1.840648989E1
5.361683292E0,1.409708496E1,-6.706503754E0,-1.353006409E1,2.065835500E1
5.371715292E0,1.485989868E1,-7.553592224E0,-1.513562531E1,2.251578330E1
5.381748292E0,1.612207397E1,-8.578361206E0,-1.707334579E1,2.500017374E1
5.391780292E0,1.805994415E1,-8.662785645E0,-2.007879593E1,2.836130258E1
5.401812292E0,1.899954025E1,-8.241711273E0,-2.196038315E1,3.018553896E1
5.411845292E0,1.760384262E1,-7.981252899E0,-2.006247986E1,2.785854933E1
5.421877292E0,1.533096909E1,-7.301965485E0,-1.705283844E1,2.406567290E1
5.431909292E0,1.346060852E1,-7.050638123E0,-1.634196671E1,2.231500292E1
5.441942292E0,1.253747818E1,-7.757468262E0,-1.601354965E1,2.176695765E1
5.451974292E0,1.234527786E1,-8.621172180E0,-1.607297607E1,2.202432871E1
5.462006292E0,1.276650192E1,-9.051676941E0,-1.636666534E1,2.264473805E1
5.472039292E0,1.324355988E1,-8.884324951E0,-1.594574066E1,2.255193458E1
5.482071292E0,1.316946396E1,-8.303083649E0,-1.495749573E1,2.158941077E1
5.492103292E0,1.483205658E1,-7.767198029E0,-1.536419998E1,2.272395011E1
5.502136292E0,1.869432495E1,-7.710316315E0,-1.670361465E1,2.622856278E1
5.512168292E0,2.148976181E1,-7.806865540E0,-1.684252579E1,2.839767045E1
5.522200292E0,2.413086960E1,-7.163952484E0,-1.481753677E1,2.920925331E1
5.532233292E0,2.662243835E1,-6.158942413E0,-1.332094894E1,3.039958020E1
5.542265292E0,2.980781433E1,-5.721252594E0,-1.580623077E1,3.422097979E1
5.552297292E0,3.189297821E1,-5.115761719E0,-1.810619797E1,3.702927871E1
5.562330292E0,2.983101608E1,-3.377426605E0,-1.506856476E1,3.359104308E1
5.572362292E0,2.433115311E1,-8.250842285E-1,-9.254505157E0,2.604480066E1
5.582394292E0,1.806817703E1,9.636959839E-1,-6.942862244E0,1.938017202E1
5.592427292E0,1.359383148E1,7.030879211E-1,-5.381459198E0,1.463716810E1
5.602459292E0,8.965007172E0,2.230361938E-2,-3.188818817E0,9.515272802E0
5.612491292E0,5.002746735E0,-2.995271301E-1,-1.273252258E0,5.170915074E0
5.622524292E0,-1.360670471E0,-3.041525116E0,7.153773651E0,7.891690352E0
5.632556292E0,-5.042264557E0,-2.835403748E0,9.046288147E0,1.073775002E1
5.642588292E0,-3.597019958E0,-3.289110260E0,6.313271484E0,7.975850783E0
5.652621292E0,-3.946393433E0,-3.564387817E0,6.702312469E0,8.555692495E0
5.662653292E0,-3.747906189E0,-1.979783020E0,3.914509735E0,5.769725130E0
5.672685292E0,-2.505489807E0,-1.307680664E0,4.005520477E0,4.902214009E0
5.682718292E0,-1.964963837E0,-1.262474670E0,5.045557709E0,5.559908072E0
5.692750292E0,-2.086660767E-1,-6.212081909E-1,5.305866394E0,5.346181753E0
5.702782292E0,7.183561707E-1,-1.920506287E-1,5.354964294E0,5.406344572E0
5.712815292E0,3.770658875E-1,-5.863307190E-1,5.406906281E0,5.451660107E0
5.722847292E0,-8.972341919E-1,-1.426982574E0,5.305567017E0,5.566897685E0
5.732879292E0,-1.683848419E0,-1.773062897E0,4.890180817E0,5.467446017E0
5.742912292E0,-2.289189606E0,-1.554667053E0,3.951782227E0,4.824309429E0
5.752944292E0,-2.843337250E0,-1.121767273E0,2.697241058E0,4.076522765E0
5.762976292E0,-3.296744385E0,-8.252339172E-1,1.598974915E0,3.755829513E0
5.773009292E0,-3.730841675E0,-5.016069031E-1,9.566606140E-1,3.884068565E0
5.783041292E0,-4.068988495E0,-3.204835510E-1,7.310797119E-1,4.146547313E0
5.793073292E0,-4.259242859E0,-1.354682922E-1,1.027014313E0,4.383407326E0
5.803106292E0,-4.226461029E0,3.802093506E-2,1.417552185E0,4.458012182E0
5.813138292E0,-3.523223419E0,1.172062683E-1,1.617236938E0,3.878439878E0
5.823170292E0,-2.618055725E0,2.312690735E-1,1.655856628E0,3.106374468E0
5.833203292E0,-1.962119751E0,2.067201233E-1,1.369651794E0,2.401789575E0
5.843235292E0,-1.606908417E0,8.277786255E-2,8.890013123E-1,1.838295452E0
5.853267292E0,-1.332678680E0,-1.136137390E-1,5.770500183E-1,1.456683655E0
5.863300292E0,-1.025667114E0,-3.332070923E-1,7.102729797E-1,1.291320139E0
5.873332292E0,-7.574249268E-1,-5.760021973E-1,1.370849304E0,1.668741701E0
5.883364292E0,-1.044677582E0,-5.575904846E-1,1.755100250E0,2.117223485E0
5.893397292E0,-1.411714325E0,-5.860313416E-1,1.203048248E0,1.945172269E0
5.903429292E0,-1.072070618E0,-8.116122437E-1,4.358935547E-1,1.413525038E0
5.913461292E0,-7.689509583E-1,-9.089099121E-1,-6.062393188E-2,1.192089789E0
5.923494292E0,-5.233117676E-1,-8.671467590E-1,-2.209405518E-1,1.036635633E0
5.933526292E0,-9.789642334E-2,-6.707551575E-1,-3.246748352E-1,7.516049092E-1
5.943558292E0,4.369413757E-1,-3.652404785E-1,-4.872367859E-1,7.494785244E-1
5.953591292E0,1.084794159E0,-4.415817261E-2,-5.959107971E-1,1.238482131E0
5.963623292E0,1.900747375E0,1.444496155E-1,-3.885919189E-1,1.945433103E0
5.973655292E0,2.413730621E0,2.671943665E-1,1.233435059E-1,2.431604812E0
5.983688292E0,1.983375549E0,3.116519165E-1,7.306306458E-1,2.136522087E0
5.993720292E0,1.175056458E0,5.583389282E-2,1.194366302E0,1.676420582E0
6.003752292E0,8.672964478E-1,-1.892065430E-1,1.356628876E0,1.621247714E0
6.013785292E0,1.020877075E0,-4.411326599E-1,1.347797241E0,1.747382451E0
6.023817292E0,1.509311371E0,-7.165599060E-1,1.295406189E0,2.114132472E0
6.033849292E0,2.375110931E0,-8.693920898E-1,1.163081360E0,2.783837781E0
6.043882292E0,3.511697388E0,-8.321195984E-1,9.677375793E-1,3.736436483E0
6.053914292E0,5.237907715E0,-7.688012695E-1,7.761360168E-1,5.350618631E0
6.063946292E0,8.155640259E0,-7.041357422E-1,5.333409119E-1,8.203336376E0
6.073979292E0,1.183409088E1,-5.349874878E-1,-1.058299255E-1,1.184665010E1
6.084011292E0,1.545146851E1,-7.246430969E-1,-1.066083069E0,1.550514494E1
6.094043292E0,1.589394836E1,-1.730700989E0,-1.481618958E0,1.605640418E1
6.104076292E0,1.478535370E1,-2.521057434E0,-2.679877167E0,1.523627764E1
6.114108292E0,1.383498001E1,-3.465144196E0,-5.163213043E0,1.516814640E1
6.124140292E0,1.133173553E1,-4.956043854E0,-1.045740372E1,1.619653955E1
6.134173292E0,1.160656403E1,-9.666598206E0,-3.483825348E1,3.797182317E1
6.144205292E0,7.915689240E0,-1.245050903E1,-6.906921982E1,7.062740571E1
6.154237292E0,5.286855927E0,-1.099463654E1,-4.539295486E1,4.700375761E1
6.164270292E0,2.980901184E0,-1.046249313E1,-2.894171539E1,3.091880373E1
6.174302292E0,4.992717590E0,-9.175319824E0,-1.976534775E1,2.235582015E1
6.184334292E0,1.063747925E1,-1.005833359E1,-1.354488327E1,1.994467102E1
6.194367292E0,1.833567078E1,-1.492725861E1,-8.669671326E0,2.518299174E1
6.204399292E0,2.959405884E1,-1.728650253E1,7.533833313E-1,3.428117668E1
6.214431292E0,3.684557922E1,-8.214467926E0,6.749314728E0,3.834876062E1
6.224464292E0,4.543860992E1,-1.422042847E-1,-5.843248901E0,4.581300090E1
6.234496292E0,3.088138184E1,-1.934127960E0,-6.436016235E0,3.160415954E1
6.244528292E0,1.525208313E1,-3.126847687E0,-6.800657959E0,1.698976648E1
6.254561292E0,8.483907623E0,-4.025878143E0,-3.394940186E0,9.985489585E0
6.264593292E0,6.094875641E0,-3.880530396E0,-2.522254944E-1,7.229774749E0
6.274625292E0,6.681206360E0,-3.594475250E0,4.951702881E-1,7.602891842E0
6.284658292E0,9.954000549E0,-3.910468140E0,-1.017883301E-2,1.069457767E1
6.294690292E0,1.220007980E1,-3.864813080E0,-9.834548950E-1,1.283533836E1
6.304722583E0,1.214948502E1,-3.383863220E0,-1.708996124E0,1.272718289E1
6.314755583E0,1.093670700E1,-2.853067017E0,-2.060465240E0,1.148899771E1
6.324787583E0,9.453441467E0,-2.479443970E0,-2.155966644E0,1.000816617E1
6.334819583E0,8.410260773E0,-2.272424469E0,-1.901046753E0,8.916859200E0
6.344852583E0,7.713310089E0,-1.948947144E0,-1.453028412E0,8.087325829E0
6.354884583E0,6.821913757E0,-1.567540283E0,-1.279239807E0,7.115626770E0
6.364916583E0,6.050268402E0,-1.243913269E0,-1.293759613E0,6.310854292E0
6.374949583E0,5.591322784E0,-9.187893677E-1,-1.475781097E0,5.855338951E0
6.384981583E0,4.968917084E0,-7.749385071E-1,-1.613644409E0,5.281525817E0
6.395013583E0,4.314777374E0,-6.981481934E-1,-1.593885498E0,4.652438680E0
6.405046583E0,3.917054443E0,-6.514453125E-1,-1.632505188E0,4.293340156E0
6.415078583E0,3.543281708E0,-7.631130981E-1,-1.738185425E0,4.019760619E0
6.425110583E0,3.427422638E0,-9.440867615E-1,-1.724563751E0,3.951284080E0
6.435143583E0,3.435056763E0,-1.231040039E0,-1.635948029E0,3.998924917E0
6.445175583E0,3.564537506E0,-1.595681763E0,-1.416953430E0,4.154501768E0
6.455207583E0,4.111500092E0,-1.857637024E0,-1.136287079E0,4.652568822E0
6.465240583E0,4.950954437E0,-2.087409210E0,-1.036744080E0,5.472117080E0
6.475272583E0,5.740861816E0,-2.364782410E0,-1.040935364E0,6.295493362E0
6.485304583E0,6.494694214E0,-2.619552612E0,-1.120420074E0,7.092140013E0
6.495337583E0,7.029382324E0,-2.742746429E0,-1.134640503E0,7.630352738E0
6.505369583E0,7.396269379E0,-2.708916779E0,-1.074615326E0,7.949706217E0
6.515401583E0,7.691904602E0,-2.547402649E0,-1.095571747E0,8.176486661E0
6.525434583E0,8.032745819E0,-2.250270538E0,-1.286275177E0,8.440570284E0
6.535466583E0,8.364306335E0,-1.965562592E0,-1.526226196E0,8.726650169E0
6.545498583E0,8.433312836E0,-1.738185425E0,-1.600471802E0,8.758057087E0
6.555531583E0,8.210576019E0,-1.558109894E0,-1.378932495E0,8.470107428E0
6.565563583E0,7.939340057E0,-1.399888916E0,-1.108145599E0,8.137616125E0
6.575595583E0,7.442822571E0,-1.290167084E0,-9.565109253E-1,7.614135018E0
6.585628583E0,6.740333405E0,-1.244212646E0,-8.246351624E-1,6.903635467E0
6.595660583E0,6.238277435E0,-1.242566071E0,-7.424560547E-1,6.404007870E0
6.605692583E0,5.819897461E0,-1.370250549E0,-6.735992432E-1,6.016853743E0
6.615725583E0,5.451064453E0,-1.464255066E0,-6.734495544E-1,5.684336450E0
6.625757583E0,5.269042969E0,-1.439257050E0,-7.550299072E-1,5.514013495E0
6.635789583E0,4.945715332E0,-1.423539734E0,-7.900570679E-1,5.206798987E0
6.645822583E0,4.542753296E0,-1.510209503E0,-7.825726318E-1,4.850748414E0
6.655854583E0,4.248165894E0,-1.576371918E0,-7.310797119E-1,4.589808212E0
6.665886583E0,4.007466431E0,-1.615889740E0,-6.409671021E-1,4.368263462E0
6.675919583E0,3.934717712E0,-1.615440674E0,-5.831872559E-1,4.293222499E0
6.685951583E0,4.346361694E0,-1.643582153E0,-6.245013428E-1,4.688520470E0
6.695983583E0,5.387297058E0,-1.766326904E0,-8.479866028E-1,5.732535356E0
6.706016583E0,6.417155457E0,-2.120340729E0,-1.078507233E0,6.843895587E0
6.716048583E0,7.234605560E0,-2.844983826E0,-1.071771240E0,7.847429144E0
6.726080583E0,8.696016541E0,-3.696862335E0,-1.081501007E0,9.510895816E0
6.736113583E0,1.054871384E1,-4.977898407E0,-1.075363770E0,1.171372031E1
6.746145583E0,1.268162842E1,-6.426436157E0,-1.840722198E0,1.433565622E1
6.756177583E0,1.505329651E1,-7.296576691E0,-5.853278046E0,1.772294081E1
6.766210583E0,1.563348999E1,-7.203170929E0,-9.384734344E0,1.960522684E1
6.776242583E0,1.462668365E1,-5.952371979E0,-1.061143341E1,1.902559134E1
6.786274583E0,1.346704514E1,-3.024310913E0,-1.041534119E1,1.729124325E1
6.796307583E0,1.276695099E1,-1.080153809E0,-9.370663605E0,1.587359777E1
6.806339583E0,1.282488052E1,-2.772534485E0,-8.348289642E0,1.555179886E1
6.816371583E0,1.441083252E1,-5.155578918E0,-7.448810120E0,1.702165856E1
6.826404583E0,1.646141830E1,-6.527625732E0,-6.747518463E0,1.895038775E1
6.836436583E0,1.841126358E1,-7.753875732E0,-6.660249939E0,2.105839844E1
6.846468583E0,2.057725937E1,-8.657696228E0,-6.754254456E0,2.332379172E1
6.856501583E0,2.230346970E1,-9.612560577E0,-6.729855194E0,2.520192517E1
6.866533583E0,2.382685181E1,-1.066771637E1,-6.638245697E0,2.693669144E1
6.876565583E0,2.530697388E1,-1.120000946E1,-6.828500061E0,2.850458826E1
6.886598583E0,2.660657135E1,-1.099778000E1,-7.142097931E0,2.966260890E1
6.896630583E0,2.774330750E1,-9.884395294E0,-7.585775299E0,3.041276653E1
6.906662583E0,2.837095230E1,-8.267906799E0,-7.965086517E0,3.060574816E1
6.916695583E0,2.814103043E1,-6.603817291E0,-8.212222595E0,3.004943587E1
6.926727583E0,2.838038269E1,-5.514233093E0,-9.301208038E0,3.037046854E1
6.936759583E0,2.932222412E1,-4.834945679E0,-1.141945312E1,3.183666812E1
6.946792583E0,2.897674255E1,-4.094585266E0,-1.312904800E1,3.207474301E1
6.956824583E0,2.586366623E1,-3.023861847E0,-1.261007721E1,2.893245614E1
6.966856583E0,2.183389618E1,-2.401007080E0,-1.042776535E1,2.431506010E1
6.976889583E0,1.726434860E1,-1.915416870E0,-8.549321594E0,1.936020284E1
6.986921583E0,1.350087479E1,-9.758207703E-1,-6.975644073E0,1.522778567E1
6.996953583E0,1.010383896E1,-4.165837097E-1,-5.726791077E0,1.162141298E1
7.006986583E0,7.097341003E0,-2.339634705E-1,-4.458179169E0,8.384649648E0
7.017018583E0,4.616250458E0,-1.637594604E-1,-3.398832092E0,5.734862251E0
7.027050583E0,2.706821136E0,-1.219963074E-1,-2.518812103E0,3.699483501E0
7.037083583E0,1.236877899E0,-7.095245361E-2,-1.728455658E0,2.126607662E0
7.047115583E0,1.224453735E-1,3.742218018E-2,-1.157991943E0,1.165048767E0
7.057147583E0,-4.980143738E-1,1.207987976E-1,-6.619235229E-1,8.371101578E-1
7.067180583E0,-5.303471375E-1,2.544708252E-3,-1.508862305E-1,5.513993256E-1
7.077212583E0,-2.996768188E-1,-3.457809448E-2,2.363584900E-1,3.832325354E-1
7.087245583E0,-1.191522217E-1,-7.334747314E-3,4.037104797E-1,4.209907385E-1
7.097277583E0,-5.553451538E-2,-1.826202393E-2,4.453239441E-1,4.491447418E-1
7.107309583E0,-9.340576172E-2,-1.152603149E-2,6.387217712E-1,6.456182981E-1
7.117342583E0,-6.361770630E-2,-2.963836670E-2,7.095245361E-1,7.129871757E-1
7.127374583E0,-3.667373657E-2,-1.167572021E-2,6.747967529E-1,6.758934407E-1
7.137406583E0,-2.933898926E-2,3.412902832E-2,5.902226257E-1,5.919360732E-1
7.147439583E0,3.143463135E-3,1.854643250E-1,1.380130005E-1,2.312022610E-1
7.157471583E0,2.386038208E-1,2.558329926E0,-5.533542938E0,6.100990185E0
7.167503583E0,3.579057312E-1,-1.013242950E0,-1.122216339E0,1.553746215E0
7.177536583E0,-4.809498596E-1,-3.741319885E0,7.948471069E-1,3.854940878E0
7.187568583E0,-1.833537140E0,-5.901777191E0,2.496358795E0,6.665181145E0
7.197600583E0,-3.232078857E0,-6.580316162E0,5.032085724E0,8.892062824E0
7.207633583E0,-4.778812408E0,-5.841153259E0,7.761360168E0,1.082565615E1
7.217665583E0,-6.519243164E0,-4.534819794E0,1.037986496E1,1.306930444E1
7.227697583E0,-5.973627777E0,-2.911744995E0,9.290729828E0,1.142279075E1
7.237730583E0,-4.869673462E0,-1.769769745E0,6.411317596E0,8.243227396E0
7.247762583E0,-4.046834564E0,-1.420845337E0,4.252656555E0,6.039930400E0
7.257794583E0,-3.420087891E0,-1.269959106E0,2.591560822E0,4.475040201E0
7.267827583E0,-2.704426117E0,-9.376501465E-1,1.727108459E0,3.343054300E0
7.277859583E0,-2.083966370E0,-7.213499451E-1,1.207538910E0,2.514241793E0
7.287891583E0,-1.644629974E0,-6.343807983E-1,9.138496399E-1,1.985539704E0
7.297924208E0,-1.455124054E0,-5.956114197E-1,3.191363525E-1,1.604364979E0
7.307956208E0,-1.227297821E0,-6.011499023E-1,3.053649902E-2,1.366957799E0
7.317988208E0,-1.069076843E0,-7.140151978E-1,4.400848389E-2,1.286343557E0
7.328021208E0,-9.083111572E-1,-8.208929443E-1,1.646575928E-1,1.235316359E0
7.338053208E0,-7.426057434E-1,-8.961863708E-1,6.601272583E-2,1.165749107E0
7.348085208E0,-5.206173706E-1,-8.753796387E-1,-2.544708252E-1,1.049803486E0
7.358118208E0,-3.516188049E-1,-9.871971130E-1,-4.044589233E-1,1.123290232E0
7.368150208E0,-3.847000122E-2,-1.105600891E0,-9.190887451E-2,1.110081309E0
7.378183208E0,3.791615295E-1,-1.179247742E0,2.853067017E-1,1.271136742E0
7.388215208E0,8.821156311E-1,-1.240620117E0,6.352789307E-1,1.649498585E0
7.398247208E0,1.425335999E0,-8.578660583E-1,1.592987366E0,2.303285833E0
7.408280208E0,1.759441223E0,-6.224057007E-1,2.265389099E0,2.935133735E0
7.418312208E0,2.020648041E0,-7.605683899E-1,2.432591400E0,3.252534965E0
7.428344208E0,2.637664948E0,-5.147795105E-1,3.290906525E0,4.248804546E0
7.438377208E0,3.251239014E0,-3.064128113E-1,3.902534637E0,5.088636412E0
7.448409208E0,3.606001282E0,-5.063969421E-1,3.721111908E0,5.206376565E0
7.458441208E0,4.060456238E0,-1.115779724E0,3.085084534E0,5.220154771E0
7.468474208E0,4.559069366E0,-1.385967865E0,2.285297699E0,5.284752216E0
7.478506208E0,1.035277130E1,-8.551716614E-1,7.116201782E-1,1.041237703E1
7.488538208E0,2.411410446E1,1.233135681E0,-3.505560150E0,2.439876246E1
7.498571208E0,2.587968292E1,1.110076584E1,-5.807622986E0,2.875262553E1
7.508603208E0,3.246987854E1,1.147423920E1,-1.021625519E1,3.592106691E1
7.518635208E0,3.523702423E1,2.086960144E1,-1.384680542E1,4.323103239E1
7.528668208E0,3.241015274E1,2.491523849E1,-1.266471359E1,4.279698681E1
7.538700208E0,2.497107239E1,2.221215958E1,-5.903573456E0,3.393798269E1
7.548732208E0,2.544423843E1,2.093127319E1,4.901108093E0,3.330988333E1
7.558765208E0,2.770887909E1,1.753588394E1,9.956844635E0,3.426992794E1
7.568797208E0,2.167328018E1,1.446307388E1,1.032867142E1,2.802843259E1
7.578829208E0,1.727662308E1,1.267893402E1,8.729995880E0,2.313979043E1
7.588862208E0,9.504335632E0,1.056907150E1,7.495213623E0,1.606909753E1
7.598894208E0,4.623884583E0,7.576344910E0,7.209906921E0,1.143521179E1
7.608926208E0,6.217919769E0,4.550088043E0,3.289709015E0,8.377828648E0
7.618959208E0,6.149062958E0,3.561244354E0,-1.143621826E-1,7.106793603E0
7.628991208E0,7.081024933E0,3.255879364E0,-2.191293182E0,8.095889719E0
7.639024208E0,9.289831696E0,3.947590942E0,-1.103654938E0,1.015394019E1
7.649056208E0,1.144490021E1,5.207371216E0,8.842112732E-1,1.260493099E1
7.659088208E0,1.371986938E1,5.592969360E0,1.552870789E0,1.489723229E1
7.669121208E0,1.562016769E1,5.782624969E0,1.846410370E0,1.675821057E1
7.679153208E0,1.596055984E1,6.722071381E0,2.154769135E0,1.745189801E1
7.689185208E0,1.506078094E1,7.769443359E0,2.867437134E0,1.718759927E1
7.699218208E0,1.414648224E1,7.852670288E0,3.301983490E0,1.651334265E1
7.709250208E0,1.382240616E1,7.071295166E0,3.904630280E0,1.600963038E1
7.719282208E0,1.315224976E1,5.793701935E0,3.421584778E0,1.477348632E1
7.729315208E0,1.170520889E1,4.262536011E0,2.963237915E0,1.280476112E1
7.739347208E0,1.022418869E1,3.536246338E0,2.636617126E0,1.113511663E1
7.749379208E0,1.025397675E1,3.962559814E0,2.527643738E0,1.127984496E1
7.759412208E0,1.069286407E1,4.602928162E0,1.636247406E0,1.175591746E1
7.769444208E0,1.054527100E1,4.481680298E0,1.377435608E0,1.154060343E1
7.779476208E0,9.592202911E0,4.579876099E0,2.385289764E0,1.089381609E1
7.789509208E0,8.914412384E0,4.875661011E0,2.778072968E0,1.053358950E1
7.799541208E0,8.547824707E0,4.844226379E0,2.377805328E0,1.010869896E1
7.809573208E0,8.332871704E0,4.531077576E0,2.121238861E0,9.719417119E0
7.819606208E0,8.270900574E0,4.183650055E0,2.084265747E0,9.500257248E0
7.829638208E0,8.240962830E0,3.784579926E0,2.096390533E0,9.307597265E0
7.839670208E0,7.423961792E0,3.573369141E0,2.054028625E0,8.491360863E0
7.849703208E0,6.545438690E0,3.220103760E0,2.363135834E0,7.667871076E0
7.859735208E0,6.450086975E0,3.247347107E0,2.877017212E0,7.773423522E0
7.869768208E0,6.713838501E0,3.911665649E0,2.830913086E0,8.269874514E0
7.879800208E0,7.053931274E0,4.034709778E0,2.900368652E0,8.628381525E0
7.889832208E0,6.838678894E0,2.728226624E0,2.928210754E0,7.923709216E0
7.899865208E0,6.541995850E0,1.694027252E0,2.621498566E0,7.248426916E0
7.909897208E0,6.639742584E0,1.424138489E0,2.407593384E0,7.204919009E0
7.919929208E0,6.889423370E0,1.380878448E0,2.243833923E0,7.376026731E0
7.929962208E0,7.342830505E0,1.643881531E0,2.229912872E0,7.848058214E0
7.939994208E0,7.764952698E0,2.182910614E0,2.293081512E0,8.385571654E0
7.950026208E0,7.927814026E0,2.828967133E0,2.300416260E0,8.726122004E0
7.960059208E0,8.214467926E0,3.383114777E0,2.287543030E0,9.173647149E0
7.970091208E0,8.624914398E0,3.929328918E0,2.344873810E0,9.763565297E0
7.980123208E0,8.929680634E0,4.318968658E0,2.490820312E0,1.022726123E1
7.990156208E0,9.373807068E0,4.205953674E0,2.842289429E0,1.066006165E1
8.000188208E0,9.942923584E0,3.752546539E0,3.105891266E0,1.107203213E1
8.010220208E0,1.033840118E1,3.461551666E0,3.334016876E0,1.140090117E1
8.020253208E0,1.037148239E1,3.218008118E0,3.428021393E0,1.138747355E1
8.030285208E0,1.019589752E1,2.902913361E0,3.510350189E0,1.116717470E1
8.040317208E0,9.792037354E0,2.419867859E0,3.547772369E0,1.069235450E1
8.050350208E0,9.295968933E0,1.821262665E0,3.252436523E0,1.001550695E1
8.060382208E0,8.763077087E0,1.311871948E0,2.879412231E0,9.316841892E0
8.070414208E0,8.274942169E0,1.052311707E0,2.673141174E0,8.759435574E0
8.080447208E0,7.959098969E0,1.180894318E0,2.777623901E0,8.512165548E0
8.090479208E0,8.391250305E0,1.528770905E0,2.871179352E0,8.999660718E0
8.100511208E0,9.494605865E0,1.894161072E0,2.741548920E0,1.006237930E1
8.110544208E0,1.013018417E1,2.517165527E0,2.920726318E0,1.083916030E1
8.120576208E0,1.038779846E1,3.051853638E0,3.470982056E0,1.136960351E1
8.130609208E0,1.097832047E1,3.287164307E0,3.679348755E0,1.203605320E1
8.140641208E0,9.459279327E0,2.983745270E0,3.438200226E0,1.049771032E1
8.150673208E0,6.755002899E0,1.742077332E0,3.117716675E0,7.641011377E0
8.160706208E0,6.906188507E0,2.971021729E0,3.739523621E0,8.396811699E0
8.170738208E0,8.358917542E0,3.521277466E0,4.107458496E0,9.957013245E0
8.180770208E0,8.783584442E0,2.770887909E0,2.802472229E0,9.627202400E0
8.190803208E0,9.016949158E0,2.170486450E0,2.045346680E0,9.497358927E0
8.200835208E0,9.085955658E0,2.077230377E0,2.555186462E0,9.664287564E0
8.210867208E0,9.616901550E0,2.519710236E0,3.261717224E0,1.046291233E1
8.220900208E0,9.789193268E0,2.765349426E0,3.333867188E0,1.070467808E1
8.230932208E0,9.576784973E0,2.940185852E0,3.275638275E0,1.053989134E1
8.240964208E0,9.756710815E0,2.504441986E0,2.843786316E0,1.046674525E1
8.250997208E0,1.034019745E1,2.161505127E0,2.360591125E0,1.082424030E1
8.261029208E0,9.767937469E0,2.255210266E0,2.520758057E0,1.033696266E1
8.271061208E0,9.055568848E0,2.446362762E0,2.601440277E0,9.734244164E0
8.281094208E0,8.308472443E0,2.794089661E0,2.466421051E0,9.106090498E0
8.291126208E0,7.724387054E0,2.656974792E0,2.189945984E0,8.457040489E0
8.301159083E0,7.851622467E0,2.381846924E0,2.247875519E0,8.507297719E0
8.311191083E0,8.584498444E0,2.533182220E0,2.249522095E0,9.228812239E0
8.321223083E0,9.103319550E0,2.528990936E0,2.337239685E0,9.732877854E0
8.331256083E0,9.124275970E0,1.966161346E0,2.574496307E0,9.682263871E0
8.341288083E0,8.470735016E0,1.567390594E0,2.612517242E0,9.001961527E0
8.351320083E0,7.512278137E0,1.995500336E0,2.957250366E0,8.316349808E0
8.361353083E0,6.499783630E0,2.436333618E0,4.975353699E0,8.540319266E0
8.371385083E0,5.688321075E0,4.791535950E-1,6.706503754E0,8.807030000E0
8.381417083E0,5.630541229E0,-8.605604553E-1,6.411467285E0,8.576157157E0
8.391450083E0,5.638175354E0,-2.038760376E-1,6.186036072E0,8.372432684E0
8.401482083E0,6.500083008E0,1.122066650E0,6.637048187E0,9.357377908E0
8.411514083E0,7.461383972E0,1.994302826E0,6.493945770E0,1.009063062E1
8.421547083E0,7.747139740E0,2.938539276E0,6.025869141E0,1.024520796E1
8.431579083E0,6.901548157E0,3.910617828E0,5.595514069E0,9.707423780E0
8.441611083E0,6.553821259E0,4.262086945E0,5.288801880E0,9.438717261E0
8.451644083E0,7.027286682E0,3.819607086E0,4.684957581E0,9.269357256E0
8.461676083E0,7.569908295E0,3.470083923E0,3.946992188E0,9.215407823E0
8.471709083E0,7.292535095E0,4.003125458E0,3.207829285E0,8.916066973E0
8.481741083E0,6.884184265E0,4.290228424E0,2.140848083E0,8.389355365E0
8.491773083E0,6.699318695E0,4.030817871E0,1.260379028E0,7.919401428E0
8.501806083E0,6.591542816E0,3.946094055E0,9.611512756E-1,7.742345043E0
8.511838083E0,6.162085876E0,4.158801727E0,9.271719360E-1,7.491767612E0
8.521870083E0,6.185587006E0,3.921245728E0,9.339079285E-1,7.383077859E0
8.531903083E0,6.102509766E0,3.211421814E0,1.638343048E0,7.087878628E0
8.541935083E0,6.090983734E0,2.430346069E0,3.000660095E0,7.211839285E0
8.551967083E0,6.331533508E0,1.718426514E0,4.681065674E0,8.059384722E0
8.562000083E0,6.888824615E0,8.608598328E-1,7.659122772E0,1.033726975E1
8.572032083E0,7.370373230E0,-3.622467041E-1,1.129895370E1,1.349518355E1
8.582064083E0,6.521638184E0,-9.535171509E-1,1.261995667E1,1.423742483E1
8.592097083E0,4.608017578E0,-1.255588989E0,1.242835510E1,1.331444104E1
8.602129083E0,3.560495911E0,-7.604187012E-1,1.202718933E1,1.256617089E1
8.612161083E0,2.867736511E0,-7.439529419E-2,1.050725006E1,1.089182038E1
8.622194083E0,1.841470642E0,-3.347039795E-1,8.744515686E0,8.942572083E0
8.632226083E0,1.694476318E0,-1.079555054E0,7.995024261E0,8.243609771E0
8.642259083E0,2.624941406E0,-1.564995575E0,7.795189819E0,8.372843773E0
8.652291083E0,3.996090088E0,-1.826052704E0,7.631430359E0,8.805789788E0
8.662323083E0,5.101391602E0,-2.092798004E0,7.406298523E0,9.233485667E0
8.672356083E0,5.612129517E0,-2.248025208E0,6.885232086E0,9.162752639E0
8.682388083E0,5.526058502E0,-2.192041626E0,5.966891785E0,8.422954745E0
8.692420083E0,4.969216461E0,-1.991159363E0,5.015320587E0,7.335616432E0
8.702453083E0,4.174219666E0,-1.746867371E0,4.175716553E0,6.157293574E0
8.712485083E0,3.196153564E0,-1.553768921E0,3.504362640E0,4.991007211E0
8.722517083E0,2.057471466E0,-1.458866272E0,3.277733917E0,4.135821474E0
8.732550083E0,1.277293854E0,-1.382974091E0,3.058589630E0,3.591527175E0
8.742582083E0,1.176852722E0,-1.271156616E0,2.779270477E0,3.274929901E0
8.752614083E0,1.436562653E0,-1.456321564E0,2.597847748E0,3.306568867E0
8.762647083E0,1.550625458E0,-1.819915466E0,2.467768250E0,3.436045947E0
8.772679083E0,1.495540009E0,-2.018851776E0,2.334994354E0,3.429956420E0
8.782711083E0,1.622176666E0,-2.189646606E0,2.353555756E0,3.600726884E0
8.792744083E0,2.104473724E0,-2.174378357E0,2.259700928E0,3.776635961E0
8.802776083E0,2.851121063E0,-2.080523529E0,1.943408661E0,4.029181889E0
8.812809083E0,3.257226562E0,-2.057621155E0,1.694176941E0,4.208748651E0
8.822841083E0,3.616180115E0,-2.315235443E0,1.580263824E0,4.575402445E0
8.832873083E0,4.849166107E0,-2.466271362E0,2.491119690E0,5.983526024E0
8.842906083E0,6.529571686E0,-2.173779602E0,3.895798645E0,7.908088975E0
8.852938083E0,7.955656128E0,-2.152673492E0,5.247637482E0,9.770576581E0
8.862970083E0,8.792266388E0,-2.916984100E0,6.460415497E0,1.129379090E1
8.873003083E0,9.735005951E0,-3.640579376E0,8.111482086E0,1.318409271E1
8.883035083E0,1.118040024E1,-3.839964752E0,9.794582062E0,1.535188967E1
8.893067083E0,1.315539322E1,-4.021387482E0,1.127425507E1,1.778608319E1
8.903100083E0,1.488310043E1,-4.390070801E0,1.273761200E1,2.007551144E1
8.913132083E0,1.581895432E1,-5.263504486E0,1.394724655E1,2.173636312E1
8.923165083E0,1.639480682E1,-6.187682648E0,1.434496948E1,2.264630780E1
8.933197083E0,1.664179321E1,-6.791976013E0,1.505838593E1,2.344856512E1
8.943229083E0,1.652279068E1,-7.681875458E0,1.659688660E1,2.464691598E1
8.953262083E0,1.680944458E1,-8.187973022E0,1.781146088E1,2.582340930E1
8.963294083E0,1.733051102E1,-8.527916107E0,1.881108215E1,2.696161674E1
8.973326083E0,1.785322403E1,-8.885372772E0,1.971714798E1,2.804377617E1
8.983359083E0,1.818732925E1,-8.720864868E0,2.077050751E1,2.895248541E1
8.993391083E0,1.822460175E1,-8.183632050E0,2.174153824E1,2.952630060E1
9.003423083E0,1.823537933E1,-7.470664673E0,2.075823303E1,2.862244100E1
9.013456083E0,1.799213516E1,-7.442373505E0,1.959260696E1,2.762202199E1
9.023488083E0,1.859148880E1,-7.598199463E0,1.876961838E1,2.748953737E1
9.033520083E0,1.940789108E1,-8.502469025E0,1.930610275E1,2.866502781E1
9.043553083E0,1.801997726E1,-9.035061493E0,1.967837860E1,2.817073839E1
9.053585083E0,1.558005112E1,-8.844507751E0,1.858355530E1,2.581301683E1
9.063617083E0,1.435664520E1,-8.727900238E0,1.705777817E1,2.394279224E1
9.073650083E0,1.227028381E1,-8.806187439E0,1.544667847E1,2.160344134E1
9.083682083E0,1.055021072E1,-8.738079071E0,1.435904022E1,1.984547828E1
9.093715083E0,9.466165009E0,-8.439001007E0,1.290376648E1,1.809232454E1
9.103747083E0,8.658444672E0,-8.116421814E0,1.129371460E1,1.638270297E1
9.113779083E0,8.246201935E0,-7.631430359E0,9.773026886E0,1.489129377E1
9.123812083E0,7.297474823E0,-6.265820160E0,7.796686707E0,1.238151706E1
9.133844083E0,5.674549713E0,-4.895719299E0,5.945935364E0,9.566751238E0
9.143876083E0,4.369862823E0,-4.096680908E0,4.713099060E0,7.621797577E0
9.153909083E0,3.064577179E0,-3.869902496E0,4.240382080E0,6.507581640E0
9.163941083E0,2.242486725E0,-3.972289581E0,4.431384888E0,6.359638610E0
9.173973083E0,1.977537689E0,-3.810176697E0,2.973716125E0,5.222172859E0
9.184006083E0,1.041983185E0,-3.504961395E0,1.490300903E0,3.948604832E0
9.194038083E0,1.889071655E-1,-2.953208771E0,7.400610352E-1,3.050380025E0
9.204070083E0,-8.354127502E-1,-2.213297424E0,-4.999603271E-2,2.366241652E0
9.214103083E0,-2.320175171E0,-1.508413239E0,-4.472698975E-1,2.803314767E0
9.224135083E0,-3.987108765E0,-9.169931030E-1,-8.614585876E-1,4.180911808E0
9.234168083E0,-5.255271606E0,-3.094065857E-1,-1.640738068E0,5.514130348E0
9.244200083E0,-6.059249725E0,1.101708984E-1,-2.323618011E0,6.490442629E0
9.254232083E0,-5.936355286E0,3.736230469E-1,-3.109633484E0,6.711909465E0
9.264265083E0,-4.356091461E0,5.652246094E-1,-3.468587036E0,5.596973084E0
9.274297083E0,-2.448757782E0,6.665638733E-1,-2.965183868E0,3.902952401E0
9.284329083E0,-9.824070740E-1,5.481600952E-1,-2.176024933E0,2.449630106E0
9.294362083E0,-1.063238983E0,-4.505630493E-2,-1.686542816E0,1.994225132E0
9.304394042E0,-1.683099976E0,-5.523513794E-1,-1.574276276E0,2.369865685E0
9.314426042E0,-1.567839661E0,-6.342311096E-1,-8.267308044E-1,1.882512716E0
9.324459042E0,-1.209634552E0,-4.219725037E-1,-1.990859985E-1,1.296499818E0
9.334491042E0,-6.755451965E-1,-6.242019653E-2,4.574487305E-1,8.182401448E-1
9.344524042E0,4.685256958E-2,3.543132019E-1,1.351689148E0,1.398140394E0
9.354556042E0,7.213499451E-1,6.667135620E-1,2.372715912E0,2.568001853E0
9.364588042E0,8.584648132E-1,6.836283875E-1,3.456312561E0,3.626348870E0
9.374621042E0,4.249662781E-1,2.627037048E-1,3.795507202E0,3.828248228E0
9.384653042E0,1.890568542E-1,-5.746549988E-1,2.855012970E0,2.918401946E0
9.394685042E0,2.936892700E-1,-1.723515930E0,1.061442719E0,2.045341339E0
9.404718042E0,8.213420105E-1,-1.588646393E0,6.566844177E-1,1.905159963E0
9.414750042E0,1.173559570E0,6.750961304E-2,1.485211487E0,1.894110021E0
9.424782042E0,1.902543640E0,1.130449219E0,1.196162567E0,2.515629668E0
9.434815042E0,2.407443695E0,1.777254181E0,6.283932495E-1,3.057661794E0
9.444847042E0,2.382146301E0,1.952539673E0,3.239263916E-1,3.097089034E0
9.454879042E0,1.844614105E0,1.448986816E0,5.771997070E-1,2.415641425E0
9.464912042E0,1.464554443E0,9.511221313E-1,6.355783081E-1,1.858362939E0
9.474944042E0,1.712438965E0,2.188449097E-1,5.614823914E-1,1.815379514E0
9.484977042E0,1.744921417E0,-3.261717224E-1,2.833607483E-1,1.797618441E0
9.495009042E0,1.455423431E0,-5.861810303E-1,3.757186890E-2,1.569483103E0
9.505041042E0,9.554631042E-1,-7.143145752E-1,-1.320254517E-1,1.200244048E0
9.515074042E0,1.927990723E-1,-7.297325134E-1,-1.930984497E-1,7.790815328E-1
9.525106042E0,-6.231541443E-1,-7.699987793E-1,-1.734892273E-1,1.005642938E0
9.535138042E0,-1.178349609E0,-8.610095215E-1,-1.459465027E-1,1.466678417E0
9.545171042E0,-1.228345642E0,-1.048120422E0,-8.412506104E-2,1.616931187E0
9.555203042E0,-9.131011963E-1,-1.376537476E0,9.145980835E-2,1.654380281E0
9.565235042E0,-6.605763245E-1,-1.689087524E0,3.365002441E-1,1.844616535E0
9.575268042E0,-5.168751526E-1,-1.905088348E0,8.071215820E-1,2.132596255E0
9.585300042E0,5.688171387E-3,-2.005978546E0,1.571132813E0,2.548026805E0
9.595333042E0,9.458830261E-1,-2.054627380E0,2.465223541E0,3.345671155E0
9.605365042E0,2.029030609E0,-2.390678558E0,3.412753143E0,4.634565050E0
9.615397042E0,3.194806366E0,-2.849025421E0,4.693639526E0,6.352478695E0
9.625430042E0,4.449646912E0,-3.262615356E0,6.217470703E0,8.312698632E0
9.635462042E0,5.811365204E0,-3.580105133E0,7.780370636E0,1.035003795E1
9.645494042E0,7.292086029E0,-3.448977814E0,9.892628174E0,1.276456262E1
9.655527042E0,9.320966949E0,-3.131787415E0,1.531495239E1,1.819989791E1
9.665559042E0,1.158800262E1,-3.325484619E0,2.388178757E1,2.675220421E1
9.675591042E0,1.574770248E1,-3.523373108E0,3.524660431E1,3.876502814E1
9.685624042E0,2.413101929E1,-4.285438385E0,4.145209991E1,4.815545308E1
9.695656042E0,2.848980515E1,-5.312752075E0,4.347319702E1,5.224761421E1
9.705689042E0,2.657857956E1,-6.002517700E0,3.858226776E1,4.723391256E1
9.715721042E0,2.425121933E1,-4.514462128E0,2.961905685E1,3.854595356E1
9.725753042E0,2.073128906E1,-2.959645386E0,2.362656830E1,3.157151527E1
9.735786042E0,1.673025925E1,-2.866838379E0,1.986653732E1,2.613043517E1
9.745818042E0,1.276216095E1,-3.243305511E0,1.724653564E1,2.169872749E1
9.755850042E0,1.027373566E1,-1.988764343E0,1.504192017E1,1.832386941E1
9.765883042E0,8.052654419E0,-1.899998932E0,1.293789551E1,1.535722564E1
9.775915042E0,7.140601044E0,-2.494861908E0,1.054048096E1,1.297359850E1
9.785947042E0,7.030130768E0,-3.347039795E0,8.698411560E0,1.167423564E1
9.795980042E0,6.761289825E0,-3.724255371E0,8.934620361E0,1.180730957E1
9.806012042E0,5.879024506E0,-3.407514038E0,9.143585815E0,1.139206929E1
9.816045042E0,5.428162079E0,-3.173251190E0,8.016729126E0,1.018834690E1
9.826077042E0,5.541027374E0,-3.235072632E0,6.724915466E0,9.294792484E0
9.836109042E0,5.709576874E0,-3.428620148E0,6.270310822E0,9.147212799E0
9.846142042E0,5.478607178E0,-2.853815460E0,6.807693329E0,9.192610497E0
9.856174042E0,4.964725800E0,-1.797312469E0,7.980654144E0,9.569204510E0
9.866206042E0,4.466711426E0,-1.314865723E0,9.098230133E0,1.022047819E1
9.876239042E0,4.601431274E0,-1.239721985E0,8.906628571E0,1.010139163E1
9.886271042E0,4.565056915E0,-1.366059265E0,7.746391296E0,9.094638018E0
9.896303042E0,4.378844147E0,-1.575623474E0,6.958878937E0,8.371550720E0
9.906336042E0,4.244573364E0,-1.725910950E0,6.788233795E0,8.189950532E0
9.916368042E0,4.475093994E0,-1.683998108E0,6.793173523E0,8.307197024E0
9.926401042E0,4.960684204E0,-1.398691406E0,6.623725891E0,8.392762960E0
9.936433042E0,4.982688446E0,-1.101858673E0,5.867049408E0,7.775830852E0
9.946465042E0,4.249363403E0,-7.801776123E-1,4.860243073E0,6.502901596E0
9.956498042E0,3.444786530E0,-5.475613403E-1,3.820954285E0,5.173593461E0
9.966530042E0,3.006947021E0,-7.180567932E-1,2.818189545E0,4.183243748E0
9.976562042E0,2.476599884E0,-9.861492920E-1,2.016307068E0,3.342384120E0
9.986595042E0,2.219734039E0,-1.240320740E0,1.964963837E0,3.213517951E0
9.996627042E0,2.108814697E0,-1.556912384E0,2.359094238E0,3.526528211E0
1.000665904E1,2.193538513E0,-1.889221344E0,2.860252075E0,4.069620428E0
1.001669204E1,2.745740204E0,-1.733395386E0,3.176843719E0,4.542695769E0
1.002672404E1,3.294349365E0,-1.210682373E0,2.942580872E0,4.580095167E0
1.003675604E1,3.636088715E0,-8.063731384E-1,2.422861633E0,4.443156229E0
1.004678904E1,3.798500977E0,-7.643106079E-1,1.803150330E0,4.273655518E0
1.005682104E1,3.582949219E0,-8.795709229E-1,1.166823578E0,3.869450526E0
1.006685404E1,2.998863831E0,-1.115330658E0,7.280859375E-1,3.281349705E0
1.007688604E1,2.456391907E0,-1.474134521E0,5.905220032E-1,2.925004277E0
1.008691804E1,2.249971161E0,-1.766775970E0,8.946894836E-1,2.997388334E0
1.009695104E1,2.351909180E0,-1.959575043E0,1.164877625E0,3.275416159E0
1.010698304E1,2.272125092E0,-2.149380341E0,1.229842529E0,3.360788736E0
1.011701504E1,1.860630798E0,-2.280357971E0,1.254391479E0,3.199293270E0
1.012704804E1,1.297202454E0,-2.446512451E0,1.418300629E0,3.111227098E0
1.013708004E1,8.120613098E-1,-2.376607819E0,2.243235168E0,3.367463781E0
1.014711304E1,8.196954346E-1,-1.841770020E0,3.200793915E0,3.782736985E0
1.015714504E1,1.571731567E0,-1.573378143E0,3.267704773E0,3.952689386E0
1.016717704E1,2.389630737E0,-1.620081024E0,2.656376038E0,3.923178716E0
1.017721004E1,3.098107452E0,-1.609902191E0,1.981728973E0,4.014636294E0
1.018724204E1,4.269421692E0,-1.860630798E0,1.896406403E0,5.028545097E0
1.019727404E1,6.820416870E0,-2.450853424E0,2.663112030E0,7.721200326E0
1.020730704E1,9.326655121E0,-3.397634583E0,4.408332825E0,1.086111480E1
1.021733904E1,1.129775620E1,-4.975952454E0,6.151308289E0,1.379267891E1
1.022737104E1,1.362631393E1,-6.634952545E0,7.046895905E0,1.671399918E1
1.023740404E1,1.670181839E1,-7.567812653E0,7.322472839E0,1.974439501E1
1.024743604E1,2.052995773E1,-7.238198090E0,7.772586823E0,2.311457943E1
1.025746904E1,2.387834473E1,-6.502178650E0,9.721833344E0,2.658886454E1
1.026750104E1,2.581217331E1,-6.335425415E0,1.209065735E1,2.919914213E1
1.027753304E1,2.740950165E1,-7.352709961E0,1.263776962E1,3.106535603E1
1.028756604E1,2.903182800E1,-9.387428741E0,1.263103363E1,3.302292940E1
1.029759804E1,2.870685379E1,-1.028017227E1,1.315269882E1,3.320781358E1
1.030763004E1,2.667438034E1,-8.983718262E0,1.292666885E1,3.097302904E1
1.031766304E1,2.462828522E1,-7.784861298E0,1.214843719E1,2.854366873E1
1.032769504E1,2.343272141E1,-7.753127289E0,1.184636536E1,2.737772429E1
1.033772704E1,2.373329636E1,-8.554411011E0,1.265303787E1,2.822315842E1
1.034776004E1,2.490221558E1,-9.361682281E0,1.413465683E1,3.012556986E1
1.035779204E1,2.585363708E1,-1.023152344E1,1.521196655E1,3.169382509E1
1.036782504E1,2.578582809E1,-1.037776932E1,1.677651306E1,3.246626583E1
1.037785704E1,2.528242493E1,-9.748927002E0,1.806233917E1,3.256517594E1
1.038788904E1,2.538975174E1,-9.508975983E0,1.627939682E1,3.162402376E1
1.039792204E1,2.456092529E1,-8.645122375E0,1.355266708E1,2.935390906E1
1.040795404E1,2.273337570E1,-6.691684570E0,1.179562088E1,2.647114816E1
1.041798604E1,2.019959473E1,-4.824018402E0,1.015667908E1,2.311823762E1
1.042801904E1,1.737392075E1,-3.566932526E0,8.362659760E0,1.960893184E1
1.043805104E1,1.422506882E1,-3.303031311E0,6.791077881E0,1.610532016E1
1.044808304E1,1.090751770E1,-3.310515747E0,5.782475281E0,1.278164611E1
1.045811604E1,7.579188995E0,-3.747307434E0,4.753065948E0,9.699384246E0
1.046814804E1,3.675905914E0,-4.095932465E0,3.874991913E0,6.730862454E0
1.047818104E1,-5.456153870E-1,-3.315156097E0,2.908900909E0,4.444059023E0
1.048821304E1,-4.565955048E0,-1.803599396E0,1.630409546E0,5.172924856E0
1.049824504E1,-8.233029327E0,-6.512956238E-1,2.380050659E-1,8.262179150E0
1.050827804E1,-1.147558640E1,-2.719844055E-1,-9.077124023E-1,1.151464287E1
1.051831004E1,-1.313698151E1,-6.843768311E-1,-1.005159760E0,1.319314219E1
1.052834204E1,-1.343261673E1,-1.668280792E0,-1.490899658E-1,1.353663846E1
1.053837504E1,-1.283131714E1,-1.998643799E0,9.618997192E-1,1.302161770E1
1.054840704E1,-1.039273819E1,-1.491797791E0,1.203946381E0,1.056806295E1
1.055844004E1,-7.348219299E0,-1.695524139E0,9.836045837E-1,7.605169752E0
1.056847204E1,-5.064568176E0,-1.790875854E0,8.909472656E-1,5.445261625E0
1.057850404E1,-3.841162262E0,-1.856289825E0,1.073268127E0,4.399118538E0
1.058853704E1,-2.394420776E0,-1.405277710E0,1.285826111E0,3.059641333E0
1.059856904E1,-6.509962463E-1,-8.451425171E-1,1.170266418E0,1.583535752E0
1.060860104E1,8.366102600E-1,-5.249583435E-1,9.300160217E-1,1.356623673E0
1.061863404E1,1.741029510E0,-3.008743286E-1,7.749385071E-1,1.929310449E0
1.062866604E1,2.193688202E0,-6.721023560E-2,8.623567200E-1,2.358059426E0
1.063869804E1,2.263293457E0,4.864883423E-2,8.812174988E-1,2.429281429E0
1.064873104E1,1.956281891E0,1.856140137E-1,7.104226685E-1,2.089543435E0
1.065876304E1,1.374890900E0,4.345463562E-1,5.255570984E-1,1.534720100E0
1.066879604E1,6.056405640E-1,7.833210754E-1,3.035687256E-1,1.035638147E0
1.067882804E1,-6.182144165E-2,1.307680664E0,-1.062789917E-2,1.309184312E0
1.068886004E1,-5.685177612E-1,1.949545898E0,-3.576063538E-1,2.061995140E0
1.069889304E1,-9.036708069E-1,2.336640930E0,-8.186476135E-1,2.635658491E0
1.070892504E1,-7.442523193E-1,2.195185089E0,-1.369352417E0,2.692187797E0
1.071895704E1,-2.977308655E-1,1.837878113E0,-1.873354340E0,2.641192175E0
1.072899004E1,4.550537109E-2,1.447789307E0,-2.073039093E0,2.528963364E0
1.073902204E1,5.038522339E-1,8.187973022E-1,-1.882934418E0,2.114175517E0
1.074905504E1,6.893165588E-1,2.167492676E-1,-1.477277985E0,1.644532702E0
1.075908704E1,8.789721680E-1,-2.314187622E-1,-1.134640503E0,1.453807342E0
1.076911904E1,1.058448944E0,-5.915698242E-1,-8.530760193E-1,1.482567947E0
1.077915204E1,1.201551361E0,-8.635542297E-1,-5.069956970E-1,1.564127942E0
1.078918404E1,1.345551910E0,-1.032103729E0,-6.541397095E-2,1.697064241E0
1.079921604E1,1.605261841E0,-1.340761871E0,5.179229736E-2,2.092173610E0
1.080924904E1,1.461560669E0,-1.706601105E0,-6.331832886E-2,2.247811409E0
1.081928104E1,1.258582764E0,-1.804048462E0,-2.365081787E-2,2.199813807E0
1.082931404E1,9.741741943E-1,-1.754501495E0,7.170089722E-2,2.008091601E0
1.083934604E1,6.469546509E-1,-1.559157715E0,1.556762695E-1,1.695216270E0
1.084937804E1,3.002755737E-1,-1.306782532E0,3.763174438E-1,1.392645261E0
1.085941104E1,-4.924758911E-2,-1.113085327E0,6.312373352E-1,1.280564268E0
1.086944304E1,-3.562591553E-2,-1.071920929E0,6.827302551E-1,1.271378891E0
1.087947504E1,3.263214111E-2,-1.305135956E0,7.478448486E-1,1.504565265E0
1.088950804E1,2.308200073E-1,-1.398990784E0,7.686515808E-1,1.612847898E0
1.089954004E1,7.946974182E-1,-1.455124054E0,9.892927551E-1,1.930707164E0
1.090957204E1,1.929038544E0,-1.727258148E0,1.730700989E0,3.114472078E0
1.091960504E1,3.309018860E0,-2.287093964E0,2.641257477E0,4.812135251E0
1.092963704E1,5.065765686E0,-3.264860687E0,3.084485779E0,6.770180929E0
1.093967004E1,7.232360229E0,-4.615352325E0,3.181484070E0,9.150429086E0
1.094970204E1,9.755513306E0,-5.605992279E0,3.126548309E0,1.167786340E1
1.095973404E1,1.300420761E1,-5.863905945E0,3.857478333E0,1.477751493E1
1.096976704E1,1.807117081E1,-5.459147644E0,5.242697754E0,1.959222772E1
1.097979904E1,2.475447281E1,-4.815186768E0,7.501949615E0,2.631062895E1
1.098983104E1,3.276940567E1,-6.760541382E0,1.063628174E1,3.510939129E1
1.099986404E1,3.997392380E1,-1.062310913E1,1.242521164E1,4.318739302E1
1.100989604E1,4.422732880E1,-1.238644226E1,1.311213318E1,4.776409322E1
1.101992904E1,4.392061661E1,-1.133742371E1,1.463895813E1,4.766399936E1
1.102996104E1,4.015160431E1,-9.809550934E0,1.602208191E1,4.432928746E1
1.103999304E1,3.379896469E1,-8.906179504E0,1.578422653E1,3.835142572E1
1.105002604E1,2.697001556E1,-8.015531616E0,1.375594437E1,3.131862851E1
1.106005804E1,2.148437302E1,-6.036047974E0,1.048943710E1,2.465847623E1
1.107009004E1,1.702799011E1,-3.147355042E0,8.130492554E0,1.913016467E1
1.108012304E1,1.404095169E1,-6.747967529E-1,5.901477814E0,1.524569170E1
1.109015504E1,1.230381409E1,1.071771240E-1,3.672163696E0,1.284056518E1
1.110018704E1,1.176104279E1,-1.248403931E0,2.829565887E0,1.216088331E1
1.111022004E1,1.184067719E1,-1.771865387E0,3.416645050E0,1.245048620E1
1.112025204E1,1.203826630E1,-1.739532623E0,3.558250580E0,1.267308078E1
1.113028504E1,1.274958710E1,-1.554068298E0,3.027005310E0,1.319582739E1
1.114031704E1,1.258268417E1,-2.584375763E0,2.906505890E0,1.317006893E1
1.115034904E1,1.199590439E1,-3.469185791E0,3.263214111E0,1.290680202E1
1.116038204E1,1.122306152E1,-3.877237244E0,3.873195648E0,1.248966465E1
1.117041404E1,1.001612137E1,-4.226910095E0,4.442611542E0,1.174420085E1
1.118044604E1,8.189020844E0,-4.604724426E0,4.917274475E0,1.060392086E1
1.119047904E1,7.102729797E0,-3.578009491E0,4.647685089E0,9.211509061E0
1.120051104E1,5.862109680E0,-2.526745605E0,3.511248322E0,7.285440140E0
1.121054404E1,5.379064178E0,-1.935175781E0,2.518213348E0,6.246649919E0
1.122057604E1,4.798122253E0,-1.351389771E0,2.088307343E0,5.404559096E0
1.123060804E1,3.667074280E0,-9.918374634E-1,1.675166473E0,4.151789739E0
1.124064104E1,2.766846313E0,-1.005459137E0,1.265468445E0,3.204340335E0
1.125067304E1,2.167342987E0,-9.204359436E-1,9.846524048E-1,2.552277083E0
1.126070504E1,1.815125427E0,-6.572831726E-1,8.241860962E-1,2.099043641E0
1.127073804E1,1.449136505E0,-5.938151550E-1,9.416917419E-1,1.827401539E0
1.128077004E1,1.197060699E0,-8.590635681E-1,1.132544861E0,1.858387041E0
1.129080204E1,1.065035248E0,-1.114731903E0,1.464554443E0,2.126463499E0
1.130083504E1,7.538323975E-1,-1.135838013E0,1.804647217E0,2.261668157E0
1.131086654E1,5.971083069E-1,-1.081501007E0,1.843566284E0,2.219215943E0
1.132089954E1,4.748126221E-1,-1.049766998E0,1.784439240E0,2.124071839E0
1.133093154E1,3.068618774E-1,-1.070723419E0,1.747466125E0,2.072257395E0
1.134096354E1,3.321592712E-1,-1.025667114E0,1.701811066E0,2.014567873E0
1.135099654E1,4.809498596E-1,-9.638456726E-1,1.655108185E0,1.974764379E0
1.136102854E1,7.458988953E-1,-1.037043457E0,1.425485687E0,1.914114348E0
1.137106054E1,9.508227539E-1,-1.106049957E0,1.279090118E0,1.939969574E0
1.138109354E1,1.285526733E0,-9.843530273E-1,1.577120361E0,2.260273988E0
1.139112554E1,1.579964447E0,-8.300239563E-1,1.936822357E0,2.633725169E0
1.140115854E1,2.081421661E0,-9.726773071E-1,2.223775635E0,3.197435746E0
1.141119054E1,2.717299347E0,-1.068927155E0,2.238445129E0,3.679260469E0
1.142122254E1,3.325634308E0,-1.056502991E0,2.324965210E0,4.193030568E0
1.143125554E1,3.375330963E0,-1.172661438E0,2.761756897E0,4.516115047E0
1.144128754E1,3.319646759E0,-9.228309631E-1,2.918780365E0,4.515633999E0
1.145131954E1,4.427043915E0,-6.800358582E-1,2.534230042E0,5.146211081E0
1.146135254E1,6.022725677E0,-9.113049316E-1,1.669627991E0,6.315960647E0
1.147138454E1,7.454498291E0,-1.198258209E0,1.296903076E0,7.660765307E0
1.148141754E1,8.528365173E0,-1.351838837E0,1.666035461E0,8.794097733E0
1.149144954E1,1.015233810E1,-1.996099091E0,2.819836121E0,1.072407834E1
1.150148154E1,1.191941345E1,-3.469485168E0,3.684737549E0,1.294940289E1
1.151151454E1,1.246248413E1,-4.873715057E0,4.816084900E0,1.422185933E1
1.152154654E1,1.335612579E1,-5.742059326E0,6.454427948E0,1.590650753E1
1.153157854E1,1.611997833E1,-5.846242676E0,6.695576477E0,1.840823183E1
1.154161154E1,1.915671341E1,-5.491480408E0,6.627917175E0,2.100155499E1
1.155164354E1,2.228715363E1,-5.811514893E0,6.586154022E0,2.395554940E1
1.156167654E1,2.504891052E1,-7.603438568E0,6.909032593E0,2.707387907E1
1.157170854E1,2.654924057E1,-9.926607513E0,8.151448975E0,2.949314890E1
1.158174054E1,2.727582962E1,-1.206251587E1,1.006611740E1,3.147700574E1
1.159177354E1,2.727118927E1,-1.308623703E1,1.142080032E1,3.233267765E1
1.160180554E1,2.718571701E1,-1.329625031E1,1.217927307E1,3.262189716E1
1.161183754E1,2.665297485E1,-1.318982162E1,1.221130646E1,3.214760440E1
1.162187054E1,2.607098511E1,-1.244661713E1,1.219394257E1,3.135772278E1
1.163190254E1,2.544977692E1,-1.174173294E1,1.242940292E1,3.066022659E1
1.164193554E1,2.539109894E1,-1.125853775E1,1.261352005E1,3.050513835E1
1.165196754E1,2.418820038E1,-1.037282959E1,1.341959381E1,2.954234468E1
1.166199954E1,2.304502762E1,-1.019829254E1,1.333980972E1,2.851366325E1
1.167203254E1,2.214539841E1,-1.022987686E1,1.260977783E1,2.746043605E1
1.168206454E1,2.098710709E1,-9.773475952E0,1.194770462E1,2.605239225E1
1.169209654E1,1.954695190E1,-9.352551270E0,1.086425766E1,2.424016581E1
1.170212954E1,1.842009521E1,-8.853339386E0,9.452842712E0,2.251749900E1
1.171216154E1,1.700059708E1,-8.161178741E0,8.503217468E0,2.068646530E1
1.172219354E1,1.541030411E1,-7.843838654E0,7.337441711E0,1.878407113E1
1.173222654E1,1.374127487E1,-8.133186951E0,6.079008636E0,1.708583364E1
1.174225854E1,1.234602631E1,-7.924520874E0,4.978796539E0,1.549228232E1
1.175229154E1,1.097921860E1,-7.037016449E0,4.309238892E0,1.373435042E1
1.176232354E1,8.652157745E0,-5.729784851E0,3.408112793E0,1.092270575E1
1.177235554E1,4.860991516E0,-4.278403015E0,2.144290924E0,6.821433460E0
1.178238854E1,1.214424591E0,-2.609673157E0,1.633553009E0,3.309639936E0
1.179242054E1,-1.253643036E0,-1.254541168E0,7.216493225E-1,1.914751198E0
1.180245254E1,-3.953728180E0,4.948709106E-1,-2.499801636E-2,3.984656653E0
1.181248554E1,-5.512436829E0,1.221609650E0,-5.710624695E-1,5.674980376E0
1.182251754E1,-6.243217163E0,7.029382324E-1,1.546284485E-1,6.284567818E0
1.183255054E1,-7.465275879E0,7.782316589E-1,6.277944946E-1,7.531939617E0
1.184258254E1,-7.959997101E0,9.208850098E-1,6.439608765E-1,8.038922108E0
1.185261454E1,-7.793692932E0,9.536668396E-1,4.463717651E-1,7.864501110E0
1.186264754E1,-7.040608978E0,8.741821289E-1,3.797602844E-1,7.104828432E0
1.187267954E1,-5.888903961E0,3.088078308E-1,8.652008057E-2,5.897629851E0
1.188271154E1,-4.687202911E0,7.982899475E-1,-1.381626892E-1,4.756703365E0
1.189274454E1,-3.340453491E0,9.717791748E-1,9.729766846E-2,3.480294690E0
1.190277654E1,-2.313139801E0,5.194198608E-1,1.487905884E-1,2.375405517E0
1.191280954E1,-1.404229889E0,2.050735474E-2,3.841012573E-1,1.455958759E0
1.192284154E1,-8.171507263E-1,-3.278182983E-1,8.608598328E-1,1.231373135E0
1.193287354E1,-2.224374390E-1,-4.019142151E-1,1.245110779E0,1.327145170E0
1.194290654E1,5.242098999E-1,-6.858737183E-1,1.624421997E0,1.839555816E0
1.195293854E1,1.229094086E0,-8.864566040E-1,1.861678619E0,2.400484298E0
1.196297054E1,1.801354065E0,-7.002438354E-1,1.704206085E0,2.576729764E0
1.197300354E1,2.170935516E0,-3.826043701E-1,1.388213196E0,2.605087906E0
1.198303554E1,2.539020081E0,-3.044668579E-1,8.159532166E-1,2.684232234E0
1.199306854E1,2.847827911E0,-3.357518005E-1,3.450325012E-1,2.888234844E0
1.200310054E1,2.590063934E0,-3.272195435E-1,9.340576172E-2,2.612322425E0
1.201313254E1,2.581831055E0,-2.023791504E-1,-1.113684082E-1,2.592144255E0
1.202316554E1,2.659818878E0,-2.492317200E-1,-3.263214111E-1,2.691326546E0
1.203319754E1,2.644850006E0,-1.913021851E-1,-5.553451538E-1,2.709287050E0
1.204322954E1,2.545307007E0,-2.799179077E-2,-6.923103333E-1,2.637928145E0
1.205326254E1,2.432292023E0,-9.355545044E-2,-8.273295593E-1,2.570850308E0
1.206329454E1,2.192640381E0,-8.801696777E-2,-8.396040344E-1,2.349543309E0
1.207332754E1,1.997895355E0,-4.071533203E-2,-5.828878784E-1,2.081586382E0
1.208335954E1,1.873204651E0,-1.646575928E-2,-4.451742554E-1,1.925447196E0
1.209339154E1,1.520837402E0,-5.763015747E-2,-5.203179932E-1,1.608414888E0
1.210342454E1,1.141376495E0,-8.457412720E-2,-3.926335144E-1,1.209981059E0
1.211345654E1,6.659651184E-1,-1.646575928E-3,-2.351609802E-1,7.062669019E-1
1.212348854E1,1.926493835E-1,2.095642090E-2,-2.423460388E-1,3.102975332E-1
1.213352154E1,-7.589218140E-2,-6.182144165E-2,-1.895059204E-1,2.132932435E-1
1.214355354E1,-4.754113770E-1,-5.418731689E-2,3.382965088E-2,4.796839459E-1
1.215358654E1,-8.635542297E-1,-9.086105347E-2,1.781295776E-1,8.864038499E-1
1.216361854E1,-8.846603394E-1,-3.682342529E-1,2.164498901E-1,9.823802400E-1
1.217365054E1,-1.030606842E0,-5.272036743E-1,3.921844482E-1,1.222253173E0
1.218368354E1,-1.399439850E0,-4.023632813E-1,6.611750793E-1,1.599212490E0
1.219371554E1,-1.157243500E0,-4.372407532E-1,5.173242188E-1,1.340901317E0
1.220374754E1,-1.703457642E-1,-5.155279541E-1,4.435276794E-1,7.010731440E-1
1.221378054E1,5.806425476E-1,-7.819738770E-1,8.261320496E-1,1.277154288E0
1.222381254E1,1.072369995E0,-8.948391724E-1,1.057251434E0,1.751712061E0
1.223384554E1,2.430046692E0,-1.176253967E0,1.032852173E0,2.890585396E0
1.224387754E1,3.407214661E0,-1.842368774E0,8.716374207E-1,3.970287929E0
1.225390954E1,4.987179108E0,-3.065774689E0,7.768844604E-1,5.905461824E0
1.226394254E1,7.023993530E0,-4.650229797E0,1.269360352E0,8.518943478E0
1.227397454E1,9.049880676E0,-5.770350494E0,2.219434662E0,1.096007187E1
1.228400654E1,1.430829575E1,-6.118376770E0,4.081861725E0,1.608799107E1
1.229403954E1,2.565574860E1,-7.402107239E0,7.394473114E0,2.770716262E1
1.230407217E1,3.667777817E1,-9.623487854E0,9.590706024E0,3.911332985E1
1.231410517E1,4.365836197E1,-1.072519684E1,1.019859192E1,4.609873853E1
1.232413717E1,4.714311539E1,-1.153276749E1,1.101993393E1,4.976863468E1
1.233416917E1,4.675781662E1,-1.158725418E1,1.211640381E1,4.967257911E1
1.234420217E1,4.300527008E1,-9.480385437E0,1.262280075E1,4.581120018E1
1.235423417E1,3.624053741E1,-7.107669525E0,1.083806213E1,3.848842825E1
1.236426617E1,2.870161469E1,-5.771248627E0,9.281299438E0,3.071209071E1
1.237429917E1,2.091615463E1,-4.336931305E0,8.221952362E0,2.288875266E1
1.238433117E1,1.712169525E1,-3.122506714E0,6.713838501E0,1.865417176E1
1.239436417E1,1.488744141E1,-2.532433777E0,5.866151276E0,1.620064391E1
1.240439617E1,1.317964279E1,-3.585643616E0,5.015021210E0,1.455026673E1
1.241442817E1,1.302246964E1,-3.850592651E0,4.322710876E0,1.425123182E1
1.242446117E1,1.305794586E1,-4.264182587E0,3.909719696E0,1.428212559E1
1.243449317E1,1.306572968E1,-4.586462402E0,3.908971252E0,1.438850185E1
1.244452517E1,1.316392548E1,-5.044659576E0,3.785178680E0,1.459674970E1
1.245455817E1,1.291708878E1,-5.485792236E0,3.508853302E0,1.446572329E1
1.246459017E1,1.223929825E1,-4.878954163E0,3.032843170E0,1.352045683E1
1.247462317E1,1.099688187E1,-3.567531281E0,2.321821747E0,1.179192717E1
1.248465517E1,9.973160706E0,-2.672841797E0,2.188598785E0,1.055452426E1
1.249468717E1,8.853040009E0,-2.306403809E0,2.034868469E0,9.372113188E0
1.250472017E1,7.877219238E0,-2.089055786E0,1.743574219E0,8.333953927E0
1.251475217E1,6.730903015E0,-1.615440674E0,1.459614716E0,7.074261734E0
1.252478517E1,5.408552856E0,-9.493258667E-1,1.153201904E0,5.611019358E0
1.253481717E1,4.130809937E0,-4.041595459E-1,7.237449646E-1,4.213162998E0
1.254484917E1,2.975362701E0,-4.885839844E-1,5.153782654E-1,3.058939730E0
1.255488217E1,1.836979980E0,-7.476951599E-1,5.777984619E-1,2.065767306E0
1.256491417E1,7.216493225E-1,-8.824150085E-1,8.292755127E-1,1.409656649E0
1.257494617E1,2.978805542E-2,-8.360115051E-1,1.056053925E0,1.347238827E0
1.258497917E1,-4.938230896E-1,-5.225633240E-1,1.241218872E0,1.434419032E0
1.259501117E1,-1.066681824E0,-6.162684631E-1,1.219963074E0,1.733755125E0
1.260504417E1,-1.496138763E0,-4.466711426E-1,9.981243896E-1,1.853159088E0
1.261507617E1,-1.589544525E0,-2.047741699E-1,7.111711121E-1,1.753382049E0
1.262510817E1,-1.504371643E0,-2.962339783E-1,5.942642212E-1,1.644396113E0
1.263514117E1,-1.403780823E0,-2.369572449E-1,5.351371765E-1,1.520894846E0
1.264517317E1,-1.265917511E0,-1.110690308E-1,4.397854614E-1,1.344728495E0
1.265520517E1,-9.756710815E-1,1.181044006E-1,2.526745605E-1,1.014754720E0
1.266523817E1,-4.876858521E-1,3.448828125E-1,2.398013306E-1,6.436507770E-1
1.267527017E1,-2.198927307E-1,2.613565063E-1,4.083508301E-1,5.323630686E-1
1.268530317E1,1.260379028E-1,-2.260299683E-2,7.204518127E-1,7.317426207E-1
1.269533517E1,4.221221924E-1,-2.119592285E-1,1.163231049E0,1.255476138E0
1.270536717E1,8.622070313E-1,-2.189945984E-1,1.271006927E0,1.551392345E0
1.271540017E1,1.465302887E0,-8.038284302E-2,1.024469604E0,1.789723979E0
1.272543217E1,2.313888245E0,7.798782349E-2,9.304650879E-1,2.495180592E0
1.273546417E1,3.259771271E0,7.514373779E-2,9.288185120E-1,3.390347939E0
1.274549717E1,4.769232330E0,-2.888992310E-1,7.674540710E-1,4.839217451E0
1.275552917E1,6.381080475E0,-9.662406921E-1,1.311123505E0,6.585655165E0
1.276556217E1,7.890990601E0,-1.832040253E0,2.381397858E0,8.443646126E0
1.277559417E1,9.635163574E0,-2.801873474E0,3.619473267E0,1.066712045E1
1.278562617E1,1.226878693E1,-3.894301758E0,4.387975159E0,1.359937663E1
1.279565917E1,1.558828400E1,-5.197641449E0,4.875960388E0,1.714015940E1
1.280569117E1,1.950698502E1,-6.954987030E0,4.746629333E0,2.124675973E1
1.281572317E1,2.435884552E1,-8.803642731E0,4.376299438E0,2.626803147E1
1.282575617E1,2.868035889E1,-1.058972855E1,4.098028107E0,3.084638019E1
1.283578817E1,3.078348541E1,-1.150627258E1,4.516258392E0,3.317248668E1
1.284582117E1,3.080459152E1,-1.122036713E1,5.367687836E0,3.322095077E1
1.285585317E1,2.973237122E1,-1.113055389E1,6.588998108E0,3.242403467E1
1.286588517E1,2.888797714E1,-1.140508301E1,8.004155273E0,3.207269311E1
1.287591817E1,2.808654373E1,-1.125554398E1,8.679850159E0,3.147826246E1
1.288595017E1,2.617861130E1,-9.876162415E0,9.220076752E0,2.945960096E1
1.289598217E1,2.488036102E1,-9.242979126E0,9.165290680E0,2.807966490E1
1.290601517E1,2.456406876E1,-1.027628036E1,8.628955994E0,2.799025355E1
1.291604717E1,2.388283539E1,-1.135478760E1,8.745413818E0,2.785324560E1
1.292608017E1,2.363150803E1,-1.132484985E1,8.821455688E0,2.764992724E1
1.293611217E1,2.393822021E1,-1.090991272E1,8.963659973E0,2.779229718E1
1.294614417E1,2.436094116E1,-1.004052063E1,8.371790771E0,2.764695986E1
1.295617717E1,2.441797256E1,-9.461374969E0,7.508086853E0,2.724199642E1
1.296620917E1,2.376428192E1,-8.357121277E0,7.197782135E0,2.619905798E1
1.297624217E1,2.207699066E1,-7.120692444E0,6.619384918E0,2.412289440E1
1.298627417E1,1.990740234E1,-6.470444641E0,5.808970184E0,2.172361518E1
1.299630617E1,1.711825241E1,-5.159321136E0,5.145250397E0,1.860448231E1
1.300633917E1,1.424991714E1,-3.978127441E0,4.807852020E0,1.555638382E1
1.301637117E1,1.110211304E1,-3.783532104E0,4.542753296E0,1.257810147E1
1.302640317E1,7.962242432E0,-3.525468750E0,4.394112396E0,9.753689466E0
1.303643617E1,4.961133270E0,-3.273093567E0,4.391567688E0,7.389983192E0
1.304646817E1,2.392474823E0,-2.753823395E0,4.673132172E0,5.928376115E0
1.305650117E1,8.605604553E-1,-1.593286743E0,4.102518768E0,4.484393737E0
1.306653317E1,1.692979431E-1,1.338217163E-1,3.117117920E0,3.124579039E0
1.307656517E1,-6.463558960E-1,1.289268951E0,1.989213409E0,2.457022662E0
1.308659817E1,-1.861828308E0,1.216220856E0,7.155120850E-1,2.336141126E0
1.309663017E1,-3.410208435E0,6.821315002E-1,6.146218872E-1,3.531654714E0
1.310666317E1,-4.571194153E0,4.462220764E-1,1.492695923E0,4.829396571E0
1.311669517E1,-4.167783051E0,-1.063987427E0,1.693129120E0,4.622680069E0
1.312672717E1,-3.971541138E0,-3.375330963E0,1.527872772E0,5.431426454E0
1.313676017E1,-4.481530609E0,-3.483106842E0,1.419198761E0,5.850664492E0
1.314679217E1,-5.155578918E0,-1.719624023E0,8.876541138E-1,5.506816739E0
1.315682417E1,-4.874014435E0,-6.497987366E-1,1.469943237E-1,4.919335569E0
1.316685717E1,-3.916605377E0,-1.207987976E-1,-4.082011414E-1,3.939672347E0
1.317688917E1,-2.344424744E0,1.061293030E-1,-7.264393616E-1,2.456685766E0
1.318692217E1,-8.126600647E-1,1.984872437E-1,-6.387217712E-1,1.052510840E0
1.319695417E1,2.453398132E-1,1.070274353E-1,-3.336561584E-1,4.277533494E-1
1.320698617E1,1.030606842E0,-1.100212097E-1,-2.209405518E-1,1.059749903E0
1.321701917E1,1.839824066E0,-3.534150696E-1,-1.800755310E-1,1.882095110E0
1.322705117E1,2.716550903E0,-5.071453857E-1,8.262817383E-2,2.764719275E0
1.323708317E1,3.452121277E0,-6.568341064E-1,3.983216858E-1,3.536556591E0
1.324711617E1,3.878734131E0,-7.500901794E-1,6.468049622E-1,4.003195023E0
1.325714817E1,4.202510834E0,-6.465055847E-1,7.759863281E-1,4.322177872E0
1.326718117E1,4.333937531E0,-3.499722290E-1,7.006929016E-1,4.404141871E0
1.327721317E1,4.233197021E0,-9.610015869E-2,3.088078308E-1,4.245533481E0
1.328724517E1,4.073778534E0,4.715194702E-2,-3.293151855E-3,4.074052736E0
1.329727817E1,3.775149536E0,1.375639343E-1,-1.312770081E-1,3.779935384E0
1.330731054E1,3.298540649E0,3.411405945E-1,-2.788700867E-1,3.327839516E0
1.331734354E1,2.845582581E0,5.721102905E-1,-4.679269409E-1,2.940001025E0
1.332737554E1,2.640958099E0,5.719606018E-1,-6.225553894E-1,2.772972020E0
1.333740754E1,2.519111481E0,4.698728943E-1,-8.051756287E-1,2.686077248E0
1.334744054E1,2.065554657E0,4.739144897E-1,-9.574090576E-1,2.325455458E0
1.335747254E1,1.585203552E0,4.906796265E-1,-8.381071472E-1,1.859048248E0
1.336750454E1,1.011147308E0,3.836521912E-1,-6.340814209E-1,1.253661490E0
1.337753754E1,3.603007507E-1,1.998344421E-1,-3.206332397E-1,5.220690660E-1
1.338756954E1,-9.505233765E-2,-1.077758789E-2,9.595046997E-2,1.354902062E-1
1.339760254E1,-3.098556519E-1,-1.788780212E-1,2.942880249E-1,4.632637619E-1
1.340763454E1,-7.538323975E-1,-1.110690308E-1,1.342707825E-1,7.737107057E-1
1.341766654E1,-1.012195129E0,1.600172424E-1,-3.168910217E-1,1.072643658E0
1.342769954E1,-1.283730469E0,6.971003723E-1,-6.161187744E-1,1.585406948E0
1.343773154E1,-1.592089233E0,1.037193146E0,-8.164022827E-1,2.068098266E0
1.344776454E1,-1.603166199E0,1.052760773E0,-7.294331360E-1,2.051955118E0
1.345779654E1,-1.619182892E0,8.860075378E-1,-3.570075989E-1,1.879951334E0
1.346782854E1,-1.424138489E0,4.673281860E-1,1.854643250E-1,1.510285763E0
1.347786154E1,-8.484356689E-1,-1.721420288E-1,9.020242310E-1,1.250249445E0
1.348789354E1,3.731739807E-1,-7.800279236E-1,1.317410431E0,1.575840292E0
1.349792554E1,2.528392181E0,-1.358275452E0,1.659898224E0,3.315560486E0
1.350795854E1,5.025798798E0,-1.652563477E0,1.891167297E0,5.618374618E0
1.351799054E1,7.055877228E0,-1.624272308E0,1.952988739E0,7.499188556E0
1.352802354E1,9.308842163E0,-1.297501831E0,1.672172699E0,9.546424197E0
1.353805554E1,1.136182297E1,-1.330583038E0,1.910477142E0,1.159790478E1
1.354808754E1,1.367945343E1,-2.978805542E0,2.608775024E0,1.424101245E1
1.355812054E1,1.754621246E1,-5.890550537E0,3.504063263E0,1.883737287E1
1.356815254E1,2.477812363E1,-8.890611877E0,6.053112488E0,2.701182261E1
1.357818554E1,3.447136642E1,-1.072010742E1,9.635163574E0,3.736351407E1
1.358821754E1,4.196388565E1,-1.033630554E1,1.113534393E1,4.462961792E1
1.359824954E1,4.579007904E1,-9.918823700E0,1.013138168E1,4.793494860E1
1.360828254E1,4.520958618E1,-8.954528961E0,9.485025787E0,4.705375634E1
1.361831454E1,4.008499283E1,-6.065836029E0,9.993518372E0,4.175489703E1
1.362834654E1,3.375645309E1,-3.851939850E0,1.012898666E1,3.545323592E1
1.363837954E1,2.527239578E1,-2.609224091E0,8.580307159E0,2.681648206E1
1.364841154E1,1.868624176E1,-1.873504028E0,5.695206757E0,1.962450072E1
1.365844454E1,1.638851990E1,-8.343649292E-1,3.206781464E0,1.672014344E1
1.366847654E1,1.389635239E1,6.240522766E-1,1.597627716E0,1.400180221E1
1.367850854E1,1.317515213E1,-1.407523041E0,1.528920593E0,1.333804157E1
1.368854154E1,1.448028809E1,-2.365381165E0,1.407523041E0,1.473956893E1
1.369857354E1,1.486154526E1,-2.226470032E0,1.763482819E0,1.513051777E1
1.370860554E1,1.438628357E1,-2.574196930E0,1.035097504E0,1.465138463E1
1.371863854E1,1.411385010E1,-2.705174561E0,2.309696960E-1,1.437261566E1
1.372867054E1,1.329146027E1,-2.363584900E0,2.975811768E-1,1.350325902E1
1.373870354E1,1.171778275E1,-2.098935242E0,2.447410583E-1,1.190679889E1
1.374873554E1,1.006432114E1,-2.060914307E0,8.083190918E-3,1.027316860E1
1.375876754E1,8.751101990E0,-1.946552124E0,3.623963928E-1,8.972300839E0
1.376880054E1,7.419620819E0,-1.812730408E0,7.247927856E-1,7.672163268E0
1.377883254E1,6.208489380E0,-1.877395935E0,6.631210327E-1,6.519945198E0
1.378886554E1,5.331912231E0,-1.397643585E0,7.536827087E-1,5.563338320E0
1.379889754E1,4.854255524E0,-4.538562012E-1,1.249451752E0,5.032982398E0
1.380892954E1,4.216431885E0,2.347119141E-1,1.531764679E0,4.492181046E0
1.381896254E1,3.353476410E0,4.647834778E-1,1.603166199E0,3.745927065E0
1.382899454E1,2.505190430E0,6.096821594E-1,1.732497253E0,3.106322288E0
1.383902754E1,1.616338806E0,5.116360474E-1,1.157842255E0,2.053027342E0
1.384905954E1,7.858657837E-1,5.882766724E-2,4.658312988E-1,9.154477174E-1
1.385909154E1,-2.395019531E-2,-1.142124939E-1,3.730242920E-1,3.908519260E-1
1.386912454E1,-5.480104065E-1,-1.591191101E-1,4.456233215E-1,7.240265475E-1
1.387915654E1,-5.692662048E-1,-4.002676392E-1,6.007008362E-1,9.193039158E-1
1.388918854E1,-4.785548401E-1,-7.104226685E-1,7.954458618E-1,1.168952190E0
1.389922154E1,-5.004093933E-1,-8.541238403E-1,8.014334106E-1,1.273668955E0
1.390925354E1,-6.159690857E-1,-8.894503784E-1,7.128176880E-1,1.295626855E0
1.391928654E1,-6.271957397E-1,-7.866142273E-1,6.644682312E-1,1.205675939E0
1.392931854E1,-3.671864319E-1,-7.637118530E-1,5.267546082E-1,9.977735652E-1
1.393935054E1,-7.798782349E-2,-6.896159363E-1,3.698808289E-1,7.864248646E-1
1.394938354E1,2.736309814E-1,-6.131250000E-1,3.192860413E-1,7.434646971E-1
1.395941554E1,6.884184265E-1,-5.987548828E-1,1.731898499E-1,9.286668206E-1
1.396944754E1,9.044192505E-1,-5.703140259E-1,2.520758057E-1,1.098532876E0
1.397948054E1,1.002016296E0,-4.812492371E-1,8.433462524E-1,1.395302974E0
1.398951254E1,1.196461945E0,-5.104385376E-1,1.525477753E0,2.004782048E0
1.399954554E1,1.560654602E0,-7.161108398E-1,1.625020752E0,2.364138314E0
1.400957754E1,1.756597137E0,-7.123686218E-1,1.748663635E0,2.578939136E0
1.401960954E1,2.466421051E0,-6.884184265E-1,1.757944336E0,3.106045882E0
1.402964254E1,3.808679810E0,-7.741900635E-1,2.193987579E0,4.463069980E0
1.403967454E1,5.273683319E0,-8.527766418E-1,2.719844055E0,5.994707285E0
1.404970754E1,6.550827484E0,-6.572831726E-1,2.437980194E0,7.020620295E0
1.405973954E1,7.880961456E0,-5.188211060E-1,2.027833099E0,8.154191308E0
1.406977154E1,9.262288971E0,-7.271878052E-1,2.094444580E0,9.523943363E0
1.407980454E1,1.055515045E1,-1.332379303E0,2.957250366E0,1.104227175E1
1.408983654E1,1.270917114E1,-2.455044708E0,4.323309631E0,1.364702465E1
1.409986954E1,1.673430084E1,-3.877686310E0,6.057902527E0,1.821459467E1
1.410990154E1,2.142524597E1,-4.775818634E0,7.279661865E0,2.312667476E1
1.411993354E1,2.548689972E1,-5.214107208E0,8.678952026E0,2.742431730E1
1.412996654E1,2.734289017E1,-4.460574188E0,9.782606964E0,2.938077201E1
1.413999854E1,2.844594635E1,-4.438270569E0,1.044662613E1,3.062682006E1
1.415003054E1,3.063903580E1,-5.440137177E0,1.200952606E1,3.335527430E1
1.416006354E1,3.362143387E1,-6.880442047E0,1.260962814E1,3.656151009E1
1.417009554E1,3.582515121E1,-7.941286011E0,1.250739075E1,3.876777407E1
1.418012854E1,3.643513275E1,-8.335266724E0,1.145388153E1,3.909203208E1
1.419016054E1,3.482388336E1,-7.774832153E0,1.162572418E1,3.752743437E1
1.420019254E1,3.159150513E1,-7.431895294E0,1.245455063E1,3.476164690E1
1.421022554E1,2.864548141E1,-7.758665771E0,1.286499710E1,3.234607628E1
1.422025754E1,2.615376297E1,-7.764204254E0,1.294148804E1,3.019576622E1
1.423029054E1,2.499996231E1,-7.645950165E0,1.249601440E1,2.897600810E1
1.424032254E1,2.520443710E1,-7.494914246E0,1.175505524E1,2.880310249E1
1.425035454E1,2.544378937E1,-6.994504852E0,1.088566315E1,2.854482751E1
1.426038754E1,2.505849060E1,-6.529871063E0,1.060769119E1,2.798375028E1
1.427041954E1,2.368958725E1,-5.610632629E0,1.004965164E1,2.633763924E1
1.428045154E1,2.232741989E1,-4.583917694E0,8.160879364E0,2.421003784E1
1.429048454E1,2.050151688E1,-3.578907623E0,6.045478363E0,2.167183847E1
1.430051654E1,1.811383209E1,-2.772684174E0,4.524042206E0,1.887500062E1
1.431054904E1,1.563259186E1,-2.067799988E0,3.322939911E0,1.611507538E1
1.432058104E1,1.313279022E1,-1.546284485E0,2.056723022E0,1.338249918E1
1.433061304E1,1.051608170E1,-1.273851013E0,1.215173035E0,1.066242543E1
1.434064604E1,7.361242218E0,-9.785151672E-1,8.867559814E-1,7.478750905E0
1.435067804E1,3.711831207E0,-6.494993591E-1,5.134323120E-1,3.803045236E0
1.436071104E1,-1.610650635E-1,-7.057823181E-1,1.790277100E-1,7.457355806E-1
1.437074304E1,-3.292852478E0,-1.855391693E0,8.831634521E-2,3.780628989E0
1.438077504E1,-5.859564972E0,-2.865042114E0,-1.034349060E-1,6.523317159E0
1.439080804E1,-7.488926697E0,-3.529510345E0,-2.941383362E-1,8.284200849E0
1.440084004E1,-8.385861511E0,-3.913012848E0,-3.562591553E-1,9.260737736E0
1.441087204E1,-8.573271790E0,-3.793261871E0,-3.637435913E-1,9.382011202E0
1.442090504E1,-8.031398621E0,-2.769840088E0,-2.387535095E-1,8.498963534E0
1.443093704E1,-6.983278198E0,-1.868264923E0,-9.285191345E-1,7.288260149E0
1.444097004E1,-6.891818390E0,-1.405577087E-1,-1.173559570E0,6.992435860E0
1.445100204E1,-6.766977997E0,1.639091492E0,-1.018032990E0,7.036689797E0
1.446103404E1,-6.152206421E0,2.005679169E0,-6.503974915E-1,6.503492113E0
1.447106704E1,-5.411247253E0,1.569186859E0,-1.782792664E-1,5.636996340E0
1.448109904E1,-4.064048767E0,7.141648865E-1,8.846603394E-2,4.127269086E0
1.449113204E1,-2.931054840E0,2.953358459E-1,4.799020386E-1,2.984729754E0
1.450116404E1,-1.909728699E0,2.116598511E-1,4.947212219E-1,1.984089888E0
1.451119604E1,-1.155746613E0,1.631607056E-2,2.914439392E-1,1.192038597E0
1.452122904E1,-8.846603394E-1,-1.844165039E-1,2.543211365E-1,9.387825112E-1
1.453126104E1,-5.123844910E-1,-2.469863892E-1,4.782554626E-1,7.431476506E-1
1.454129404E1,-4.939727783E-2,-6.631210327E-2,6.289920044E-1,6.344039153E-1
1.455132604E1,5.864804077E-1,1.293310547E-1,8.357121277E-1,1.029126110E0
1.456135804E1,9.753717041E-1,2.195933533E-1,1.229992218E0,1.585071626E0
1.457139104E1,1.275796967E0,2.836601257E-1,1.254241791E0,1.811420282E0
1.458142304E1,1.828597412E0,3.089575195E-1,1.258133698E0,2.241009515E0
1.459145504E1,2.540067902E0,2.374063110E-1,1.498683472E0,2.958776580E0
1.460148804E1,2.916684723E0,7.544311523E-2,1.636397095E0,3.345225985E0
1.461152004E1,2.904559937E0,-1.561253357E-1,1.671124878E0,3.354623958E0
1.462155304E1,2.891986084E0,-3.153941345E-1,1.434616699E0,3.243637163E0
1.463158504E1,2.837948456E0,-3.601510620E-1,9.246272278E-1,3.006425741E0
1.464161704E1,2.809507599E0,-2.935395813E-1,8.199948120E-1,2.941409513E0
1.465165004E1,2.556833038E0,-1.892065430E-1,7.936495972E-1,2.683854315E0
1.466168204E1,2.118245087E0,4.625381470E-2,4.418811035E-1,2.164338368E0
1.467171504E1,1.802252197E0,2.375559998E-1,7.619155884E-2,1.819436998E0
1.468174704E1,1.682800598E0,2.134561157E-1,-7.229965210E-2,1.697824669E0
1.469177904E1,1.370699615E0,-8.741821289E-2,-8.637039185E-2,1.376197378E0
1.470181204E1,8.623567200E-1,-3.520678711E-1,5.313949585E-2,9.329709022E-1
1.471184404E1,4.929249573E-1,-4.707710266E-1,1.809736633E-1,7.052317632E-1
1.472187704E1,2.850073242E-1,-4.677772522E-1,-3.891906738E-2,5.491442673E-1
1.473190904E1,1.893562317E-1,-4.878355408E-1,-1.802252197E-1,5.534622184E-1
1.474194104E1,6.676116943E-2,-4.876858521E-1,-1.871109009E-1,5.265976009E-1
1.475197404E1,-8.008346558E-2,-4.622387695E-1,-2.704875183E-1,5.415178105E-1
1.476200604E1,-2.146536255E-1,-5.923182678E-1,-3.341052246E-1,7.131222970E-1
1.477203904E1,-3.603007507E-1,-8.340655518E-1,-2.052232361E-1,9.314497046E-1
1.478207104E1,-4.314028931E-1,-1.051712952E0,8.023315430E-2,1.139581479E0
1.479210304E1,1.960922241E-2,-1.188528442E0,5.239105225E-2,1.189844192E0
1.480213604E1,8.577163696E-1,-1.538949738E0,1.440005493E-1,1.767704677E0
1.481216804E1,2.107018433E0,-2.054926758E0,6.292913818E-1,3.009694054E0
1.482220004E1,3.542233887E0,-2.651136932E0,1.570683746E0,4.694996845E0
1.483223304E1,5.261857910E0,-3.699257355E0,2.134411469E0,6.776973215E0
1.484226504E1,6.646927643E0,-4.961133270E0,2.356848907E0,8.622599793E0
1.485229804E1,7.677235107E0,-6.243965607E0,3.013683014E0,1.034453144E1
1.486233004E1,1.024065445E1,-6.963369598E0,4.565505981E0,1.319861222E1
1.487236204E1,1.739457779E1,-7.677085419E0,5.754633179E0,1.986516499E1
1.488239504E1,3.028472260E1,-8.718020782E0,8.163873138E0,3.255483272E1
1.489242704E1,4.127681442E1,-1.055425232E1,1.181403259E1,4.421243057E1
1.490246004E1,4.442057693E1,-1.269959106E1,1.315644104E1,4.803706079E1
1.491249204E1,4.313774460E1,-1.243284576E1,1.296079788E1,4.672711145E1
1.492252404E1,3.859244659E1,-8.941655731E0,1.306408310E1,4.171331213E1
1.493255704E1,3.092568970E1,-6.286177826E0,1.187854843E1,3.371964157E1
1.494258904E1,2.346789825E1,-5.256768494E0,9.191037140E0,2.574589340E1
1.495262204E1,1.666903656E1,-4.870421906E0,7.120243378E0,1.876900784E1
1.496265404E1,1.076486435E1,-5.362598419E0,6.187083893E0,1.352478367E1
1.497268604E1,8.951086121E0,-3.690425720E0,4.987927551E0,1.089130874E1
1.498271904E1,8.039182434E0,-3.251837769E0,3.309467926E0,9.281997686E0
1.499275104E1,7.445516968E0,-4.181704102E0,1.910177765E0,8.750494341E0
1.500278404E1,7.999814301E0,-4.186943207E0,1.978585510E0,9.243501657E0
1.501281604E1,7.778274994E0,-4.140689392E0,2.081870728E0,9.054339084E0
1.502284804E1,7.458390198E0,-3.995491333E0,1.643881531E0,8.619389875E0
1.503288104E1,7.118147736E0,-3.542832642E0,1.177601166E0,8.037812813E0
1.504291304E1,6.688840485E0,-2.924019470E0,9.711804199E-1,7.364351180E0
1.505294504E1,6.471043396E0,-2.536774750E0,1.085692291E0,7.034796125E0
1.506297804E1,6.576424255E0,-2.223625946E0,1.480720825E0,7.098338009E0
1.507301004E1,7.242089996E0,-1.845362549E0,1.983375549E0,7.732205961E0
1.508304304E1,8.096363525E0,-1.771116943E0,2.545756073E0,8.669996052E0
1.509307504E1,9.036259003E0,-1.843416595E0,2.817441101E0,9.643139316E0
1.510310704E1,1.007390121E1,-1.683399353E0,2.864143982E0,1.060757464E1
1.511314004E1,1.054661819E1,-1.412612457E0,2.664608917E0,1.096935595E1
1.512317204E1,1.068867279E1,-1.212778015E0,2.280507660E0,1.099632992E1
1.513320504E1,1.075229050E1,-8.033793640E-1,2.307301941E0,1.102636892E1
1.514323704E1,1.078177917E1,-4.906796265E-1,2.402953033E0,1.105720181E1
1.515326904E1,1.110316086E1,-6.921606445E-1,2.944227448E0,1.150772535E1
1.516330204E1,1.188588318E1,-1.626367950E0,3.231929169E0,1.242435744E1
1.517333404E1,1.297127609E1,-2.700534210E0,3.785328369E0,1.377953553E1
1.518336704E1,1.445633789E1,-3.799249420E0,4.660408630E0,1.565692850E1
1.519339904E1,1.697155746E1,-5.177882538E0,5.453459473E0,1.856298604E1
1.520343104E1,1.920401505E1,-6.573430481E0,6.146817627E0,2.120819533E1
1.521346404E1,1.948662735E1,-5.464087372E0,6.763684845E0,2.133851750E1
1.522349604E1,2.060255676E1,-3.824846191E0,7.197632446E0,2.215627916E1
1.523352804E1,2.229284180E1,-4.137994995E0,6.017486572E0,2.345855798E1
1.524356104E1,2.366863083E1,-4.465813293E0,6.030060425E0,2.482960335E1
1.525359304E1,2.481629425E1,-4.350103912E0,8.266709290E0,2.651622799E1
1.526362604E1,2.705563751E1,-5.460794220E0,1.092458221E1,2.968458003E1
1.527365804E1,2.828727631E1,-6.166127472E0,1.328936462E1,3.185589963E1
1.528369004E1,2.757206360E1,-4.896617432E0,1.344489120E1,3.106381581E1
1.529372304E1,2.677257614E1,-4.739893341E0,1.196147598E1,2.970377636E1
1.530375504E1,2.586576187E1,-5.474266205E0,1.174053543E1,2.892828028E1
1.531378833E1,2.337164841E1,-6.168672180E0,1.228195953E1,2.711333612E1
1.532382033E1,1.980052460E1,-6.479725342E0,1.167976181E1,2.388439764E1
1.533385233E1,1.667756882E1,-6.468947754E0,1.023885818E1,2.061123004E1
1.534388533E1,1.430964294E1,-6.131399689E0,8.373587036E0,1.767701624E1
1.535391733E1,1.262474670E1,-5.590873718E0,6.745871887E0,1.536713655E1
1.536395033E1,1.105660767E1,-5.236710205E0,6.246660004E0,1.373653770E1
1.537398233E1,9.621092834E0,-4.815935211E0,5.874234467E0,1.225827434E1
1.538401433E1,9.336833954E0,-4.380191345E0,5.496420135E0,1.168645279E1
1.539404733E1,9.161249084E0,-3.412902832E0,5.053191833E0,1.100505058E1
1.540407933E1,8.356073456E0,-3.034340057E0,4.548890533E0,9.986169850E0
1.541411233E1,7.425758057E0,-2.622845764E0,4.265679474E0,8.956406868E0
1.542414433E1,6.715634766E0,-2.252366180E0,3.150049438E0,7.752142619E0
1.543417633E1,5.779331818E0,-1.497485962E0,1.525777130E0,6.162072404E0
1.544420933E1,3.045716400E0,6.068380737E-1,6.361770630E-2,3.106233740E0
1.545424133E1,-5.481600952E-1,1.456022186E0,-1.540596313E0,2.189501564E0
1.546427333E1,-3.206482086E0,2.252216492E0,-2.082319794E0,4.437348557E0
1.547430633E1,-4.688699799E0,1.585053864E0,-1.025816803E0,5.054562460E0
1.548433833E1,-5.909860382E0,1.234782257E0,-2.360591125E-1,6.042090769E0
1.549437133E1,-6.271957397E0,1.032403107E0,5.343887329E-1,6.378783355E0
1.550440333E1,-6.343957672E0,7.084767151E-1,1.065634003E0,6.471731919E0
1.551443533E1,-5.666616211E0,-1.326242065E-1,1.402583313E-1,5.669903073E0
1.552446833E1,-4.604574738E0,-7.464976501E-1,-7.837701416E-1,4.730080643E0
1.553450033E1,-3.548071747E0,-1.781295776E-1,-1.151854706E0,3.734610091E0
1.554453333E1,-2.652783508E0,5.807922363E-2,-1.592837677E0,3.094796504E0
1.555456533E1,-1.916913757E0,-2.501298523E-1,-1.877994690E0,2.695178538E0
1.556459733E1,-1.366059265E0,-5.879772949E-1,-1.663790131E0,2.231598713E0
1.557463033E1,-9.129515076E-1,-9.060658264E-1,-1.047371979E0,1.658741631E0
1.558466233E1,-5.168751526E-1,-1.165476379E0,-6.093827820E-1,1.413096773E0
1.559469533E1,1.766326904E-2,-1.422192535E0,-2.237846375E-1,1.439799695E0
1.560472733E1,4.640350342E-1,-1.505868530E0,1.378633118E-1,1.581763205E0
1.561475933E1,6.544390869E-1,-1.517544250E0,5.599855042E-1,1.744939780E0
1.562479233E1,5.495072937E-1,-1.538949738E0,8.093669128E-1,1.823567756E0
1.563482433E1,4.125421143E-1,-1.427731018E0,6.352789307E-1,1.616225905E0
1.564485733E1,5.448669434E-1,-1.310973816E0,5.222639465E-1,1.512710138E0
1.565488933E1,6.502478027E-1,-1.223854980E0,5.529501343E-1,1.492111614E0
1.566492133E1,7.509883118E-1,-9.919871521E-1,4.643344116E-1,1.328016717E0
1.567495433E1,1.082848206E0,-7.668553162E-1,4.125421143E-1,1.389538883E0
1.568498633E1,1.392105103E0,-7.060816956E-1,3.008743286E-1,1.589664537E0
1.569501933E1,1.556762695E0,-6.023474121E-1,2.495310974E-1,1.687779092E0
1.570505133E1,1.734592896E0,-4.995112610E-1,3.300636292E-1,1.835011175E0
1.571508333E1,1.670526123E0,-4.249662781E-1,2.291734314E-1,1.738900321E0
1.572511633E1,1.424138489E0,-4.254153442E-1,3.975732422E-1,1.538575033E0
1.573514833E1,1.155596924E0,-2.945874023E-1,5.960604858E-1,1.333219446E0
1.574518133E1,9.801617432E-1,-1.507365417E-1,3.469784546E-1,1.050634378E0
1.575521333E1,8.416996765E-1,-4.700225830E-2,2.188449097E-1,8.709538749E-1
1.576524533E1,8.595126343E-1,-1.574725342E-1,1.893562317E-1,8.941003020E-1
1.577527833E1,7.490423584E-1,-1.477427673E-1,3.992198181E-1,8.615502557E-1
1.578531033E1,3.299139404E-1,6.421646118E-2,3.106040955E-1,4.576481903E-1
1.579534233E1,1.237925720E-1,8.457412720E-2,1.106199646E-1,1.863173649E-1
1.580537533E1,1.646575928E-3,1.321751404E-1,6.466552734E-2,1.471550522E-1
1.581540733E1,-2.058219910E-1,1.085243225E-1,4.550537109E-2,2.370885053E-1
1.582544033E1,-2.309696960E-1,-7.903564453E-2,-4.670288086E-2,2.485453534E-1
1.583547233E1,-1.296304321E-1,-1.405577087E-1,2.674937439E-1,3.288060545E-1
1.584550433E1,-9.610015869E-2,-2.299218750E-1,5.195695496E-1,5.762393825E-1
1.585553733E1,3.879931641E-1,-5.804928589E-1,7.412585449E-1,1.018319638E0
1.586556933E1,1.388213196E0,-1.148711243E0,1.364113312E0,2.259973124E0
1.587560233E1,3.005300446E0,-1.777703247E0,2.048939209E0,4.048482615E0
1.588563433E1,5.159021759E0,-2.792592773E0,2.912044373E0,6.549357399E0
1.589566633E1,7.914491730E0,-3.415148163E0,3.791315918E0,9.416819670E0
1.590569933E1,1.097368011E1,-3.399879913E0,3.935017090E0,1.214352495E1
1.591573133E1,1.374965744E1,-2.627037048E0,4.136647797E0,1.459678932E1
1.592576433E1,1.919563248E1,-2.332749023E0,5.591472473E0,2.012904838E1
1.593579633E1,2.944077759E1,-2.878663788E0,8.677455139E0,3.082765508E1
1.594582833E1,3.784130859E1,-2.790497131E0,1.226414658E1,3.987682035E1
1.595586133E1,4.035398346E1,-8.919950867E-1,1.385428986E1,4.267529711E1
1.596589333E1,3.900483902E1,-2.484832764E-1,1.254151978E1,4.097229465E1
1.597592633E1,3.649680450E1,-3.394940186E-1,1.144834305E1,3.825175230E1
1.598595833E1,3.232288422E1,2.457888794E-1,1.004231689E1,3.384785643E1
1.599599033E1,2.542088699E1,1.135987701E0,9.769284668E0,2.725712543E1
1.600602333E1,1.853894806E1,9.273216248E-1,9.706864471E0,2.094697445E1
1.601605533E1,1.291424469E1,3.790118408E-1,9.321865082E0,1.593168335E1
1.602608833E1,9.773925018E0,-1.455423431E0,7.227270813E0,1.224260230E1
1.603612033E1,7.576195221E0,-3.423381042E0,4.549489288E0,9.477136940E0
1.604615233E1,8.309220886E0,-2.375260620E0,2.910846863E0,9.119103257E0
1.605618533E1,8.882678375E0,-2.239642639E0,2.928510132E0,9.617387684E0
1.606621733E1,8.091573486E0,-2.999312897E0,2.291734314E0,8.928688902E0
1.607625033E1,8.046517181E0,-3.157384186E0,2.070793762E0,8.888402582E0
1.608628233E1,8.466244354E0,-3.510649567E0,2.155816956E0,9.415386375E0
1.609631433E1,8.957822113E0,-3.267255707E0,1.848955078E0,9.712680976E0
1.610634733E1,9.870474243E0,-3.058140564E0,1.711540833E0,1.047415188E1
1.611637933E1,1.082997894E1,-3.415746918E0,2.358495483E0,1.159820123E1
1.612641233E1,1.104358475E1,-3.881428528E0,2.957400055E0,1.207362690E1
1.613644433E1,1.042581940E1,-2.570604401E0,3.647914124E0,1.134076693E1
1.614647633E1,1.034738251E1,-2.100432129E0,4.018094330E0,1.129713335E1
1.615650933E1,1.070049820E1,-1.545985107E0,3.816912689E0,1.146558128E1
1.616654133E1,1.099179245E1,-2.309696960E-1,3.229234772E0,1.145865636E1
1.617657333E1,1.036399796E1,1.136137390E-1,2.896925812E0,1.076185583E1
1.618660633E1,1.015114059E1,7.806266785E-1,3.062631226E0,1.063177988E1
1.619663833E1,9.545799408E0,8.225395203E-1,3.043920135E0,1.005307452E1
1.620667133E1,9.124575348E0,5.713618469E-1,3.012485504E0,9.625975200E0
1.621670333E1,8.703500977E0,5.740562439E-1,3.016527100E0,9.229296049E0
1.622673533E1,8.254883881E0,6.574328613E-1,3.068618774E0,8.831293622E0
1.623676833E1,7.881260834E0,4.339476013E-1,3.374582520E0,8.584310691E0
1.624680033E1,7.482190704E0,4.790039062E-3,3.868405609E0,8.423049486E0
1.625683333E1,7.128925323E0,5.688171387E-3,4.157155151E0,8.252487357E0
1.626686533E1,6.611002350E0,-6.765930176E-2,3.978726196E0,7.716229131E0
1.627689733E1,6.290219421E0,-2.496807861E-1,3.834126892E0,7.370870362E0
1.628693033E1,6.107000427E0,-3.878434753E-1,3.848796387E0,7.229046300E0
1.629696233E1,6.208190002E0,-8.018824768E-1,3.772604828E0,7.308706165E0
1.630699567E1,6.304589539E0,-1.085093536E0,3.977678375E0,7.533073907E0
1.631702767E1,6.551126862E0,-1.446292419E0,4.420307922E0,8.034186147E0
1.632705967E1,7.093748474E0,-2.061213684E0,4.648732910E0,8.728149113E0
1.633709267E1,7.380402374E0,-2.358345795E0,4.223916321E0,8.824602154E0
1.634712467E1,7.964637451E0,-2.411634979E0,3.923341370E0,9.200219590E0
1.635715767E1,8.667126617E0,-2.618804169E0,3.821403351E0,9.827529834E0
1.636718967E1,9.203012238E0,-2.828817444E0,3.536845093E0,1.025704224E1
1.637722167E1,9.537267151E0,-2.666105804E0,2.802322540E0,1.029177324E1
1.638725467E1,9.737850037E0,-2.286944275E0,2.099833374E0,1.022081883E1
1.639728667E1,1.003468277E1,-2.255809021E0,1.612895966E0,1.041081006E1
1.640731967E1,1.048644333E1,-2.361788635E0,1.335522766E0,1.083176626E1
1.641735167E1,1.079076050E1,-2.334694977E0,1.077908478E0,1.109293466E1
1.642738367E1,1.087743027E1,-2.564167786E0,8.813671875E-1,1.121027447E1
1.643741667E1,1.107906097E1,-2.864892426E0,7.728428650E-1,1.146954606E1
1.644744867E1,1.115106125E1,-3.166664886E0,9.018745422E-1,1.162700783E1
1.645748167E1,1.168829407E1,-3.688479767E0,1.281036072E0,1.232323637E1
1.646751367E1,1.251053421E1,-4.255800018E0,1.923200684E0,1.335380099E1
1.647754567E1,1.362047607E1,-4.957391052E0,2.773731995E0,1.475759749E1
1.648757867E1,1.571207657E1,-5.467530212E0,3.326382751E0,1.696549613E1
1.649761067E1,1.767659134E1,-5.656138000E0,3.425925751E0,1.887301634E1
1.650764367E1,1.908067154E1,-6.046975250E0,3.870351563E0,2.038670050E1
1.651767567E1,2.053819061E1,-6.594386902E0,4.504582672E0,2.203620832E1
1.652770767E1,2.185724762E1,-7.157815247E0,5.357359314E0,2.361514115E1
1.653774067E1,2.326746506E1,-7.709567871E0,6.647975464E0,2.539700661E1
1.654777267E1,2.516761368E1,-8.140671387E0,7.399412842E0,2.746690043E1
1.655780467E1,2.710952545E1,-7.938591614E0,7.629484406E0,2.926015447E1
1.656783767E1,2.860222137E1,-7.268285522E0,8.300239563E0,3.065630472E1
1.657786967E1,2.958597565E1,-6.815776520E0,8.663234711E0,3.157271607E1
1.658790267E1,2.939377533E1,-6.729256439E0,8.354277191E0,3.129010815E1
1.659793467E1,2.821931763E1,-6.545738068E0,7.499554596E0,2.992356752E1
1.660796667E1,2.660836761E1,-6.141728210E0,6.815028076E0,2.814552647E1
1.661799967E1,2.443833023E1,-5.509143677E0,6.269113312E0,2.582410560E1
1.662803167E1,2.260075150E1,-5.330415344E0,5.307962036E0,2.381977659E1
1.663806467E1,2.149365372E1,-5.149591370E0,4.958438873E0,2.265130366E1
1.664809667E1,2.065165466E1,-5.118755493E0,4.241280212E0,2.169518278E1
1.665812867E1,1.783975204E1,-4.927453308E0,3.788771210E0,1.889156787E1
