,Time (s),Acceleration x (m/s^2),Acceleration y (m/s^2),Acceleration z (m/s^2),Absolute acceleration (m/s^2)
0,-9.337498341e-05,-3.052003326,6.123765564,5.262606354,8.631932265
1,0.009840624989,-3.309916992,6.227350159,5.673501892,9.051191315
2,0.01977362495,-3.311264191,6.473887482,6.473737793,9.735757324
3,0.02970762504,-3.168311462,6.496939545,6.880292358,9.979320814
4,0.03964075004,-3.263513489,6.490951996,6.74557251,9.913915805
5,0.04957475001,-3.84250946,6.593339081,6.446943512,9.989998991
6,0.05950774997,-4.042044525,6.922354889,5.849086761,9.923151571
7,0.06944175006,-3.93381958,7.535479889,5.798042908,10.2895916
8,0.07937475003,-3.952979736,7.395221558,6.044580231,10.33693866
9,0.08930875,-3.511248322,7.761958923,5.841452637,10.3295421
10,0.09924174997,-3.204236755,7.81150589,5.471122742,10.06081217
11,0.1091757501,-2.644700317,7.58338028,5.222938843,9.580249808
12,0.11910875,-1.583556976,7.320826263,5.703439636,9.414423698
13,0.12904275,-2.291734314,7.942184143,6.000122681,10.21429426
14,0.13897575,-2.71580246,7.978259125,6.51624939,10.65315483
15,0.14890975,-3.368445282,7.806266785,6.742279358,10.85092419
16,0.15884275,-3.159629517,7.381001129,7.069349213,10.69757611
17,0.16877675,-2.36478241,6.693031769,7.674989777,10.45439325
18,0.1787097501,-2.401905212,5.170697479,8.599916382,10.31813078
19,0.18864375,-2.072590027,4.132905579,9.318871307,10.4027833
20,0.19857675,-0.8232879639,3.170856171,9.747729492,10.28349951
21,0.20851075,0.1833686829,2.242935791,9.735305328,9.992024563
22,0.2184437501,1.13149704,1.034798126,9.854008484,9.972591234
23,0.22837775,1.776056671,0.1643582153,10.58748322,10.73667508
24,0.23831075,1.168619843,0.5897735596,13.09761337,13.16286372
25,0.24824475,0.4155358887,2.052831116,14.65347794,14.80240525
26,0.25817775,0.4457730103,2.226470032,13.17350555,13.36776462
27,0.26811075,0.1414558411,2.67478775,11.0190358,11.33991398
28,0.27804475,-2.734663239,3.348087616,8.671916656,9.689696188
29,0.2879777501,-6.91052948,4.154760132,7.352709961,10.91236882
30,0.29791175,-7.215595093,4.472698975,8.809031525,12.23392354
31,0.30784475,-4.05791153,4.256847839,9.905501404,11.51982455
32,0.31777875,-3.663930817,3.876937866,8.981921997,10.44652856
33,0.3277117501,-3.041375427,2.557880859,2.832110596,4.879914897
34,0.33764575,1.259480896,4.894372101,-1.030606842,5.157840716
35,0.34757875,0.3243754578,2.26059906,0.5857319641,2.357670351
36,0.35751275,-1.715133362,0.3134481812,0.9979747009,2.008951397
37,0.36744575,-3.323688354,0.8054750061,3.83906662,5.141412916
38,0.37737975,-2.158062286,-0.2606080627,9.462422791,9.708892546
39,0.38731275,-0.4225712585,-2.689756622,14.18899384,14.44786847
40,0.39724675,0.5004093933,-3.328777771,16.35738464,16.70015579
41,0.40717975,2.944975891,-1.433419189,14.73715393,15.09673076
42,0.41711375,6.873706055,0.2333647156,10.88955505,12.87962357
43,0.42704675,9.861043854,0.3936813354,7.768844604,12.55986136
44,0.4369807501,10.25921585,-0.4773573303,6.570287018,12.19213072
45,0.44691375,8.162376251,-2.158062286,6.678511963,10.76494965
46,0.45684775,5.670957184,-3.954776001,7.126230927,9.928906074
47,0.46678075,3.489693146,-5.316793671,7.047045593,9.49247622
48,0.4767147501,0.8916957092,-6.050867157,5.41169632,8.166674454
49,0.48664775,-0.03951782227,-6.426585846,3.475472717,7.306262923
50,0.49658175,-0.7676037598,-7.574548645,0.2495310974,7.617431882
51,0.50651475,-1.866169281,-8.68434082,-1.623673553,9.02976628
52,0.51644875,-1.890119476,-10.26205994,-1.01803299,10.48421752
53,0.52638175,-2.566113739,-10.19814285,-1.069376221,10.57027071
54,0.53631575,-2.883902893,-10.89494385,-1.049467621,11.31892573
55,0.5462487501,-3.718118134,-12.33375183,-0.8437953186,12.90960213
56,0.55618175,-4.841531982,-13.22365128,-0.4516108704,14.08933417
57,0.56611575,-5.96749054,-13.77076355,-0.3315605164,15.01182216
58,0.57604875,-6.818021851,-15.02605316,-0.6339317322,16.5127092
59,0.5859827501,-7.898774414,-16.75450882,-1.010548553,18.55061755
60,0.59591575,-10.12090347,-18.94759827,-0.03742218018,21.48128412
61,0.60584975,-13.45896194,-20.62186661,2.020498352,24.70804429
62,0.61578275,-16.42609177,-20.9510321,3.38970108,26.83751684
63,0.62571675,-17.7713443,-20.82978424,3.876339111,27.65369043
64,0.63564975,-18.4867067,-19.4885733,2.431992645,26.971789
65,0.64558375,-18.11727493,-18.93367722,0.5875282288,26.21192426
66,0.6555167501,-17.40760071,-20.17519547,0.1694476318,26.64754748
67,0.66545075,-17.50250336,-19.42779968,-0.67045578,26.1577242
68,0.67538375,-18.10006073,-18.53804993,-1.775757294,25.96969017
69,0.68531775,-18.6604953,-18.34225708,-1.657652893,26.21831979
70,0.6952507501,-18.26801147,-20.20483383,-1.442849579,27.27704838
71,0.70518475,-19.50788315,-19.38573715,-1.654060364,27.55177355
72,0.71511775,-19.92446686,-18.50317245,-0.7279362488,27.20076583
73,0.72505175,-20.28656387,-17.93285843,1.132844238,27.10010002
74,0.73498475,-19.18575302,-17.27003677,2.022893372,25.89284432
75,0.74491875,-16.42309799,-16.26427826,1.421893158,23.15743239
76,0.75485175,-14.59599747,-14.08705582,1.055006104,20.31259022
77,0.76478575,-13.6905304,-12.2147493,2.349663849,18.49734152
78,0.77471875,-12.91065216,-11.73664352,3.332519989,17.76342956
79,0.78465275,-12.55334518,-10.72504715,3.285218353,16.83465982
80,0.79458575,-10.74495575,-10.24035507,2.745440826,15.09491277
81,0.8045187501,-8.157735901,-9.8989151,2.95096344,13.16227034
82,0.81445275,-6.150110779,-10.19949005,4.361180878,12.68358619
83,0.82438575,-6.38751709,-7.463778992,15.55804688,18.40003244
84,0.83431975,-5.738317108,1.75869278,4.83240097,7.705412556
85,0.84425275,-18.71857452,5.140460358,12.87802002,23.29490855
86,0.85418675,-14.2663829,-10.0661174,30.88123215,35.4754408
87,0.86411975,-3.327131195,-14.94342499,10.12554382,18.35490098
88,0.87405375,-7.251370697,-12.99522629,-10.28720764,18.09101778
89,0.88398675,-5.697003021,-12.5106839,-15.97972,21.07900629
90,0.89392075,-1.755848694,-13.7833374,-20.69132217,24.92376793
91,0.90385375,2.020049286,-12.26833786,-20.67096451,24.12221977
92,0.9137877501,3.69162323,-9.957593079,-17.74440033,20.67959103
93,0.92372075,-3.304528198,-2.546205139,-6.552923126,7.768131611
94,0.93365475,-7.729925537,-2.085463257,8.238418121,11.48792579
95,0.94358775,-6.531817017,-3.707639923,5.599705353,9.368453841
96,0.9535217501,-5.921087036,-5.684878235,-3.2235466,8.818637362
97,0.96345475,-4.077969818,-7.680977325,-6.837631073,11.06256974
98,0.97338875,-1.897603912,-7.967182159,-7.270231476,10.95139981
99,0.98332175,-1.520388336,-8.545729065,-8.494385834,12.14477899
100,0.99325575,2.590213623,-9.905202026,-12.52206024,16.17480221
101,1.00318875,4.881199493,-7.184160461,-12.42775635,15.16203805
102,1.01312275,1.835034027,-3.918701019,-7.043602753,8.266553532
103,1.02305575,-3.803440704,-0.8214916992,0.4773573303,3.920316291
104,1.03298975,-5.516328735,-2.38469101,6.680607605,8.985941904
105,1.042923083,-4.20760025,-5.780828705,1.652264099,7.338382453
106,1.052857083,-6.04817276,-5.555247803,-7.795040131,11.32271268
107,1.062790083,-6.636599121,-5.152734833,-11.92629913,14.58875372
108,1.072723083,-6.003565521,-3.778292999,-4.978946228,8.66649886
109,1.082657083,-4.969964905,-2.641257477,1.238075409,5.762779098
110,1.092590083,-4.079616394,-1.794767761,0.5451663208,4.490174557
111,1.102524083,-2.468666382,-3.843108215,-5.084327087,6.834776982
112,1.112457083,-2.443219299,-5.310656433,-7.979456635,9.891618699
113,1.122391083,-3.907174988,-5.558091888,-7.536228333,10.14658264
114,1.132324083,-5.292843475,-5.655688934,-6.217021637,9.932389814
115,1.142258083,-4.817881165,-5.06651413,-6.121071167,9.292419307
116,1.152191083,-4.760550385,-5.858068085,-7.069498901,10.34203154
117,1.162125083,-4.141737213,-6.300997009,-7.275919647,10.47833752
118,1.172058083,-4.427492981,-7.499554596,-6.4776297,10.85383341
119,1.181992083,-3.443738708,-8.024812317,-5.430856476,10.28353787
120,1.191925083,-2.705773315,-5.917644196,-4.68271225,8.016702319
121,1.201859083,-2.791694641,-5.070106659,-4.187991028,7.14414511
122,1.211792083,-2.585273895,-6.36641098,-4.230352936,8.069121132
123,1.221726083,-3.382965088,-7.849676514,-4.272116089,9.555775742
124,1.231659083,-3.632196808,-7.077133026,-4.46850769,9.123937007
125,1.241593083,-3.82379837,-6.987170105,-5.296885071,9.565509474
126,1.251526083,-3.309467926,-8.110134888,-5.471122742,10.32763525
127,1.261460083,-2.098935242,-9.705217896,-5.375920715,11.29147055
128,1.271393083,-3.406017151,-7.341483307,-5.940097504,10.03907806
129,1.281327083,-4.076323242,-1.249900818,-7.619455261,8.731252013
130,1.291260083,-5.976322174,-0.2972817993,-8.55800354,10.44242442
131,1.301194083,-8.807684326,-4.213288422,-5.063520355,10.99846993
132,1.311127083,-7.838300171,-5.964796143,-2.53318222,10.17028784
133,1.321061083,-4.988526306,-7.95894928,-1.513802032,9.514297921
134,1.330994083,-4.655319214,-6.040239258,-1.407223663,7.754789856
135,1.340927083,-4.234993286,-3.536845093,-5.010231171,7.452976434
136,1.350861083,-1.467398529,-6.062093811,-5.656138,8.41986561
137,1.360794083,-1.844314728,-7.885901184,-7.568261719,11.08456223
138,1.370728083,-4.473896484,-11.90010361,-7.222480774,14.621643
139,1.380661083,-4.82431778,-11.48845963,-4.212839355,13.15320349
140,1.390595083,-5.263504486,-12.78506332,-5.441933441,14.85856532
141,1.400528083,-7.579937439,-15.02994507,-6.067781982,17.89336968
142,1.410462083,-9.255552979,-11.19477036,-7.584278412,16.38625715
143,1.420395083,-8.070467377,-11.89860672,-8.458011475,16.6807447
144,1.430329083,-6.749763794,-11.47498764,-6.946305084,15.01618483
145,1.440262083,-6.035898285,-10.42671753,-5.051844635,13.06405912
146,1.450196083,-7.088060303,-12.41847565,-3.732637939,14.7780825
147,1.460129083,-8.037984924,-13.05659866,-5.103337555,16.15945619
148,1.470063083,-7.040010223,-12.70662643,-5.137017517,15.40808386
149,1.479996083,-5.425767059,-9.956096191,-4.310885468,12.13039707
150,1.489930083,-5.846242676,-9.932295685,-5.741161194,12.8759459
151,1.499863083,-3.856729889,-7.909851379,-3.64477066,9.524939236
152,1.509797083,-2.43498642,-4.322561188,1.097368011,5.081132811
153,1.519730083,-0.398770752,-1.378782806,1.713486786,2.235195093
154,1.529664083,-0.5626799011,-0.3314108276,-0.1534309387,0.6708076183
155,1.539597083,-3.479963379,0.5400769043,-2.578088837,4.364443863
156,1.549531083,-4.245172119,3.171903992,-3.390748901,6.291235122
157,1.559464083,-5.969286804,2.071542206,-2.219434662,6.69698158
158,1.569398083,-5.674100647,-3.07266037,-2.369572449,6.873975087
159,1.579331083,-5.811365204,-5.1624646,-3.647914124,8.586634016
160,1.589264083,-8.530460815,-6.636898499,-4.503385162,11.70887105
161,1.599198083,-10.44108765,-7.789052582,-5.699847107,14.21878716
162,1.609131083,-10.00743942,-7.822732544,-6.395450592,14.22131416
163,1.619065083,-9.697883148,-7.815697174,-7.323670349,14.44888256
164,1.628998083,-8.562194824,-8.15429306,-7.846682739,14.19063443
165,1.638932083,-8.190667419,-9.838889923,-9.007818146,15.65348445
166,1.648865083,-7.051835632,-10.88042404,-9.513766022,16.08178339
167,1.658799083,-5.794001312,-10.65529221,-9.386081543,15.33636952
168,1.668732083,-5.178481293,-10.47955765,-8.195457458,14.27597002
169,1.678666083,-3.578009491,-9.894424438,-5.062173157,11.67593182
170,1.688599083,-3.681594086,-9.994117126,-5.290897522,11.89243914
171,1.698533083,-6.080206146,-10.9898465,-6.729705505,14.24901993
172,1.708466083,-5.925128632,-10.46129562,-5.39642807,13.17828863
173,1.718400083,-5.617368622,-8.997639313,-1.936073914,10.7824267
174,1.728333083,-9.975555725,-5.718408508,-0.767454071,11.52392701
175,1.738267083,-8.234675903,-3.169359283,-1.702110443,8.9862064
176,1.748200083,-6.216123505,-4.351900177,-1.954635315,7.835804093
177,1.758134083,-3.889062653,-5.457351379,-4.65112793,8.157235035
178,1.768067083,-1.898502045,-3.10184967,-3.729793854,5.209332355
179,1.778001083,-0.4694238281,-0.1907034302,-1.559457092,1.639705142
180,1.787934083,-0.3062631226,1.11158844,-1.253493347,1.703135794
181,1.797868083,-0.2960842896,1.621128845,-2.859803009,3.300635983
182,1.807801083,-1.204245758,1.17355957,-3.864214325,4.214214311
183,1.817734083,-0.5019062805,0.05239105225,-5.02669693,5.051963654
184,1.827668083,0.2457888794,-0.2154020691,-3.814667358,3.828641702
185,1.837601083,-0.2906954956,-0.5342390442,-2.921175385,2.983819843
186,1.847535083,-1.138382721,-1.60421402,-2.805316315,3.426254145
187,1.857468083,-1.50586853,-5.848937073,-1.274599457,6.172706755
188,1.867402083,-0.3189866638,-7.503147125,-4.127965851,8.569659931
189,1.877335083,-1.226998444,-6.61684021,-5.433999939,8.649650564
190,1.887269083,-0.1499880981,-7.120393066,-4.27316391,8.305565824
191,1.897202083,-0.6185137939,-9.069938965,-0.6673123169,9.11546257
192,1.907136083,-0.915945282,-8.253686371,3.621568909,9.059694025
193,1.917069083,-15.20882309,-3.138523407,-3.806434479,15.98898284
194,1.927003083,-20.63069824,-9.558822327,-7.865992584,24.05973054
195,1.936936083,-13.19116882,-20.01667511,-2.947969666,24.1529448
196,1.946870083,-6.248755646,-12.59720398,-10.21595581,17.38108881
197,1.956803083,-0.3755690002,-11.54204819,-12.65154099,17.12954809
198,1.966737083,-0.6813830566,-11.32499954,-9.192983093,14.60242568
199,1.976670083,-1.507664795,-8.585995331,-5.524112549,10.32028044
200,1.986604083,-3.900738373,-6.768774261,-4.559219055,9.045360316
201,1.996537083,-3.940405884,-7.944279785,-2.914439392,9.334470355
202,2.006471083,-4.020189972,-8.801846466,-3.895948334,10.43133942
203,2.016404083,-2.670446777,-8.044122162,-5.01966156,9.850694875
204,2.026338083,-0.8708889771,-8.406518555,-3.939956818,9.324766032
205,2.036270875,-6.172863464,-9.160500641,-2.858755188,11.41014884
206,2.046203875,-4.30594574,-9.818083191,-3.909719696,11.41147818
207,2.056137875,-3.398832092,-9.908195801,-2.671045532,10.81012895
208,2.066070875,-0.8446934509,-9.640851746,-1.562450867,9.803100638
209,2.076004875,1.52113678,-6.947801971,-0.2296224976,7.116075873
210,2.085937875,1.280587006,-6.447242889,0.5135820007,6.593224585
211,2.095871875,0.3867956543,-7.077133026,0.6125262451,7.114113518
212,2.105804875,-4.216431885,-12.05293579,-2.000140686,12.92486448
213,2.115738875,-10.13961456,-16.53835831,-10.15877472,21.89816848
214,2.125671875,-10.44797333,-16.01699249,-16.91033478,25.52770294
215,2.135605875,-6.096671906,-11.09088638,-9.435179443,15.78606285
216,2.145538875,-3.812721405,-8.003107452,-3.790717163,9.641374903
217,2.155472875,-2.490371246,-7.539371796,-2.777474213,8.411803553
218,2.165405875,-3.210224304,-7.134613495,-3.600762177,8.612417666
219,2.175339875,-2.600542145,-5.401218109,-4.426594849,7.451893616
220,2.185272875,-2.328408051,-5.342091064,-3.171604614,6.634643684
221,2.195206875,-2.3834935,-7.085515594,-2.307002563,7.823543528
222,2.205139875,-2.637515259,-9.706265717,-2.971470795,10.48797977
223,2.215073875,-2.472558289,-10.18916153,-5.195845184,11.70168212
224,2.225006875,0.3332070923,-8.772208099,-5.310207367,10.25967661
225,2.234940875,0.08337661743,-9.39700882,-2.268532562,9.667314332
226,2.244873875,-2.658321991,-9.440418549,-1.689985657,9.952096749
227,2.254807875,-1.83114212,-9.369017029,-1.514550476,9.665682836
228,2.264740875,1.128652954,-9.318122864,-1.865420837,9.569799689
229,2.274673875,2.545606384,-9.940977631,-2.416724396,10.54247148
230,2.284607875,1.754351807,-11.39640106,-3.056943054,11.92898186
231,2.294540875,0.8422984314,-12.34647537,-3.504512329,12.86182442
232,2.304474875,0.9647438049,-11.79127991,-3.432661743,12.31861109
233,2.314407875,3.097957764,-11.09103607,-2.442919922,11.77184273
234,2.324341875,3.333418121,-10.03273682,-0.4704716492,10.5824774
235,2.334274875,1.584754486,-8.911867676,-1.479673004,9.171819037
236,2.344208875,0.8780740356,-7.539072418,-2.827170868,8.099476653
237,2.354141875,0.9153465271,-5.254074097,-0.8614585876,5.402338825
238,2.364075875,-1.6416362,-5.427413635,-4.205354919,7.059518268
239,2.374008875,-3.491639099,-8.070167999,-10.04291565,13.34838229
240,2.383942875,-3.137774963,-8.386160889,-7.62783783,11.76253528
241,2.393875875,-2.441273346,-7.674840088,-4.627926178,9.288739776
242,2.403809875,-1.067729645,-6.690786438,-3.58279953,7.664406189
243,2.413742875,1.737287292,-5.160668335,-4.317022705,6.948909975
244,2.423676875,2.207609253,-3.917653198,-5.11680954,6.811995674
245,2.433609875,1.560654602,-4.262835388,-4.805307312,6.610475527
246,2.443543875,1.697619781,-4.260440369,-3.91271347,6.028481713
247,2.453476875,1.905387726,-3.688030701,-2.794239349,5.003983051
248,2.463410875,1.823208618,-3.249592438,-2.718197479,4.612216193
249,2.473343875,1.679657135,-3.030747528,-2.377356262,4.202201978
250,2.483277875,1.639989624,-3.571872253,-3.235821075,5.091009271
251,2.493210875,0.798589325,-5.430557098,-4.621339874,7.175338148
252,2.503144875,-0.4285588074,-7.416627045,-5.512137451,9.250604232
253,2.513077875,-2.342628479,-9.813143463,-5.874234467,11.67443032
254,2.523010875,-4.162244568,-12.71979904,-5.815257111,14.59228504
255,2.532944875,-4.346661072,-16.20560028,-5.866899719,17.77457328
256,2.542877875,-3.896996155,-19.01106628,-4.340074768,19.88576047
257,2.552811875,-2.758014679,-18.13463882,-1.983824615,18.4501309
258,2.562744875,-1.005608826,-14.56336533,-0.5849835205,14.60975922
259,2.572678875,0.05343887329,-12.37476654,0.1202000427,12.37546568
260,2.582611875,-0.1938468933,-11.8749559,-0.3180885315,11.88079688
261,2.592545875,0.7188052368,-10.76636124,-0.5912704468,10.80651729
262,2.602478875,0.6770420837,-10.1206041,-1.324894867,10.22938706
263,2.612412875,-0.5414241028,-9.966424713,-3.094365234,10.44977788
264,2.622345875,-0.9331594849,-9.70940918,-4.105512543,10.5829413
265,2.632279875,-1.164877625,-9.64504303,-4.861141205,10.86344737
266,2.642212875,-0.895587616,-9.491163025,-4.425097961,10.51026854
267,2.652146875,-1.091979218,-9.426946564,-4.373455353,10.44925126
268,2.662079875,-0.83661026,-9.122180328,-4.041595459,10.01242151
269,2.672013875,-0.7372169495,-8.9301297,-3.466641083,9.607721149
270,2.681946875,-0.9616003418,-8.839717712,-3.59567276,9.591357936
271,2.691880875,-0.8988807678,-8.771609344,-3.765569458,9.587941931
272,2.701813875,-0.7638615417,-9.148974609,-3.842359772,9.952434349
273,2.711747875,0.120050354,-10.35172348,-3.544778595,10.94248813
274,2.721680875,0.6258485413,-11.95084808,-3.006198578,12.33903101
275,2.731613875,0.1399589539,-12.85197418,-3.072959747,13.2149881
276,2.741547875,-0.8348139954,-12.71411087,-3.674259338,13.26068291
277,2.751480875,-1.720971222,-12.29992218,-4.222269745,13.11782716
278,2.761414875,-2.798730011,-11.42469223,-4.69438797,12.66466583
279,2.771347875,-3.398383026,-9.608518982,-4.952002258,11.33115045
280,2.781281875,-3.333717499,-6.941215668,-4.741988983,9.043263063
281,2.791214875,-1.903890839,-6.323300629,-3.935166779,7.68729268
282,2.801148875,-1.403780823,-5.250631256,-3.864663391,6.668984354
283,2.811081875,-0.8518785095,-5.429958344,-3.342399445,6.432867063
284,2.821015875,0.2796185303,-7.829468536,-1.566193085,7.989475882
285,2.830948875,-0.1025367737,-8.126450958,-1.41695343,8.249695509
286,2.840882875,-1.068178711,-6.687493286,-2.402054901,7.185641235
287,2.850815875,-1.102756805,-6.344107361,-2.971919861,7.091972817
288,2.860749875,-1.298100586,-5.955365753,-3.901486816,7.236922396
289,2.870682875,-0.9927355957,-5.900879059,-4.715793457,7.618701041
290,2.880616875,-0.6174659729,-5.81181427,-5.190157013,7.81640449
291,2.890549875,-0.2417472839,-6.430627441,-5.524411926,8.481187309
292,2.900483875,0.3936813354,-10.40875488,-4.683161316,11.42055879
293,2.910416875,2.007625122,-13.3559761,-5.228926392,14.48289776
294,2.920350875,2.866988068,-15.94633942,-5.205425262,17.01769119
295,2.930283875,2.592009888,-18.22879303,-2.605182495,18.59554749
296,2.940217875,1.412762146,-17.26853989,-0.8580157471,17.34746546
297,2.950150875,-2.057920532,-14.00607422,0.9125024414,14.1858314
298,2.960084875,-3.054697723,-11.01679047,2.151026917,11.63304634
299,2.970017875,-2.620001678,-9.629475403,2.314337311,10.244382
300,2.979950875,-1.85105072,-9.177415466,1.342408447,9.457980961
301,2.989884875,-1.069525909,-8.905880127,-0.3746708679,8.977692619
302,2.999817875,-1.078656921,-8.571625214,-2.250719604,8.927597566
303,3.009751875,-1.403631134,-8.383167114,-3.940555573,9.368865964
304,3.019684875,-1.636696472,-8.381670227,-4.89212677,9.84195486
305,3.029618875,-1.706900482,-8.447832642,-5.270390167,10.10229668
306,3.0395515,-1.731898499,-8.619076538,-5.325475616,10.27855259
307,3.0494855,-1.946701813,-8.885821838,-5.251230011,10.50347058
308,3.0594185,-2.267035675,-9.399852905,-5.043013,10.90544201
309,3.0693525,-2.199226685,-9.967322845,-4.530329132,11.16727383
310,3.0792855,-1.532662811,-10.43210632,-3.8472995,11.22406393
311,3.0892195,-0.6001020813,-10.67505112,-3.161126404,11.14941967
312,3.0991525,0.4544549561,-10.63029419,-2.574795685,10.9471118
313,3.1090865,0.9692344666,-10.38615189,-2.009421387,10.62305703
314,3.1190195,0.7740403748,-9.938432922,-1.499581604,10.08069107
315,3.1289535,0.4454736328,-9.407337341,-1.014290771,9.472340174
316,3.1388865,0.3974235535,-9.442963257,-0.8235873413,9.487138486
317,3.1488205,0.4825964355,-9.95624588,-1.050964508,10.02318601
318,3.1587535,0.5453160095,-10.36384827,-1.647923126,10.50820494
319,3.1686875,0.6267466736,-10.40112076,-2.477198639,10.71039857
320,3.1786205,0.8717871094,-10.17643799,-3.15573761,10.69011612
321,3.1885535,1.092577972,-10.03588028,-3.392694855,10.65002338
322,3.1984875,1.307530975,-9.937983856,-3.334016876,10.56356137
323,3.2084205,1.433568878,-9.544452209,-3.177143097,10.16100024
324,3.2183545,1.319955139,-9.102271729,-3.344794464,9.78679121
325,3.2282875,1.002315674,-8.893905029,-3.375480652,9.565566006
326,3.2382215,0.4096980286,-8.963959351,-3.171454926,9.517276189
327,3.2481545,-0.08547225952,-9.136550446,-2.837649078,9.567450645
328,3.2580885,-0.3710783386,-9.316476288,-2.475701752,9.646944009
329,3.2680215,-0.5242098999,-9.323811035,-2.102976837,9.57239572
330,3.2779555,-0.5297483826,-9.213191071,-1.729503479,9.389073721
331,3.2878885,-0.4370910645,-9.035959625,-1.431922302,9.159149329
332,3.2978225,-0.3070115662,-8.747659149,-1.221160583,8.837818162
333,3.3077555,-0.1616638184,-8.470435638,-1.307381287,8.572261132
334,3.3176895,0.1496887207,-8.156239014,-1.829495544,8.360244943
335,3.3276225,0.4516108704,-7.960446167,-2.608625336,8.389134741
336,3.3375565,0.6963519287,-7.909701691,-2.836002502,8.431559585
337,3.3474895,0.612077179,-8.049211578,-3.270848236,8.709930751
338,3.3574235,0.1447489929,-8.324638824,-5.118456116,9.773390243
339,3.3673565,0.1863624573,-9.06934021,-7.123686218,11.53406122
340,3.3772905,0.7363188171,-9.744136963,-7.751181335,12.47281775
341,3.3872235,1.10919342,-9.845476227,-7.820786591,12.622536
342,3.3971575,1.329834595,-9.682165833,-7.335495758,12.21975013
343,3.4070905,1.988764343,-9.617649994,-5.184468842,11.10554331
344,3.4170235,3.136427765,-9.640702057,-2.361788635,10.40953221
345,3.4269575,4.023333435,-9.561367035,0.2779719543,10.37710075
346,3.4368905,4.265230408,-9.599687347,2.055675201,10.70383054
347,3.4468245,4.3316922,-9.745783539,2.605182495,10.97865338
348,3.4567575,3.410058746,-9.968220978,0.7553292847,10.56240751
349,3.4666915,1.753154297,-10.01657043,-1.977238312,10.35928109
350,3.4766245,0.7126679993,-9.795779572,-3.641926575,10.47515261
351,3.4865585,0.3350033569,-9.554780731,-4.13859375,10.41796623
352,3.4964915,0.3180885315,-9.313033447,-3.936663666,10.11588321
353,3.5064255,0.483943634,-9.032367096,-3.429069214,9.673488123
354,3.5163585,0.6322851562,-8.856033783,-2.989732819,9.368437501
355,3.5262925,0.8318202209,-8.731343079,-2.686164093,9.172990481
356,3.5362255,1.251846771,-8.689430237,-2.503394165,9.129090893
357,3.5461595,1.595083008,-8.76038269,-2.41852066,9.227016683
358,3.5560925,1.942959595,-8.919052734,-2.70876709,9.521660192
359,3.5660265,2.336191864,-9.076974335,-3.000211029,9.841266266
360,3.5759595,2.647095337,-9.284742279,-3.084186401,10.13537166
361,3.5858935,2.606230316,-9.505383453,-3.145109711,10.34584294
362,3.5958265,2.562820587,-9.544901276,-3.120860138,10.36402228
363,3.6057605,2.113604736,-9.466464386,-3.00125885,10.15326685
364,3.6156935,1.755699005,-9.294472046,-2.924318848,9.900572222
365,3.6256275,1.547481995,-8.897198181,-2.978655853,9.509323146
366,3.6355605,1.564247131,-8.613088989,-2.987637177,9.249764696
367,3.6454935,1.438658295,-8.550219727,-3.028651886,9.18415632
368,3.6554275,1.346450043,-8.623866577,-2.954555969,9.214846902
369,3.6653605,1.492396545,-8.826245728,-2.835403748,9.389854925
370,3.6752945,1.602717133,-9.19223465,-2.659070435,9.702398448
371,3.6852275,1.760189667,-9.461225281,-2.607128448,9.970464895
372,3.6951615,2.038910065,-9.716893616,-2.642155609,10.27405285
373,3.7050945,2.274370422,-9.796528015,-2.701132965,10.41349323
374,3.7150285,2.304607544,-9.789941711,-2.801125031,10.44032931
375,3.7249615,1.901495819,-9.588460693,-2.805765381,10.16988614
376,3.7348955,1.645378418,-8.994196472,-2.831811218,9.571937896
377,3.7448285,1.239871674,-8.547225952,-3.33940567,9.259804721
378,3.7547625,0.846789093,-8.031847687,-3.795956268,8.923951648
379,3.7646955,0.7776329041,-7.594307556,-4.165088654,8.696331622
380,3.7746295,0.9286688232,-7.444618835,-4.586911469,8.793436883
381,3.7845625,1.313219147,-7.614066467,-4.810995483,9.101880588
382,3.7944965,1.698817291,-8.220904541,-4.851860504,9.695865202
383,3.8044295,2.276316376,-8.879684601,-4.834945679,10.36374038
384,3.8143635,2.578238525,-9.157506866,-4.91787323,10.70946885
385,3.8242965,2.744842072,-9.192983093,-4.986730042,10.81261174
386,3.8342305,2.54845047,-9.209149475,-5.07699234,10.82029968
387,3.8441635,2.353106689,-9.33024765,-5.099595337,10.89020224
388,3.8540975,2.281256104,-9.371861115,-4.985382843,10.85771395
389,3.8640305,2.261497192,-9.329499207,-4.932093658,10.79256563
390,3.8739635,1.797013092,-9.294472046,-4.921914825,10.66966317
391,3.8838975,1.189426575,-9.328002319,-4.715045013,10.51941122
392,3.8938305,0.222437439,-9.075327759,-4.609364777,10.18122272
393,3.9037645,-0.7948471069,-8.772058411,-4.713847504,9.990052501
394,3.9136975,-1.459914093,-9.029672699,-4.724475403,10.29499908
395,3.9236315,-1.144669647,-9.560618591,-4.622836761,10.68111961
396,3.9335645,0.1459465027,-9.908794556,-4.666994934,10.95382817
397,3.9434985,1.300495605,-10.66427353,-4.37734726,11.60082703
398,3.9534315,1.920206909,-11.65925446,-3.799548798,12.41217064
399,3.9633655,2.735112305,-12.38225098,-3.005450134,13.03202628
400,3.9732985,3.930676117,-12.75707153,-1.853146362,13.47691509
401,3.9832325,5.326523438,-12.71321274,-0.456101532,13.79150676
402,3.9931655,6.693630524,-12.46487915,-0.3616479492,14.15304529
403,4.0030995,7.298522644,-11.31287476,-0.3122506714,13.46651657
404,4.0130325,6.960974579,-9.48008606,0.4733157349,11.7707785
405,4.0229665,6.658453674,-8.100105743,-0.6994953918,10.50885399
406,4.0328995,5.15423172,-7.50958374,-1.322050781,9.203682461
407,4.042834583,4.38318512,-8.267158356,-1.103205872,9.422063589
408,4.052767583,3.524570618,-9.893975372,-2.111209717,10.71310194
409,4.062701583,1.745969238,-11.35463791,-3.873644714,12.12358586
410,4.072634583,0.3047662354,-12.69719604,-3.820654907,13.26307181
411,4.082567583,-1.258283386,-13.80713791,-2.23605011,14.04351289
412,4.092501583,-2.867736511,-14.22387131,-1.244512024,14.56335256
413,4.102434583,-4.930596771,-13.74860962,-0.3118016052,14.60932138
414,4.112368583,-5.985902252,-12.58867172,1.684596863,14.04078161
415,4.122301583,-5.992189178,-11.47678391,2.99302597,13.28838231
416,4.132235583,-5.196144562,-10.04845413,3.46694046,11.83178029
417,4.142168583,-1.532363434,-9.436526642,3.660937042,10.23712034
418,4.152102583,0.5703140259,-8.305778046,1.489402771,8.457513089
419,4.162035583,1.963017883,-7.544610901,-0.2701881409,7.800486811
420,4.171969583,2.377356262,-6.986870728,-2.687960358,7.854509294
421,4.181902583,2.707120514,-6.576424255,-4.930896149,8.653992968
422,4.191836583,3.139720917,-6.221811676,-6.252497864,9.362826363
423,4.201769583,3.197500763,-6.148913269,-6.18858078,9.291484144
424,4.211703583,2.821333008,-6.254743195,-5.276078339,8.65556093
425,4.221636583,1.741927643,-6.661148071,-4.088597717,8.007611182
426,4.231570583,0.6816824341,-7.187154236,-3.097808075,7.85597173
427,4.241503583,0.4044589233,-7.59849884,-2.287393341,7.945623949
428,4.251437583,0.4632865906,-7.680528259,-1.556463318,7.850332914
429,4.261370583,0.2836601257,-7.504644012,-1.571881256,7.672741068
430,4.271304583,0.9800120544,-7.67573822,-1.675914917,7.91745361
431,4.281237583,1.618883514,-7.133415985,-1.045126648,7.389093122
432,4.291171583,1.409768372,-6.876101074,-0.9864486694,7.088109326
433,4.301104583,1.232686615,-7.070247345,-1.173858948,7.272266403
434,4.311037583,1.021026764,-7.196135559,-1.656754761,7.45464278
435,4.320971583,0.6279441833,-7.221283264,-2.446811829,7.650368227
436,4.330904583,0.1155596924,-7.317982178,-3.463048553,8.096846453
437,4.340838583,-0.6526428223,-7.561825104,-4.496050415,8.821655791
438,4.350771583,-1.576820984,-7.962092743,-5.180427246,9.629024442
439,4.360705583,-2.505639496,-8.27015213,-5.439837799,10.211047
440,4.370638583,-3.769611053,-8.496331787,-5.771697693,10.9412118
441,4.380572583,-4.875211945,-8.613687744,-6.468498688,11.82390728
442,4.390505583,-4.831353149,-8.763526154,-6.134543152,11.73771628
443,4.400439583,-3.907025299,-9.259744263,-5.03133728,11.23930893
444,4.410372583,-3.316503296,-9.425150299,-4.418062592,10.92483086
445,4.420306583,-2.379302216,-9.413025513,-3.782334595,10.41979766
446,4.430239583,-1.194965057,-9.824669495,-3.071762238,10.36280828
447,4.440173583,0.4399351501,-10.24424698,-3.473227386,10.82596174
448,4.450106583,2.255809021,-10.33046768,-3.649860077,11.18609474
449,4.460040583,3.210972748,-10.07390121,-3.99115036,11.30146508
450,4.469973583,3.214116211,-9.567504272,-4.678820343,11.12470408
451,4.479907583,1.581161957,-8.978479156,-5.041965179,10.4179928
452,4.489840583,-0.07050338745,-9.044042816,-5.765710144,10.72581441
453,4.499774583,-0.8515791321,-10.3183429,-6.939120026,12.46373836
454,4.509707583,-1.326541443,-12.54900421,-6.834786987,14.35101153
455,4.519640583,-2.562820587,-14.95854355,-5.843847656,16.26273747
456,4.529574583,-4.847220154,-17.73886185,-4.180207214,18.85833755
457,4.539507583,-5.969286804,-20.07355682,-1.942211151,21.03217185
458,4.549441583,-4.801864471,-20.65060684,-0.1266366577,21.20192213
459,4.559374583,-1.584904175,-16.90180252,0.3396437073,16.9793465
460,4.569308583,0.8464897156,-10.94778397,-0.9280700684,11.01961128
461,4.579241583,1.685944061,-7.804620209,-2.371069336,8.329254095
462,4.589175583,1.995200958,-8.281378784,-2.690056,8.932998529
463,4.599108583,1.93532547,-10.18931122,-1.781146088,10.52330885
464,4.609042583,1.602268066,-11.12411728,-0.7997868347,11.26733807
465,4.618975583,1.324894867,-11.20015915,-0.4914280701,11.28895092
466,4.628909583,1.628313904,-10.61787003,-0.7126679993,10.76561497
467,4.638842583,1.62292511,-9.527387695,-1.272653503,9.748058737
468,4.648776583,1.19002533,-8.307424622,-1.810185699,8.585233625
469,4.658709583,1.398392029,-7.296576691,-2.341281281,7.7895526
470,4.668643583,1.939516754,-6.675967255,-2.574795685,7.413490193
471,4.678576583,2.443668365,-6.525679779,-2.936443634,7.561660722
472,4.688510583,2.932402039,-6.756649475,-3.225043488,8.040659136
473,4.698443583,3.210823059,-7.146289215,-3.499123535,8.580367112
474,4.708377583,3.473826141,-7.69100647,-3.79924942,9.254909223
475,4.718310583,3.611090698,-8.429570618,-4.70262085,10.3059342
476,4.728244583,3.827690277,-8.764873352,-4.713548126,10.66263352
477,4.738177583,4.585264893,-9.127569122,-3.571872253,10.82106481
478,4.748110583,5.246739349,-9.413025513,-1.999841309,10.96050584
479,4.758044583,4.968318329,-9.482930145,-1.144819336,10.76665048
480,4.767977583,3.686533813,-9.48816925,-0.9328601074,10.221845
481,4.777911583,2.131268005,-9.139394531,-1.321601715,9.477207753
482,4.787844583,1.015188904,-8.721613312,-2.132166138,9.035667087
483,4.797778583,0.3555107117,-8.190368042,-2.370021515,8.53378688
484,4.807711583,-0.2442919922,-7.612419891,-1.852547607,7.838402121
485,4.817645583,-0.5113366699,-7.201374664,-0.9024732971,7.275693802
486,4.827578583,-0.7312294006,-7.079228668,-0.2552192688,7.121468377
487,4.837512583,-0.8408015442,-7.216044159,0.1469943237,7.266350382
488,4.847445583,-0.3327580261,-8.113727417,-0.5695655823,8.140497863
489,4.857379583,1.344504089,-8.488098907,-1.272952881,8.687688032
490,4.867312583,2.679877167,-8.30173645,-0.9635462952,8.776616158
491,4.877246583,2.458188171,-9.280850372,-1.872605896,9.78179562
492,4.887179583,2.939437408,-9.391769714,-3.227737885,10.35682975
493,4.897113583,4.028422852,-8.904832306,-3.361559601,10.33558474
494,4.907046583,5.081932068,-7.948920135,-2.852468262,9.856365458
495,4.916980583,5.250032501,-7.014114075,-2.524949341,9.117894861
496,4.926913583,3.476819916,-6.936725006,-2.576741638,8.175942026
497,4.936846583,1.440753937,-6.644981689,-2.277364197,7.170630464
498,4.946780583,0.7020401001,-6.238576813,-2.330653381,6.696614528
499,4.956713583,0.3385958862,-6.297554169,-2.619552612,6.829047633
500,4.966647583,0.7659571838,-6.948999481,-3.557801514,7.844312322
501,4.976580583,1.355431366,-7.360942841,-4.406835938,8.685670767
502,4.986514583,1.378932495,-7.803422699,-4.951403503,9.344049299
503,4.996447583,1.289867706,-8.395591278,-5.467530212,10.10166314
504,5.006381583,1.024918671,-9.229956207,-5.360652466,10.72283287
505,5.016314583,0.5674699402,-9.530531158,-4.401746521,10.51324968
506,5.026248583,-1.249451752,-10.73821976,-3.769910431,11.44913612
507,5.036181583,-1.294208679,-11.60357025,-3.689527588,12.2446083
508,5.046116,0.6939569092,-9.66719696,-3.840713196,10.42532259
509,5.056049,0.7415579224,-8.870852966,-4.599784698,10.01997803
510,5.065983,0.1703457642,-9.00497406,-4.779710541,10.19628405
511,5.075916,-0.1823208618,-8.976682892,-4.489464111,10.03839453
512,5.08585,-0.7309300232,-9.10212204,-4.412823486,10.14178956
513,5.095783,-1.070723419,-9.098379822,-4.723876648,10.30737477
514,5.105717,-0.8054750061,-8.947792969,-6.084547119,10.85050702
515,5.11565,-0.5957611084,-9.207652588,-7.212601318,11.71142243
516,5.125584,-0.5126838684,-9.970765686,-6.910230103,12.14208768
517,5.135517,0.2933898926,-10.82848206,-5.253325653,12.03908351
518,5.14545,2.019899597,-11.62991547,-3.42951828,12.2921326
519,5.155384,4.532424774,-12.61187347,-1.66858017,13.50505041
520,5.165317,7.591313782,-13.39758957,-0.6271957397,15.4115809
521,5.175251,10.11207184,-13.70340363,0.1196012878,17.03090051
522,5.185184,10.68747528,-13.49518661,0.3345542908,17.21784296
523,5.195118,10.87159241,-13.23203384,-0.3873944092,17.12974943
524,5.205051,10.51383636,-13.32334396,-0.9614506531,16.99931283
525,5.214985,8.922345886,-12.91843597,-0.8310717773,15.72211577
526,5.224918,6.301446075,-12.45035934,-0.7761360168,13.9757668
527,5.234852,3.737727356,-12.88385788,-1.46724884,13.49508128
528,5.244785,0.623303833,-13.70385269,-3.401676178,14.13348814
529,5.254719,-3.981270905,-14.02867722,-4.139342194,15.15877489
530,5.264652,-7.862849121,-14.11534698,-2.884202271,16.41298387
531,5.274586,-9.006620636,-13.65101257,0.01077758789,16.35449405
532,5.284519,-7.999065857,-12.00683167,3.344345398,14.80991922
533,5.294453,-7.846533051,-9.976453857,4.855752411,13.58955643
534,5.304386,-6.734345856,-8.605604553,5.626649323,12.29093269
535,5.31432,-2.462678833,-8.099506989,4.676275635,9.671316059
536,5.324253,2.21374649,-7.769892426,4.059857483,9.041810914
537,5.334186,3.384461975,-7.096293182,3.22130127,8.496395804
538,5.34412,2.021845551,-6.257287903,-0.7923023987,6.62338693
539,5.354053,1.791474609,-5.533243561,-4.473597107,7.337522515
540,5.363987,2.545307007,-4.98568222,-6.607409821,8.659877568
541,5.37392,2.898123322,-5.59296936,-6.080655212,8.75527229
542,5.383854,2.966381378,-5.771548004,-4.877307587,8.11777766
543,5.393787,3.326083374,-6.036347351,-3.164269867,7.583727563
544,5.403721,3.608396301,-6.471941528,-1.637145538,7.588596479
545,5.413654,3.376378784,-6.786886597,-1.014889526,7.647990855
546,5.423588,2.714155884,-6.972350922,-0.8604107666,7.531309728
547,5.433521,1.817520447,-6.762936401,-0.9696835327,7.069722448
548,5.443455,0.6867718506,-7.517666931,-1.361269226,7.670725231
549,5.453388,-0.8198451233,-8.993747406,-1.436562653,9.1445804
550,5.463322,-0.4999603271,-9.251062317,-1.067579956,9.325869465
551,5.473255,0.7860154724,-8.944948883,-0.6668632507,9.00414557
552,5.483189,0.7533833313,-8.428373108,-1.071471863,8.52954346
553,5.493122,0.9626481628,-7.450905762,-1.84641037,7.736402226
554,5.503056,0.712817688,-7.449857941,-2.334545288,7.839553182
555,5.512989,-1.105900269,-7.518714752,-3.617976379,8.416878282
556,5.522923,-3.236868896,-7.890840912,-5.177732849,9.977555212
557,5.532856,-4.872517548,-8.560248871,-6.903344421,12.02811091
558,5.542789,-5.576802979,-8.254434814,-8.350984039,12.99905227
559,5.552723,-5.97093338,-8.219407654,-7.881560211,12.85805969
560,5.562656,-5.522615662,-8.812324677,-7.720495148,12.95231235
561,5.57259,-4.348157959,-9.278904419,-8.325836334,13.20318505
562,5.582523,-1.895358582,-10.39468414,-8.477920074,13.54684359
563,5.592457,0.5101391602,-10.82967957,-7.128775635,12.9754246
564,5.60239,2.212399292,-10.38435562,-4.452490997,11.51321972
565,5.612324,2.945424957,-9.706714783,-2.562371521,10.4623892
566,5.622257,3.990401917,-9.218879242,-1.720821533,10.19177456
567,5.632191,5.148244171,-9.410031738,-2.776426392,11.07978605
568,5.642124,4.648283844,-11.69308411,-4.506528625,13.36576069
569,5.652058,1.244811401,-15.29294815,-5.465883636,16.28802328
570,5.661991,-1.801054688,-19.24203598,-4.749772797,19.90125846
571,5.671925,-2.907553711,-22.25736557,-1.909878387,22.52757923
572,5.681858,-2.489473114,-21.0758725,1.564546509,21.27998317
573,5.691792,-1.055604858,-14.37430847,2.137854309,14.57070577
574,5.701725,-0.2074685669,-8.251141663,1.551822968,8.398365107
575,5.711659,-0.1715432739,-9.230405273,-0.7259902954,9.260500554
576,5.721592,0.04550537109,-12.07928101,-2.899021454,12.42237601
577,5.731526,1.268013153,-10.96903976,-2.731669464,11.37495973
578,5.741459,2.636317749,-10.05010071,-1.832639008,10.55051
579,5.751392,3.268303528,-9.533524933,-2.147434387,10.30443497
580,5.761326,3.338507538,-8.791817322,-2.843636627,9.824864053
581,5.771259,4.118385773,-8.307125244,-3.147355042,9.791592054
582,5.781193,4.10461441,-8.11567337,-3.260220337,9.661317216
583,5.791126,3.505859528,-8.041876831,-3.485202484,9.439781266
584,5.80106,2.96967453,-7.912695465,-3.275338898,9.064080827
585,5.810993,2.758014679,-7.886649628,-2.527194672,8.728837278
586,5.820927,3.037932587,-7.955955505,-1.828298035,8.710277614
587,5.83086,3.334465942,-8.361013184,-1.267264709,9.090168558
588,5.840794,3.684288483,-8.360713806,-0.8313711548,9.174240839
589,5.850727,3.616329803,-8.475225677,-1.063388672,9.275671782
590,5.860661,2.992277527,-8.853938141,-2.377356262,9.643535047
591,5.870594,2.300865326,-8.673413544,-3.157833252,9.512833153
592,5.880528,2.119592285,-8.678802338,-3.87184845,9.736811177
593,5.890461,1.774709473,-9.07398056,-4.281696167,10.18919226
594,5.900395,2.177671509,-9.789043579,-4.149521027,10.85293288
595,5.910328,1.969005432,-10.24888733,-3.254681854,10.93204591
596,5.920262,1.715432739,-10.31504974,-1.471440125,10.55973943
597,5.930195,1.770967255,-9.752968597,0.01616638184,9.912466032
598,5.940128,1.737886047,-9.367220764,0.3565585327,9.533740438
599,5.950062,0.7937992859,-12.34183502,-1.044827271,12.41139287
600,5.959995,0.01960922241,-8.978179779,-0.8300239563,9.016486923
601,5.969929,-0.01721420288,-4.248764648,-0.4712200928,4.274850377
602,5.979862,0.1546284485,-3.058439941,-1.14556778,3.26960095
603,5.989796,0.157023468,-4.060306549,-2.158511353,4.601077798
604,5.999729,0.2435435486,-6.636299744,-2.325264587,7.036095732
605,6.009663,1.507964172,-7.703131256,-2.216590576,8.156314172
606,6.019596,2.825973358,-7.069199524,-2.5015979,8.013594661
607,6.02953,3.509601746,-6.061495056,-3.315904541,7.749467701
608,6.0394615,3.776945801,-5.673501892,-3.37338501,7.604845148
609,6.0493955,3.771856384,-6.473139038,-2.681074677,7.9571723
610,6.0593285,3.355272675,-8.009993134,-2.401306458,9.01022294
611,6.0692625,3.159030762,-9.116791534,-2.535876617,9.976273525
612,6.0791955,3.101550293,-8.909622345,-2.791994019,9.838506754
613,6.0891295,2.311642914,-8.286767578,-3.168012085,9.167906545
614,6.0990625,1.544039154,-8.002508698,-3.618874512,8.917424241
615,6.1089955,1.354383545,-7.802374878,-4.033063202,8.886900883
616,6.1189295,1.308728485,-7.449109497,-3.873345337,8.497341152
617,6.1288625,1.399739227,-7.278164978,-3.410657501,8.158648169
618,6.1387965,1.664239197,-8.02795578,-3.261567535,8.82358141
619,6.1487295,2.152673492,-9.247320099,-3.895050201,10.26247281
620,6.1586635,2.802472229,-10.24484573,-5.180876312,11.81745294
621,6.1685965,2.993774414,-10.18497025,-6.072871399,12.23012965
622,6.1785305,2.918331299,-10.36309982,-5.984854431,12.31783171
623,6.1884635,2.978805542,-10.22957748,-5.286855927,11.89404824
624,6.1983975,2.728076935,-10.21685394,-4.963827667,11.68187029
625,6.2083305,2.363734589,-10.88566315,-5.201982422,12.29412561
626,6.2182645,1.160386963,-11.05316483,-5.42097702,12.36551424
627,6.2281975,0.3155438232,-10.74330917,-6.525230713,12.57365881
628,6.2381315,-0.162412262,-11.1079509,-7.218439178,13.24835141
629,6.2480645,-0.6867718506,-12.13346832,-6.757697296,13.90536522
630,6.2579985,-0.6994953918,-12.92831543,-5.855373688,14.20971621
631,6.2679315,0.3752696228,-12.07718536,-5.077591095,13.10653138
632,6.2778655,1.981130219,-10.60978683,-3.127895508,11.23726764
633,6.2877985,2.844235382,-9.441915436,-1.252894592,9.940281025
634,6.2977315,3.5699263,-8.82250351,0.03442840576,9.51746433
635,6.3076655,4.563260651,-9.167536011,1.008153534,10.28996782
636,6.3175985,6.086343384,-9.458530884,1.522184601,11.35008494
637,6.3275325,8.141270142,-10.16072067,0.8337661743,13.04667353
638,6.3374655,9.723629608,-11.76987442,-0.8858578491,15.2926015
639,6.3473995,10.45186523,-12.93864395,-1.800605621,16.72997833
640,6.3573325,9.682315521,-14.12896866,-1.440753937,17.18868119
641,6.3672665,7.561675415,-14.96991989,-0.2101629639,16.77264455
642,6.3771995,4.374802551,-15.60220505,-1.041683807,16.2373891
643,6.3871335,-0.15328125,-15.05299713,-2.741099854,15.30130211
644,6.3970665,-3.864064636,-12.71096741,-3.711082764,13.79390529
645,6.4070005,-5.942941589,-12.08032883,-4.103716278,14.07456524
646,6.4169335,-6.343209229,-12.42536133,-1.652713165,14.0483938
647,6.4268675,-5.693560181,-10.77489349,1.8592836,12.32768806
648,6.4368005,-5.170847168,-8.681197357,4.820126495,11.19528773
649,6.4467345,-4.534670105,-6.914571075,6.079457703,10.26325154
650,6.4566675,-2.926564178,-6.370901642,5.165009308,8.708070209
651,6.4666015,-0.7003935242,-6.4577211,1.760339355,6.729896547
652,6.4765345,0.1767823792,-5.523663483,-1.450783081,5.713744991
653,6.4864675,0.8000862122,-4.38318512,-3.807631989,5.860930907
654,6.4964015,2.249372406,-4.046385498,-4.537963257,6.482748055
655,6.5063345,3.006797333,-3.985462189,-4.848717041,6.95951119
656,6.5162685,3.573069763,-4.250411224,-4.942871246,7.434029813
657,6.5262015,4.043541412,-4.64873291,-4.385580139,7.562688542
658,6.5361355,4.040996704,-5.198838959,-3.369044037,7.396488262
659,6.5460685,3.756737823,-5.880371704,-2.213447113,7.320600971
660,6.5560025,3.414250031,-6.410419464,-1.541344757,7.424710408
661,6.5659355,2.789000244,-6.802154846,-1.331481171,7.471323512
662,6.5758695,2.110461273,-7.197033691,-1.145867157,7.587117521
663,6.5858025,1.50122818,-7.503446503,-1.159488831,7.739496742
664,6.5957365,1.196461945,-7.636669464,-1.369801483,7.850261002
665,6.6056695,0.9211843872,-7.814050598,-1.641187134,8.037503508
666,6.6156035,0.0860710144,-7.882757721,-2.10147995,8.158522874
667,6.6255365,-1.146615601,-7.884104919,-2.441722412,8.332817414
668,6.6354705,-2.804567871,-7.950267334,-3.009940796,8.951653212
669,6.6454035,-4.262536011,-8.006550293,-3.935166779,9.887345367
670,6.6553375,-4.862787781,-8.287516022,-4.659660187,10.6790477
671,6.6652705,-5.320835266,-8.757239227,-5.966742096,11.85759411
672,6.6752045,-5.359754333,-9.244625702,-8.090974731,13.40350488
673,6.6851375,-4.373305664,-9.824220428,-8.752449188,13.86529755
674,6.6950705,-2.468367004,-10.57775345,-8.204289093,13.61220273
675,6.7050045,0.7220983887,-11.36781052,-6.666387177,13.19807789
676,6.7149375,3.738326111,-11.79771652,-4.830005951,13.28495972
677,6.7248715,4.646637268,-11.50672165,-4.007915497,13.04067742
678,6.7348045,4.230203247,-10.23107437,-3.283122711,11.54765764
679,6.7447385,3.614533539,-9.488618317,-2.740201721,10.51700698
680,6.7546715,2.521955566,-10.86425766,-3.293151855,11.62915317
681,6.7646055,1.014290771,-13.12455734,-5.041665802,14.09614079
682,6.7745385,-1.557960205,-16.50348083,-7.253466339,18.09433319
683,6.7844725,-5.137017517,-21.35264694,-7.906109161,23.34161611
684,6.7944055,-6.347550201,-25.7472084,-5.904920654,27.16759507
685,6.8043395,-3.633993073,-23.0028154,-1.880988464,23.36393673
686,6.8142725,-0.3514691162,-13.6984639,1.520538025,13.78707654
687,6.8242065,0.75353302,-7.345375214,2.652783508,7.845993206
688,6.8341395,0.6662644958,-6.685098267,3.235671387,7.456810078
689,6.8440735,1.209933929,-9.889484711,2.270478516,10.21865552
690,6.8540065,1.977388,-12.28001358,0.3359014893,12.44273389
691,6.8639395,2.268233185,-11.53830597,-0.5930667114,11.77408657
692,6.8738735,2.748284912,-8.554411011,-1.590292969,9.124694484
693,6.8838065,2.876418457,-7.014114075,-3.047512665,8.170612758
694,6.8937405,2.567311249,-7.056176605,-4.361929321,8.683728619
695,6.9036735,2.139650574,-7.60673172,-5.259612579,9.492312496
696,6.9136075,2.30505661,-8.602161713,-5.161566467,10.29331047
697,6.9235405,2.530188446,-9.500593414,-4.65696579,10.87889972
698,6.9334745,2.507735138,-9.826465759,-3.901935883,10.86615242
699,6.9434075,2.641407166,-10.23676254,-3.272345123,11.06691383
700,6.9533415,2.946772156,-10.52147049,-2.766996002,11.2712499
701,6.9632745,3.245401154,-10.48764084,-2.01960022,11.16252767
702,6.9732085,3.774999847,-10.07090744,-0.6512956238,10.77487756
703,6.9831415,4.241130524,-9.384285278,1.364263,10.38812841
704,6.9930755,4.109254761,-8.60126358,2.689457245,9.904589347
705,7.0030085,3.436403961,-7.835156708,2.306104431,8.860963292
706,7.0129425,3.014281769,-7.142546997,0.1856140137,7.754761424
707,7.0228755,2.581831055,-6.513255615,-1.620979156,7.19137843
708,7.0328095,2.2945784,-6.309828644,-3.834276581,7.731798267
709,7.04274325,1.731150055,-6.408024445,-5.611081696,8.691599139
710,7.05267725,0.6662644958,-6.447242889,-5.726491699,8.648904927
711,7.06261025,-0.09445358276,-6.610852661,-4.02273468,7.739165891
712,7.07254425,-0.6098318481,-6.396199036,-1.715881805,6.650376482
713,7.08247725,-0.6099815369,-6.239924011,0.1243913269,6.270901239
714,7.09241025,-0.3023712158,-6.246061249,0.6192622375,6.283963335
715,7.10234425,0.0288899231,-6.315816193,-0.494122467,6.335181593
716,7.11227725,0.3905378723,-6.374194794,-1.337468719,6.524699355
717,7.12221125,1.041085052,-6.671027527,-1.97155014,7.03373843
718,7.13214425,1.641785889,-6.835236053,-2.335742798,7.40753719
719,7.14207825,2.330354004,-6.943910065,-2.731819153,7.817369932
720,7.15201125,3.080743561,-7.392676849,-3.063379669,8.57478553
721,7.16194525,2.82462616,-7.700137482,-2.725532227,8.642867354
722,7.17187825,2.142344971,-7.858957214,-2.503693542,8.521815055
723,7.18181225,1.849104767,-8.158484344,-2.542762299,8.743322901
724,7.19174525,1.62412262,-8.192463684,-2.710862732,8.780832093
725,7.20167925,1.073118439,-8.246501312,-2.785707092,8.770207015
726,7.21161225,-0.160765686,-8.636290741,-3.268602905,9.235536169
727,7.22154625,-1.18763031,-8.734486542,-4.116888885,9.728848596
728,7.23147925,-1.197958832,-8.321195984,-4.6382547,9.601604794
729,7.24141325,-0.1880090332,-8.199648743,-4.392615509,9.304013
730,7.25134625,0.7306306458,-8.084837494,-4.821623383,9.441740861
731,7.26128025,1.390308838,-8.189769287,-6.159990234,10.34170002
732,7.27121325,2.257904663,-8.657995605,-6.967411194,11.34036331
733,7.28114725,3.107537842,-9.200018463,-6.492598572,11.68122285
734,7.29108025,2.871478729,-9.543404388,-5.374723206,11.32296812
735,7.30101425,2.104024658,-9.007219391,-4.843627625,10.44115173
736,7.31094725,1.738634491,-8.971144409,-5.756130066,10.7998757
737,7.32088025,0.818946991,-9.18519928,-6.395450592,11.22231475
738,7.33081425,-0.6007008362,-8.649163971,-5.823040924,10.44397838
739,7.34074725,-0.4915777588,-7.844138031,-4.615352325,9.114473503
740,7.35068125,0.3255729675,-8.064479828,-3.612288208,8.842536896
741,7.36061425,0.8213420105,-9.436077576,-2.78016861,9.871347436
742,7.37054825,1.70719986,-11.1012149,-2.337239685,11.47232292
743,7.38048125,2.388732605,-12.81634827,-2.630629578,13.29981347
744,7.39041525,3.713477783,-14.48028809,-1.851799164,15.06312784
745,7.40034825,6.697073364,-16.52039566,-1.30468689,17.87390479
746,7.41028225,9.829160156,-17.6333313,-0.1633103943,20.18844799
747,7.42021525,12.31474136,-18.00066742,0.02918930054,21.81003747
748,7.43014925,13.49473755,-17.83062103,-0.9571096802,22.38202508
749,7.44008225,12.80826508,-17.08337494,-1.990410919,21.44423207
750,7.45001625,9.303153992,-15.37946823,-1.449585571,18.03269297
751,7.45994925,4.555626526,-13.77076355,0.3475772095,14.50891008
752,7.46988325,1.659000092,-13.9054834,1.309476929,14.0651868
753,7.47981625,-1.330133972,-13.68963226,-0.05583389282,13.75421409
754,7.48975025,-5.827980652,-14.10801224,-2.404150543,15.4525502
755,7.49968325,-9.685608673,-14.3805954,-1.119072876,17.37425865
756,7.50961725,-9.975705414,-12.95855255,0.7702981567,16.37168721
757,7.51955025,-9.254505157,-10.92503128,1.945504303,14.44946924
758,7.52948425,-8.745862885,-9.346414032,2.70756958,13.08344396
759,7.53941725,-6.332431641,-8.352331238,3.251538391,10.97422569
760,7.54935125,-2.226769409,-8.819958801,3.276686096,9.668859655
761,7.55928425,0.1670526123,-8.299790497,2.575095062,8.691693934
762,7.56921725,1.057550812,-7.037764893,0.6735992432,7.148586178
763,7.57915125,1.376986542,-5.579497375,-1.762884064,6.011209788
764,7.58908425,1.56903717,-4.20999527,-3.058889008,5.435323337
765,7.59901825,1.721120911,-3.226091309,-3.813769226,5.283441873
766,7.60895125,2.312990112,-2.658920746,-4.255800018,5.525542199
767,7.61888525,3.373684387,-2.450254669,-4.397555237,6.060031877
768,7.62881825,4.442012787,-2.568059692,-3.948189697,6.47414937
769,7.63875225,5.090763702,-3.172203369,-3.022065582,6.716519163
770,7.64868525,5.420527954,-4.467459869,-1.658101959,7.217314119
771,7.65861925,5.132227478,-5.233566742,-1.663939819,7.516560081
772,7.66855225,4.639152832,-5.279521179,-2.244732056,7.377933646
773,7.67848625,3.795656891,-5.519771576,-2.405348053,7.117625218
774,7.68841925,2.920426941,-5.869444427,-2.256557465,6.933348613
775,7.69835325,1.683249664,-6.314319305,-1.772314453,6.770897743
776,7.70828625,0.8078700256,-6.734645233,-1.137484589,6.87764288
777,7.71822025,-0.6801855469,-6.963519287,-0.6339317322,7.025320112
778,7.72815325,-2.605481873,-7.597301331,-0.8544232178,8.076977302
779,7.73808725,-4.51416275,-8.610244904,-1.910327454,9.907741095
780,7.74802025,-6.131399689,-9.919272766,-3.907025299,12.2984097
781,7.75795425,-8.567583618,-11.25165207,-6.327491913,15.49323456
782,7.76788725,-10.26849655,-12.35650452,-8.463549957,18.15920987
783,7.77782125,-9.991422729,-13.20718552,-9.938432922,19.31400338
784,7.78775425,-6.912625122,-13.84485947,-10.19829254,18.53293529
785,7.79768825,-0.9870474243,-13.57571915,-8.597221985,16.09927448
786,7.80762125,3.473826141,-12.78027328,-5.992787933,14.53672455
787,7.81755425,4.605323181,-11.31033005,-3.985761566,12.84596679
788,7.82748825,5.068609772,-9.000034332,-1.878294067,10.49854331
789,7.83742125,5.580395508,-8.053103485,-0.1080752563,9.798212593
790,7.84735525,3.47861618,-9.942324829,-1.155297546,10.59647611
791,7.85728825,-0.5840853882,-12.88730072,-4.780159607,13.75767428
792,7.86722225,-3.665727081,-16.47174683,-6.720873871,18.16386919
793,7.87715525,-6.053112488,-20.26141617,-6.90469162,22.24499769
794,7.88708925,-7.448211365,-21.61280594,-6.479575653,23.76076879
795,7.89702225,-6.535559235,-18.01354065,-4.848417664,19.76634349
796,7.90695625,-3.944746857,-12.84688477,-1.405427399,13.51216867
797,7.91688925,-1.082099762,-9.967023468,1.788331146,10.18384137
798,7.92682325,0.830173645,-10.74480606,2.930456085,11.16815197
799,7.93675625,2.891836395,-12.59181519,3.287313995,13.33127753
800,7.94669025,4.155358887,-11.91103088,2.357447662,12.83344161
801,7.95662325,3.879332886,-8.975635071,-1.179696808,9.849006707
802,7.96655725,3.480412445,-6.570586395,-4.744533691,8.820231081
803,7.97649025,3.69401825,-6.16403183,-6.549031219,9.722698655
804,7.98642425,4.087998962,-7.059769135,-6.082002411,10.17559969
805,7.99635725,4.214934998,-8.224347382,-4.77282486,10.40122224
806,8.00629125,4.333638153,-10.08303223,-3.967050476,11.6698521
807,8.01622425,4.300856323,-12.11146408,-3.882925415,13.42616986
808,8.02615725,3.97827713,-13.07590851,-3.623365173,14.13983194
809,8.03609125,3.323838043,-12.75991562,-2.902164917,13.50132983
810,8.0460245,3.115321655,-11.83034866,-1.70600235,12.35203718
811,8.0559585,3.372935944,-10.62236069,-0.7893086243,11.17292493
812,8.0658915,3.75718689,-9.643246765,0.4505630493,10.35913455
813,8.0758255,4.377496948,-9.006620636,2.299518127,10.27470089
814,8.0857585,4.391567688,-8.140222321,2.2056633,9.508629595
815,8.0956925,3.868106232,-6.785838776,0.3465293884,7.818563572
816,8.1056255,3.062481537,-5.588478699,-1.5925383,6.568566477
817,8.1155595,2.295476532,-5.061574402,-3.494932251,6.565310303
818,8.1254925,1.722917175,-4.883145447,-4.802762604,7.062583215
819,8.1354265,0.9535171509,-4.865631866,-4.990023193,7.034479361
820,8.1453595,0.4703219604,-5.497168579,-4.002077637,6.815914505
821,8.1552935,0.00628692627,-6.353238373,-1.851649475,6.61757381
822,8.1652265,-0.3496728516,-6.886130219,0.4712200928,6.91108594
823,8.1751605,-0.4445755005,-6.818770294,1.060394897,6.915035288
824,8.1850935,-0.4580474854,-6.71279068,0.2547702026,6.733221671
825,8.1950275,-0.6387217712,-6.662345581,-0.9559121704,6.760812246
826,8.2049605,-0.5026547241,-6.643185425,-2.018702087,6.961302499
827,8.2148935,0.08202941895,-6.775510254,-2.696492615,7.292828014
828,8.2248275,0.9996212769,-6.865772552,-3.013832703,7.564473742
829,8.2347605,1.723366241,-6.837481384,-3.188968506,7.738905802
830,8.2446945,2.324516144,-6.718778229,-2.933898926,7.691106494
831,8.2546275,2.683469696,-6.759493561,-2.533331909,7.701268296
832,8.2645615,3.041525116,-7.177723846,-2.322869568,8.134268109
833,8.2744945,2.541714478,-7.617958374,-2.256856842,8.341882586
834,8.2844285,1.294807434,-8.31116684,-2.284249878,8.716066661
835,8.2943615,-0.07065307617,-9.31617691,-2.458637238,9.635405604
836,8.3042955,-1.255289612,-10.42432251,-2.662213898,10.83188048
837,8.3142285,-1.534758453,-10.72519684,-3.156785431,11.28497342
838,8.3241625,-1.299747162,-9.81119751,-3.754342804,10.58508522
839,8.3340955,-0.5146298218,-8.882229309,-4.396357727,9.924051724
840,8.3440295,0.07454498291,-8.567583618,-5.593717804,10.23223949
841,8.3539625,0.3339555359,-9.868079224,-6.546935577,11.84706205
842,8.3638965,1.763931885,-11.15719849,-7.170838165,13.37966568
843,8.3738295,3.060834961,-10.60709244,-7.217541046,13.18984531
844,8.3837635,2.402953033,-10.50784882,-6.219416656,12.44468616
845,8.3936965,1.834435272,-10.45485901,-5.151986389,11.7988217
846,8.4036295,1.690135345,-10.56443115,-4.909490662,11.77144263
847,8.4135635,0.9163943481,-10.58553726,-4.779860229,11.65077
848,8.4234965,-0.04520599365,-10.39842636,-4.414320374,11.29670477
849,8.4334305,-0.1874102783,-10.09785141,-4.41940979,11.02419651
850,8.4433635,-0.3866459656,-10.15308655,-4.130061493,10.96777414
851,8.4532975,-0.2278262329,-11.26377686,-2.972368927,11.65159006
852,8.4632305,0.577199707,-12.3819516,-2.272574158,12.60200294
853,8.4731645,2.299817505,-12.43419296,-3.196452942,13.04283813
854,8.4830975,3.824696503,-12.42955261,-3.243155823,13.40299001
855,8.4930315,5.254972229,-12.41533218,-2.022144928,13.6324714
856,8.5029645,6.572981415,-11.9599791,-0.07274871826,13.64736154
857,8.5128985,7.578440552,-11.35299133,1.221909027,13.70460635
858,8.5228315,7.898175659,-10.660681,1.759590912,13.38385065
859,8.5327655,8.570278015,-10.66547104,1.292562103,13.74309479
860,8.5426985,9.802515564,-11.52917496,0.05343887329,15.13320991
861,8.5526315,10.05593857,-12.69959106,-1.090332642,16.23546547
862,8.5625655,8.02675827,-14.5796814,-1.520088959,16.71246925
863,8.5724985,4.750820618,-16.20994125,-1.704505463,16.97756846
864,8.5824325,0.1516346741,-16.65212173,-3.47517334,17.01155434
865,8.5923655,-4.826712799,-16.17012405,-6.185437317,17.9730271
866,8.6022995,-8.381520538,-15.41225006,-3.945944366,17.98215269
867,8.6122325,-9.921218719,-14.07732605,1.240620117,17.26675499
868,8.6221665,-9.583221588,-11.5418985,5.133574677,15.85582372
869,8.6320995,-9.550589447,-9.525591431,7.038363647,15.21476959
870,8.6420335,-8.26311676,-7.832911377,8.117170258,13.98292002
871,8.6519665,-4.761298828,-7.184459839,6.455475769,10.76845379
872,8.6619005,-0.8126600647,-7.050488434,3.611689453,7.963297322
873,8.6718335,0.6095324707,-6.670428772,0.5288502502,6.719064847
874,8.6817675,1.247206421,-6.005062408,-2.654729462,6.683104585
875,8.6917005,1.720522156,-5.03717514,-5.211113434,7.449096127
876,8.7016335,2.711311798,-3.851640472,-6.735094299,8.218749371
877,8.7115675,3.804338837,-2.964585114,-7.055877228,8.546763266
878,8.7215005,4.646637268,-2.614313507,-5.689518585,7.797210703
879,8.7314345,4.975653076,-2.72044281,-3.894601135,6.879378651
880,8.7413675,5.328768768,-3.432811432,-2.266586609,6.731818905
881,8.7513015,5.31918869,-4.486320648,-1.344953156,7.087294284
882,8.7612345,4.429588623,-5.305567017,-1.127605133,7.002984369
883,8.7711685,3.114273834,-5.857020264,-1.405577087,6.780784234
884,8.7811015,2.186054077,-6.495442657,-1.946701813,7.124553017
885,8.7910355,1.613794098,-6.938072205,-2.116149445,7.430966679
886,8.8009685,1.242715759,-7.351811829,-1.936373291,7.703442162
887,8.8109025,0.450712738,-7.65702713,-1.365161133,7.790819685
888,8.8208355,-0.8610095215,-7.837551727,-0.3778143311,7.893750575
889,8.8307695,-2.388582916,-8.210126953,-0.4911286926,8.564620268
890,8.8407025,-4.392914886,-8.822653198,-1.633553009,9.990265567
891,8.8506355,-6.573131104,-10.0303418,-4.071233826,12.66446817
892,8.8605695,-8.790320435,-11.37215149,-7.231462097,16.09004683
893,8.8705025,-10.18946091,-12.38389755,-9.508526917,18.64398338
894,8.8804365,-9.235045624,-12.88864792,-9.733658752,18.60503764
895,8.8903695,-6.591692505,-13.44773529,-8.961564331,17.45284016
896,8.9003035,-2.703378296,-13.54488327,-7.887697449,15.90559298
897,8.9102365,2.576891327,-12.74075546,-6.007906494,14.31999159
898,8.9201705,4.785398712,-11.50821854,-4.384682007,13.21228864
899,8.9301035,5.053790588,-9.451046448,-2.956651611,11.11777257
900,8.9400375,5.784421234,-7.918233948,-1.099313965,9.867443897
901,8.9499705,4.667593689,-9.234446869,-0.9300160217,10.3887617
902,8.9599045,1.468895416,-12.21564743,-3.503165131,12.79264874
903,8.9698375,-1.344953156,-16.11069763,-5.786816254,17.17121776
904,8.9797715,-3.678600311,-20.48909271,-6.133345642,21.70145039
905,8.9897045,-5.733826447,-22.41992752,-5.04540802,23.68514424
906,8.9996385,-6.125561829,-18.89745255,-3.143762512,20.11266922
907,9.0095715,-3.455863495,-11.83858154,-1.106349335,12.38220555
908,9.0195045,-1.565744019,-7.158264313,-0.5155279541,7.345615793
909,9.0294385,-0.2975811768,-7.284302216,-0.3815565491,7.300356068
910,9.0393715,1.799108734,-10.64316742,-0.02754272461,10.7941912
911,9.049304833,3.12295578,-13.01064423,0.07708969116,13.38042073
912,9.059237833,3.259771271,-12.24498642,-1.340761871,12.74219147
913,9.069171833,2.703827362,-9.134305115,-2.939437408,9.969278039
914,9.079104833,3.295696564,-6.976691895,-4.325704651,8.845765448
915,9.089038833,3.766766968,-7.111411743,-4.592150574,9.265449652
916,9.098971833,3.88232666,-7.912994843,-4.110152893,9.725292
917,9.108905833,3.967200165,-8.893156586,-4.326453094,10.65575467
918,9.118838833,3.93381958,-9.641151123,-4.246519318,11.24542831
919,9.128772833,3.503913574,-10.4151915,-4.217629395,11.7703875
920,9.138705833,2.361638947,-11.25644211,-3.458108826,12.01013506
921,9.148638833,1.588796082,-11.74382858,-2.378404083,12.08712492
922,9.158572833,1.396595764,-11.83962936,-0.6587800598,11.93990345
923,9.168505833,2.367925873,-11.00107315,1.787732391,11.39415071
924,9.178439833,3.38042038,-9.574389954,3.600462799,10.77309228
925,9.188372833,3.820954285,-8.46205307,2.740052032,9.680594969
926,9.198306833,3.448379059,-7.388934631,-0.1199006653,8.154878864
927,9.208239833,2.89243515,-6.546486511,-2.913092194,7.727145195
928,9.218173833,2.294428711,-6.058800659,-4.975054321,8.1685148
929,9.228106833,1.661245422,-5.86091217,-6.259533234,8.734516823
930,9.238040833,-0.07843688965,-5.591771851,-6.198609924,8.348462719
931,9.247973833,-0.6245013428,-5.538482666,-4.270170135,7.021334998
932,9.257907833,-0.9023236084,-5.922733612,-1.357527008,6.142950505
933,9.267840833,-0.6679110718,-6.588848419,-0.04251159668,6.622751386
934,9.277774833,-0.2842588806,-6.96321991,0.060025177,6.969278129
935,9.287707833,0.2164498901,-6.871460724,-0.1841171265,6.877333942
936,9.297640833,0.7617658997,-6.718179474,-0.9101074219,6.822207725
937,9.307574833,1.231489105,-6.842271423,-1.539398804,7.120603368
938,9.317507833,1.695224762,-6.934779053,-1.746717682,7.34955578
939,9.327441833,2.099533997,-6.765181732,-1.857637024,7.323014556
940,9.337374833,2.69589386,-6.605463867,-2.512076111,7.563763811
941,9.347308833,2.936593323,-6.295907593,-2.671943665,7.44320601
942,9.357241833,3.340902557,-6.369255066,-3.033890991,7.805993501
943,9.367175833,3.760180664,-7.073540497,-3.177891541,8.61817431
944,9.377108833,3.203638,-7.428302765,-2.457739105,8.45478917
945,9.387042833,2.542013855,-7.442373505,-2.34831665,8.207639668
946,9.396975833,0.8979826355,-5.898484039,-2.957400055,6.659181771
947,9.406909833,-0.9189390564,-4.622537384,-3.819607086,6.066440402
948,9.416842833,-2.694097595,-7.53188736,-2.373913422,8.344037032
949,9.426776833,-1.375938721,-12.61771133,-2.518512726,12.93996727
950,9.436709833,0.5278024292,-13.78797775,-2.730172577,14.06558738
951,9.446642833,1.272653503,-12.0767363,-3.93381958,12.76487928
952,9.456576833,1.515747986,-11.6733252,-5.67724411,13.06886046
953,9.466509833,2.507136383,-12.10712311,-7.239096222,14.32734019
954,9.476443833,3.435206451,-10.98775085,-8.512647858,14.31769834
955,9.486376833,2.928360443,-9.968969421,-8.077502747,13.16061157
956,9.496310833,3.474125519,-9.161548462,-7.150929565,12.13009942
957,9.506243833,3.547772369,-8.937314758,-6.18618576,11.43377357
958,9.516177833,1.962868195,-8.700656891,-5.189258881,10.319045
959,9.526110833,0.8641529846,-9.099128265,-4.587659912,10.22680395
960,9.536044833,0.3192860413,-9.356892242,-4.123924255,10.23035323
961,9.545977833,0.4203259277,-9.924511871,-3.897145844,10.6705368
962,9.555911833,1.097966766,-11.7077536,-3.006797333,12.13745672
963,9.565844833,1.986668701,-13.02276901,-1.493594055,13.25783498
964,9.575777833,2.489323425,-13.28637085,-1.032552795,13.55693722
965,9.585711833,1.97858551,-12.51741989,-1.346150665,12.74412504
966,9.595644833,1.510808258,-11.78005325,-1.820813599,12.01530517
967,9.605578833,1.555265808,-10.77923447,-1.041833496,10.94057423
968,9.615511833,2.558329926,-10.21865021,0.2549198914,10.53711764
969,9.625445833,4.371659088,-10.73597443,0.2704875183,11.59507281
970,9.635378833,6.709347839,-12.5704097,-0.1642085266,14.24982501
971,9.645312833,9.046288147,-15.1077832,-1.087638245,17.64265852
972,9.655245833,9.424401855,-16.47923126,-0.8394543457,19.00234451
973,9.665179833,6.823410645,-16.02582413,-1.115630035,17.45367016
974,9.675112833,2.666255493,-15.36165527,-1.51410141,15.66466962
975,9.685046833,-1.457219696,-15.55146057,-3.003354492,15.9057082
976,9.694979833,-5.221741333,-15.39817932,-4.066743164,16.76033737
977,9.704913833,-7.426656189,-14.5968956,-1.56679184,16.45233783
978,9.714846833,-7.581434326,-12.37895782,2.055974579,14.66096091
979,9.724779833,-7.313790894,-10.01642075,4.642445984,13.24282925
980,9.734713833,-6.202052765,-8.150101776,6.00835556,11.87391907
981,9.744646833,-4.151317291,-7.352560272,5.718109131,10.19756588
982,9.754580833,-1.768572235,-6.727609863,3.770808563,7.912495147
983,9.764513833,0.2356100464,-6.11717926,2.121238861,6.478815363
984,9.774447833,0.5495072937,-5.353916473,-0.1095721436,5.383157617
985,9.784380833,0.4650828552,-4.82072525,-3.417543182,5.927503303
986,9.794314833,0.480201416,-4.511767731,-6.035149841,7.550475155
987,9.804247833,1.385219421,-4.646786957,-6.546486511,8.146652534
988,9.814181833,2.447111206,-4.9249086,-5.612728271,7.857849364
989,9.824114833,2.884501648,-4.849315796,-4.319268036,7.105792694
990,9.834048833,3.406765594,-5.04540802,-2.953358459,6.766425947
991,9.843981833,3.655697937,-5.411846008,-2.021396484,6.836537747
992,9.853915833,3.578009491,-5.741011505,-1.511107635,6.931436453
993,9.863848833,3.121907959,-5.940247192,-1.300046539,6.835420032
994,9.873781833,2.418670349,-6.02946167,-1.348096619,6.634888001
995,9.883715833,2.175126801,-6.019582214,-1.473685455,6.567974989
996,9.893648833,1.948797455,-6.016139374,-1.65914978,6.537929525
997,9.903582833,1.260678406,-6.098767548,-2.063309326,6.560603708
998,9.913515833,0.2142045593,-6.127058716,-2.495310974,6.619162255
999,9.923449833,-1.095122681,-6.29860199,-2.568957825,6.889936503
1000,9.933382833,-2.824027405,-6.891668701,-2.806214447,7.958961477
1001,9.943316833,-4.415068817,-7.655081177,-3.722159729,9.588929739
1002,9.953249833,-5.76271637,-8.438851318,-5.106930084,11.42382801
1003,9.963183833,-7.425159302,-9.294921112,-6.863826599,13.73465197
1004,9.973116833,-8.702902222,-10.50515442,-7.749834137,15.68944568
1005,9.983050833,-8.646619263,-12.02853653,-8.138575745,16.90225224
1006,9.992983833,-6.887627106,-13.42917389,-8.491691437,17.31735955
1007,10.00291783,-3.062481537,-14.31578018,-7.821085968,16.59788363
1008,10.01285083,2.828518066,-14.19138885,-5.590274963,15.51280781
1009,10.02278383,6.596632233,-12.8516748,-3.632047119,14.89539756
1010,10.03271783,7.935298462,-10.25023453,-1.947899323,13.10841643
1011,10.04265108,8.735384674,-7.419920197,-0.5149291992,11.47289472
1012,10.05258508,7.774233398,-7.34462677,-0.5998027039,10.71176972
1013,10.06251808,3.316353607,-9.319170685,-3.460054779,10.47936652
1014,10.07245208,-0.923429718,-12.3514151,-6.171216888,13.83813916
1015,10.08238508,-3.421435089,-17.02888824,-6.937772827,18.7035276
1016,10.09231908,-4.816384277,-22.50704636,-6.856192474,24.01607937
1017,10.10225208,-5.512137451,-25.70394836,-5.065765686,26.7719742
1018,10.11218608,-5.469925232,-20.43984512,-1.694476318,21.2268368
1019,10.12211908,-3.699556732,-11.21872055,2.178419952,12.01215735
1020,10.13205308,-1.794468384,-7.939938812,4.328399048,9.219424247
1021,10.14198608,1.586700439,-9.242380371,4.461472321,10.3847941
1022,10.15191908,3.325484619,-11.01379669,2.177671509,11.70917669
1023,10.16185308,3.730841675,-10.58344162,-1.509910126,11.32290796
1024,10.17178608,3.610791321,-8.603957977,-4.062402191,10.17688648
1025,10.18172008,3.728147278,-6.86487442,-5.313500519,9.447691289
1026,10.19165308,4.166286163,-6.980134735,-5.688171387,9.921467383
1027,10.20158708,4.628075867,-8.200097809,-5.14839386,10.73157256
1028,10.21152008,4.693040771,-9.755363617,-3.765270081,11.46163207
1029,10.22145408,4.461771698,-11.17366425,-3.337609406,12.48590469
1030,10.23138708,3.67291214,-12.39168137,-3.259920959,13.32933364
1031,10.24132108,1.989063721,-13.24730209,-2.707120514,13.66659755
1032,10.25125408,0.4959187317,-13.72855133,-1.826052704,13.85833776
1033,10.26118808,0.5316943359,-12.71830215,-0.08861572266,12.72971961
1034,10.27112108,2.038610687,-10.53179901,2.09444458,10.9298409
1035,10.28105408,2.748883667,-8.472082214,2.019151154,9.132880698
1036,10.29098808,2.738704834,-6.55486908,-0.6435118103,7.133086307
1037,10.30092108,2.963237915,-4.949158173,-2.796334991,6.410494126
1038,10.31085508,3.250789948,-3.936813354,-3.132386169,5.989822851
1039,10.32078808,4.183799744,-3.418291626,-3.52546875,6.451188095
1040,10.33072208,4.250111847,-3.427722015,-3.585344238,6.532030483
1041,10.34065508,2.655926971,-4.57972641,-3.142415314,6.156510056
1042,10.35058908,0.5572911072,-5.873336334,-2.141446838,6.276340306
1043,10.36052208,-0.8262817383,-6.810986481,-1.465901642,7.015778358
1044,10.37045608,-1.454076233,-7.183412018,-1.580413513,7.497563123
1045,10.38038908,-1.489253082,-7.186256104,-1.886826324,7.577616057
1046,10.39032308,-0.7578739929,-7.080276489,-2.023192749,7.402566923
1047,10.40025608,-0.03891906738,-7.044800262,-2.017055511,7.327976417
1048,10.41019008,0.6318360901,-7.159910889,-1.582060089,7.359786335
1049,10.42012308,1.323547668,-7.090305634,-1.761686554,7.424806524
1050,10.43005608,2.303110657,-7.17383194,-2.137554932,7.831814891
1051,10.43999008,2.881507874,-7.354506226,-2.05118454,8.160833748
1052,10.44992308,2.628833313,-7.283404083,-2.396067352,8.10554615
1053,10.45985708,2.179318085,-7.229815521,-2.401905212,7.923938947
1054,10.46979008,1.682501221,-7.427853699,-2.163600769,7.917385251
1055,10.47972408,1.48835495,-7.895630951,-2.103425903,8.305455382
1056,10.48965708,1.344803467,-7.896080017,-2.940784607,8.532572303
1057,10.49959108,0.7044351196,-7.740254059,-3.947590942,8.717295222
1058,10.50952408,-0.1225950623,-7.96822998,-4.340374146,9.074500884
1059,10.51945808,-0.02619552612,-8.698112183,-3.970193939,9.561395383
1060,10.52939108,0.2830613708,-9.022038574,-3.222648468,9.584506608
1061,10.53932508,0.0043409729,-8.904981995,-2.995870056,9.39542232
1062,10.54925808,0.1613644409,-9.769733734,-3.748055878,10.4652596
1063,10.55919108,1.520088959,-11.572435,-5.199288025,12.77750047
1064,10.56912508,3.744463348,-12.81814453,-6.336772614,14.78108664
1065,10.57905808,4.098926239,-12.22283249,-6.164331207,14.2897799
1066,10.58899208,3.133134613,-10.67325485,-5.254523163,12.30223213
1067,10.59892508,2.496358795,-9.369466095,-5.014272766,10.91611806
1068,10.60885908,2.084714813,-8.394094391,-5.656287689,10.33443017
1069,10.61879208,0.6301895142,-7.641010437,-6.244264984,9.888024298
1070,10.62872608,-0.1257385254,-7.599546661,-6.438111877,9.960833508
1071,10.63865908,-0.690813446,-7.254364471,-5.764362946,9.29144269
1072,10.64859308,0.06765930176,-7.858957214,-4.865033112,9.243177671
1073,10.65852608,0.6457571411,-9.552984467,-3.545676727,10.21020754
1074,10.66846008,0.7559280396,-11.80011154,-1.360221405,11.90227969
1075,10.67839308,1.415007477,-12.79045212,-1.044228516,12.91078327
1076,10.68832608,1.373843079,-11.76942535,-1.428778839,11.93516765
1077,10.69826008,1.33627121,-11.22635468,-1.27774292,11.37757826
1078,10.70819308,2.62449234,-11.45852188,-0.7530839539,11.77933866
1079,10.71812708,4.027824097,-11.89142166,-0.4586462402,12.56342439
1080,10.72806008,5.975873108,-12.92801605,-0.7476951599,14.26196713
1081,10.73799408,9.598639526,-16.16263962,-2.231110382,18.92994067
1082,10.74792708,12.0289856,-19.11554901,-3.839216309,22.90939306
1083,10.75786108,9.482780457,-19.3851384,-2.920127563,21.77691119
1084,10.76779408,5.616620178,-17.71551041,-0.9171427917,18.60717287
1085,10.77772808,3.091820526,-16.9937114,0.2962339783,17.27522317
1086,10.78766108,-1.385668488,-15.72285416,-0.5586383057,15.79367901
1087,10.79759508,-5.319937134,-14.3115889,-0.783021698,15.28844109
1088,10.80752808,-8.833131409,-12.76784912,0.6337820435,15.53846393
1089,10.81746108,-9.026678925,-10.78986237,3.049308929,14.39445543
1090,10.82739508,-6.623426514,-9.210496674,4.853956146,12.33952665
1091,10.83732808,-4.418811035,-8.461903381,5.062322845,10.80540663
1092,10.84726208,-1.589544525,-8.318351898,4.090992737,9.405203436
1093,10.85719508,0.6355783081,-7.882009277,2.559976501,8.311649037
1094,10.86712908,1.134191437,-6.562802582,0.3185375977,6.667700814
1095,10.87706208,0.276026001,-4.922812958,-2.650837555,5.59796548
1096,10.88699608,-0.2136058044,-3.921844482,-4.822371826,6.219466345
1097,10.89692908,0.04460723877,-3.78053833,-5.274431763,6.489536986
1098,10.90686308,0.5528004456,-4.097129974,-5.040318604,6.518962646
1099,10.91679608,1.283880157,-4.443659363,-4.647685089,6.557090321
1100,10.92673008,1.935624847,-4.652774506,-3.808230743,6.316452766
1101,10.93666308,3.001558228,-5.091212769,-2.52390152,6.426498123
1102,10.94659608,3.982767792,-5.538332977,-1.437909851,6.971596387
1103,10.95653008,4.473148041,-5.829477539,-0.8637039185,7.398502972
1104,10.96646308,3.849844208,-6.019881592,-0.7934999084,7.189570009
1105,10.97639708,2.917582855,-6.005661163,-0.9286688232,6.741118713
1106,10.98633008,2.368075562,-5.752836914,-1.1572435,6.327884871
1107,10.99626408,2.169588318,-5.693709869,-1.350192261,6.240870507
1108,11.00619708,1.712738342,-5.816005554,-1.33627121,6.208463093
1109,11.01613108,0.3631448364,-5.968238983,-0.9972262573,6.061865302
1110,11.02606408,-1.403032379,-6.297254791,-0.5489085388,6.474968598
1111,11.03599808,-3.137176208,-6.8332901,-1.366358643,7.642163574
1112,11.045931,-5.063969421,-7.507488098,-3.341201935,9.652450166
1113,11.055865,-6.442602539,-8.166268158,-5.639372864,11.8320577
1114,11.065798,-7.149732056,-9.106163635,-6.989565125,13.52386429
1115,11.075732,-7.414232025,-10.22837997,-8.188871155,15.05483989
1116,11.085665,-5.839207306,-11.59653488,-8.711135101,15.63521148
1117,11.095598,-1.848506012,-12.34991821,-8.57551712,15.14849657
1118,11.105532,2.934497681,-12.85915924,-7.33414856,15.09168606
1119,11.115465,5.10857666,-13.53724915,-6.345304871,15.79928998
1120,11.125399,4.836592255,-12.56517059,-5.427413635,14.51664408
1121,11.135332,4.371060333,-9.952353973,-3.817810822,11.52090263
1122,11.145266,3.73368576,-8.700207825,-2.414179688,9.770480496
1123,11.155199,2.594554596,-9.62633194,-1.745520172,10.12150289
1124,11.165133,1.159937897,-11.11648315,-2.730022888,11.50541953
1125,11.175066,-1.541494446,-13.24370956,-5.174589386,14.30204263
1126,11.185,-5.121749268,-16.66544403,-7.300767975,18.90160187
1127,11.194933,-7.68516861,-21.39336227,-7.388934631,23.90259653
1128,11.204867,-8.281378784,-26.16469025,-4.503385162,27.81101811
1129,11.2148,-5.806126099,-23.51011047,-0.1796264648,24.21711503
1130,11.224733,-1.220561829,-13.51569397,2.639610901,13.82502443
1131,11.234667,0.6650669861,-7.819289703,4.739893341,9.167889312
1132,11.2446,1.234782257,-6.827152863,4.436623993,8.23518888
1133,11.254534,2.034269714,-8.383466492,2.203717346,8.903770765
1134,11.264467,3.275638275,-11.04972198,-0.809815979,11.55343949
1135,11.274401,4.306544495,-11.22500748,-3.340752869,12.47829107
1136,11.284334,4.30594574,-8.890611877,-5.210963745,11.16862979
1137,11.294268,3.640878754,-7.230414276,-5.520070953,9.798268828
1138,11.304201,3.612737274,-6.960675201,-5.27473114,9.451225237
1139,11.314135,3.441792755,-7.642207947,-5.90656723,10.25362454
1140,11.324068,2.958747253,-8.674461365,-6.120622101,11.02100178
1141,11.334002,2.560724945,-9.750573578,-5.602848816,11.53355592
1142,11.343935,1.985920258,-10.9632019,-4.90380249,12.17304211
1143,11.353868,1.382375336,-12.03167999,-3.438200226,12.58942039
1144,11.363802,1.088087311,-12.30620911,-1.718426514,12.47315943
1145,11.373735,1.5726297,-11.40328674,0.6541397095,11.52978801
1146,11.383669,2.510279846,-9.866282959,2.61161911,10.51026159
1147,11.393602,3.224295044,-8.473130035,3.569626923,9.743318095
1148,11.403536,3.217259674,-7.350015564,3.1943573,8.635821163
1149,11.413469,2.748733978,-6.381529541,1.587448883,7.12737341
1150,11.423403,2.37990097,-5.861660614,-0.4466711426,6.342121797
1151,11.433336,1.790127411,-5.368286591,-2.850522308,6.336287122
1152,11.44327,1.600471802,-5.113666077,-4.697531433,7.125860811
1153,11.453203,1.371897125,-5.200186157,-5.299429779,7.550363817
1154,11.463137,0.8271798706,-5.868097229,-5.659281464,8.19428205
1155,11.47307,0.1484912109,-6.542744293,-3.52666626,7.434172949
1156,11.483004,-0.3528163147,-7.078180847,-0.5936654663,7.111790361
1157,11.492937,-0.3125500488,-7.250771942,1.06129303,7.33469319
1158,11.50287,0.05164260864,-7.124434662,1.34794693,7.251013525
1159,11.512804,0.4252656555,-7.000342712,0.3155438232,7.020343074
1160,11.522737,1.032403107,-6.995702362,-0.5414241028,7.092168059
1161,11.532671,1.920356598,-7.195087738,-1.5527211,7.607101934
1162,11.542604,2.939587097,-7.565118256,-3.004552002,8.654450835
1163,11.552538,2.896027679,-8.019872589,-3.814068604,9.340902097
1164,11.562471,2.346670074,-8.252339172,-3.893852692,9.421785979
1165,11.572405,1.660197601,-7.989485779,-3.397035828,8.839003988
1166,11.582338,1.059496765,-7.628436584,-2.469714203,8.087958108
1167,11.592272,0.4273612976,-7.324119415,-1.964664459,7.595081917
1168,11.602205,-0.03861968994,-7.36797821,-2.43962677,7.761467205
1169,11.612139,-0.4034111023,-7.861651611,-3.474275208,8.604585684
1170,11.622072,-0.3592529297,-8.415499878,-4.245321808,9.432521302
1171,11.632005,0.0001496887207,-8.851842499,-5.020410004,10.17642532
1172,11.641939,0.4475692749,-8.992250519,-5.196443939,10.39537961
1173,11.651872,0.7843688965,-9.121282196,-5.12025238,10.48951895
1174,11.661806,0.7119195557,-9.57364151,-5.250481567,10.94207466
1175,11.671739,1.279838562,-10.31400192,-5.304519196,11.66852803
1176,11.681673,2.23605011,-11.05990082,-4.756808167,12.2453481
1177,11.691606,2.105371857,-10.87668182,-4.089346161,11.80921463
1178,11.70154,1.621877289,-10.52191956,-4.151317291,11.42692926
1179,11.711473,1.002465363,-10.34064651,-4.902904358,11.48792315
1180,11.721407,0.2469863892,-10.38166122,-5.628445587,11.81182847
1181,11.73134,-0.6442602539,-10.03453308,-5.643115082,11.53046717
1182,11.741274,-1.23328537,-9.166637878,-5.140011292,10.58149134
1183,11.751207,-1.027613068,-8.784632263,-4.530927887,9.937558057
1184,11.761141,-0.1119671631,-9.353150024,-3.881428528,10.12716344
1185,11.771074,1.240620117,-10.43210632,-3.581302643,11.09926616
1186,11.781007,2.552192688,-11.53531219,-2.907104645,12.1666911
1187,11.790941,4.043990479,-12.72593628,-1.658401337,13.45561623
1188,11.800874,5.928721161,-14.07178757,-0.6262976074,15.28257794
1189,11.810808,7.867040405,-14.93474304,1.154698792,16.91952138
1190,11.820741,9.356892242,-14.20366333,1.538051605,17.07808792
1191,11.830675,10.0807869,-13.49593506,-0.4176315308,16.85042859
1192,11.840608,9.768236847,-13.35447922,-1.919159088,16.65664246
1193,11.850542,8.790919189,-13.1330896,-2.753973083,16.04190358
1194,11.860475,7.547604675,-13.00600388,-2.80232254,15.29625721
1195,11.870409,4.80440918,-13.42348572,-1.573228455,14.34389641
1196,11.880342,2.221230927,-14.17731812,0.03532653809,14.35031232
1197,11.890275,0.5179229736,-13.96341293,0.7447013855,13.9928455
1198,11.900209,-3.313958588,-13.82075958,-0.6975494385,14.22962727
1199,11.910142,-6.423891449,-13.68499191,0.5257067871,15.12685535
1200,11.920076,-8.06073761,-12.65154099,0.7870632935,15.02186569
1201,11.930009,-7.100185089,-11.20464981,1.848056946,13.39298772
1202,11.939943,-5.154381409,-10.04471191,3.40377182,11.79192723
1203,11.949876,-2.381547546,-9.084758148,3.888014832,10.16470652
1204,11.95981,0.1803749084,-8.602311401,3.276835785,9.207059754
1205,11.969743,0.4336482239,-7.74953476,1.569785614,7.918810936
1206,11.979677,0.250279541,-7.049590302,-0.6985972595,7.088540146
1207,11.98961,0.8361611938,-6.575376434,-2.802023163,7.196254206
1208,11.999544,1.174607391,-5.870192871,-3.954177246,7.174565113
1209,12.009477,1.078956299,-4.786147156,-4.628524933,6.744968076
1210,12.019411,1.442550201,-3.931873627,-4.813091125,6.380158892
1211,12.029344,2.01376236,-3.382815399,-4.337230682,5.857495101
1212,12.039277,2.971470795,-3.28911026,-3.505859528,5.651454327
1213,12.04921121,3.907923431,-3.694167938,-2.50519043,5.932513918
1214,12.05914421,3.748804321,-4.427193604,-1.848206635,6.088468182
1215,12.06907821,3.19196228,-5.065466309,-1.705403595,6.225429587
1216,12.07901121,2.883453827,-5.514083405,-1.698218536,6.450067283
1217,12.08894521,2.665207672,-5.906417542,-1.682650909,6.694805015
1218,12.09887821,2.483335876,-6.299649811,-1.669927368,6.9743245
1219,12.10881221,2.134112091,-6.605463867,-1.202000427,7.044955099
1220,12.11874521,1.258133698,-6.909032593,-0.5038522339,7.040703008
1221,12.12867921,-0.3354524231,-7.215744781,0.06316864014,7.223814183
1222,12.13861221,-2.261646881,-7.822732544,-0.04326004028,8.143221875
1223,12.14854621,-3.691174164,-8.488547974,-1.754950562,9.421256014
1224,12.15847921,-5.138813782,-9.088500366,-5.056484985,11.60070198
1225,12.16841221,-7.077731781,-9.759554901,-8.149802399,14.55206096
1226,12.17834621,-7.831713867,-10.55230637,-9.121581573,15.9965672
1227,12.18827921,-6.888076172,-11.6586557,-8.339607697,15.90342424
1228,12.19821321,-4.628375244,-12.68252655,-7.617808685,15.50159173
1229,12.20814621,-0.7785310364,-13.50791016,-5.956114197,14.78326905
1230,12.21808021,2.059866486,-13.71792343,-4.366419983,14.54269908
1231,12.22801321,2.545905762,-12.40904526,-4.123774567,13.32184511
1232,12.23794721,2.680026855,-10.40276733,-3.445235596,11.28139001
1233,12.24788021,2.862497406,-9.12203064,-1.808389435,9.730139091
1234,12.25781421,2.500999146,-9.485175476,-1.506766663,9.924409117
1235,12.26774721,1.742376709,-10.61502594,-3.271297302,11.24348871
1236,12.27768121,-0.7027885437,-12.37087463,-5.79310318,13.67817588
1237,12.28761421,-3.758534088,-15.5192775,-7.398514709,17.59865257
1238,12.29754721,-5.701942749,-19.28275131,-7.825426941,21.57716284
1239,12.30748121,-6.509513397,-22.42247223,-6.05984848,24.12183221
1240,12.31741421,-5.995632019,-20.907323,-2.882705383,21.94023128
1241,12.32734821,-2.574346619,-14.34167633,1.687141571,14.66824417
1242,12.33728121,-0.0549357605,-9.578581238,5.228477325,10.91280036
1243,12.34721521,0.55579422,-8.719218292,5.606141968,10.38087196
1244,12.35714821,1.754651184,-10.14545242,4.154311066,11.10258105
1245,12.36708221,2.934797058,-12.3075563,1.879641266,12.79148261
1246,12.37701521,4.64529007,-12.42850479,-1.868564301,13.39917847
1247,12.38694921,4.926704865,-9.956545258,-4.859794006,12.12529637
1248,12.39688221,4.389322357,-7.694149933,-6.13828537,10.77704232
1249,12.40681621,3.951782227,-6.653663635,-6.096522217,9.851670197
1250,12.41674921,3.786226501,-6.547085266,-4.973707123,9.051938972
1251,12.42668221,3.692072296,-7.061116333,-4.517306213,9.159520573
1252,12.43661621,3.895948334,-8.191116486,-4.903503113,10.31102058
1253,12.44654921,4.302502899,-10.03273682,-4.698130188,11.88443379
1254,12.45648321,3.6389328,-11.46765289,-4.166884918,12.73231419
1255,12.46641621,1.848955078,-11.98063614,-3.173550568,12.5309896
1256,12.47635021,0.6735992432,-11.85998703,-1.264570312,11.94621975
1257,12.48628321,0.6593788147,-10.65918411,1.850002899,10.8386114
1258,12.49621721,1.292262726,-9.120533752,4.180656281,10.11592635
1259,12.50615021,1.908531189,-7.19374054,3.433410187,8.196383334
1260,12.51608421,2.111209717,-5.471721497,0.9822573853,5.946576509
1261,12.52601721,2.653681641,-4.778213654,-1.56319931,5.684799385
1262,12.53595121,2.933150482,-4.8359935,-3.832480316,6.832138044
1263,12.54588421,2.544109497,-5.316943359,-5.302722931,7.928508706
1264,12.55581721,1.434317322,-6.102958832,-5.357209625,8.246397253
1265,12.56575121,0.38963974,-7.048093414,-3.93381958,8.080988578
1266,12.57568421,-0.6876699829,-8.067323914,-1.415456543,8.219374815
1267,12.58561821,-1.421593781,-8.301137695,0.01676513672,8.422000771
1268,12.59555121,-1.564995575,-7.748936005,-0.2880010986,7.910636194
1269,12.60548521,-1.437460785,-6.99480423,-1.254391479,7.250315697
1270,12.61541821,-1.021625519,-6.678961029,-1.80779068,6.994308134
1271,12.62535221,-0.009729766846,-6.681356049,-2.418820038,7.105723305
1272,12.63528521,1.271605682,-6.608008575,-3.373983765,7.527717103
1273,12.64521921,2.580932922,-6.527775421,-3.845802612,8.00395305
1274,12.65515221,3.532354431,-6.669231262,-3.634591827,8.376540527
1275,12.66508621,3.908222809,-6.781048737,-3.155887299,8.43898407
1276,12.67501921,3.583248596,-6.867868195,-2.766546936,8.225634686
1277,12.68495221,2.750380554,-7.186405792,-2.533631287,8.1011301
1278,12.69488621,1.847757568,-7.478747864,-2.199825439,8.011560997
1279,12.70481921,1.363364868,-8.073461151,-1.549577637,8.333110438
1280,12.71475321,0.7430548096,-8.349636841,-2.042352905,8.627848585
1281,12.72468621,-0.2332150269,-8.652008057,-3.201242981,9.228195343
1282,12.73462021,-1.207987976,-9.094338226,-3.643872528,9.871374257
1283,12.74455321,-1.847009125,-8.671916656,-3.294648743,9.458767972
1284,12.75448721,-2.157912598,-8.600964203,-2.852917328,9.315165553
1285,12.76442021,-0.4472698975,-9.84742218,-2.74858429,10.23359612
1286,12.77435421,0.8894503784,-10.83731369,-3.660937042,11.47348901
1287,12.78428721,1.980232086,-12.15607132,-5.407055969,13.45093466
1288,12.79422121,3.354524231,-12.13122299,-6.35593277,14.10025835
1289,12.80415421,3.937561798,-11.07097778,-6.033802643,13.20900134
1290,12.81408821,3.491938477,-9.930200043,-5.273234253,11.77325387
1291,12.82402121,2.593357086,-9.173224182,-4.753664703,10.6522707
1292,12.83395421,1.236279144,-9.453890533,-4.123175812,10.38773369
1293,12.84388821,-0.04834945679,-9.385931854,-3.86241806,10.14969594
1294,12.85382121,-0.2606080627,-8.878936157,-4.420457611,9.921888396
1295,12.86375521,0.3019221497,-9.633217621,-4.673581238,10.71132113
1296,12.87368821,0.9647438049,-11.12726074,-3.681743774,11.7601828
1297,12.88362221,2.070045319,-12.140354,-2.927612,12.65875961
1298,12.89355521,2.352807312,-12.05712708,-2.551743622,12.54676895
1299,12.90348921,2.726430359,-11.6520694,-1.808389435,12.10266153
1300,12.91342221,4.390070801,-12.13960556,-0.2103126526,12.91073105
1301,12.92335621,6.486611023,-12.45050903,1.104253693,14.08228227
1302,12.93328921,8.364006958,-12.16116074,0.6012995911,14.77200068
1303,12.94322221,10.66502197,-13.56494156,-0.3249742126,17.25850345
1304,12.95315621,12.52041367,-15.70040085,-2.325114899,20.21557579
1305,12.96308921,11.60416901,-16.4415097,-2.957250366,20.34023868
1306,12.97302321,7.762857056,-15.60310318,-2.848726044,17.65882268
1307,12.98295621,4.324806519,-15.58349396,-2.334245911,16.34007158
1308,12.99289021,1.090632019,-15.71013062,-2.253264313,15.90832745
1309,13.00282321,-3.658242645,-15.17768784,-3.079096985,15.91306965
1310,13.01275721,-9.889484711,-15.03009476,-1.369651794,18.04387991
1311,13.02269021,-12.47415985,-14.06639877,2.627186737,18.98342299
1312,13.03262421,-11.46301254,-11.70880142,5.576802979,17.30888265
1313,13.04255721,-10.01926483,-8.80603775,7.965086517,15.53623416
1314,13.05249121,-7.395071869,-7.316784668,8.701105957,13.56214108
1315,13.06242421,-2.581531677,-7.684869232,6.608757019,10.45931117
1316,13.07235721,0.9816586304,-7.364685059,3.011886749,8.017088092
1317,13.08229121,1.776056671,-5.983956299,-1.012793884,6.323595634
1318,13.09222421,1.924398193,-4.273014221,-4.37375473,6.410279977
1319,13.10215821,2.563119965,-3.17325119,-5.989494781,7.246596084
1320,13.11209121,2.669398956,-2.683469696,-6.901847534,7.871607192
1321,13.12202521,2.717898102,-2.841990051,-7.109914856,8.124947188
1322,13.13195821,2.985840912,-3.657045135,-5.984405365,7.622488612
1323,13.14189221,3.149450684,-4.497098236,-4.297413483,6.972137032
1324,13.15182521,3.433260498,-5.218747559,-2.432441711,6.703683794
1325,13.16175921,3.567082214,-5.594466248,-1.070424042,6.720709468
1326,13.17169221,3.257975006,-5.77199707,-0.6914122009,6.663962946
1327,13.18162621,2.733615417,-6.281537476,-0.688717804,6.885107009
1328,13.19155921,2.114502869,-6.793772278,-0.7264393616,7.152214922
1329,13.20149221,2.246977386,-7.03926178,-1.111438751,7.472309541
1330,13.21142621,2.054777069,-7.251520386,-1.851799164,7.761173677
1331,13.22135921,1.331331482,-7.495513,-2.356250153,7.96913254
1332,13.23129321,0.2543211365,-7.91913208,-1.745969238,8.113306399
1333,13.24122621,-1.258582764,-8.399932251,-1.455273743,8.61746564
1334,13.25116021,-3.314257965,-8.759484558,-2.295626221,9.642757662
1335,13.26109321,-4.941374359,-9.256002045,-3.599265289,11.09258604
1336,13.27102721,-6.597829742,-10.00264938,-6.088888092,13.44094157
1337,13.28096021,-7.96822998,-11.00331848,-8.395291901,15.97017948
1338,13.29089421,-7.819140015,-12.05263641,-8.550818481,16.71889625
1339,13.30082721,-6.42493927,-12.42161911,-7.998018036,16.11039287
1340,13.31076121,-2.933898926,-12.69734573,-7.231611786,14.90391092
1341,13.32069421,1.800455933,-12.53104156,-6.308930511,14.14465441
1342,13.33062721,4.231101379,-11.35703293,-5.206173706,13.19047613
1343,13.34056121,4.607269135,-9.526489563,-3.670966187,11.20075556
1344,13.35049421,3.872147827,-7.195686493,-1.805096283,8.368381295
1345,13.36042821,2.353106689,-7.231911163,-1.617686005,7.775252933
1346,13.37036121,-0.0513432312,-9.667496338,-3.699407043,10.35126727
1347,13.38029521,-1.812730408,-12.48269211,-6.50801651,14.19358562
1348,13.39022821,-4.675826569,-16.27745087,-8.037984924,18.74641199
1349,13.40016221,-7.338639221,-20.5369931,-7.323670349,23.00564841
1350,13.41009521,-7.875422974,-23.51534958,-4.684807892,25.23769755
1351,13.42002921,-6.468648376,-21.88613754,-1.570983124,22.87606645
1352,13.42996221,-1.853894806,-13.26436661,1.666634216,13.49659279
1353,13.43989621,1.421743469,-7.116800537,3.673510895,8.134180147
1354,13.44982921,2.244133301,-6.141129456,3.312611389,7.329597498
1355,13.45976221,2.900368652,-9.222771149,1.216370544,9.744290804
1356,13.46969621,3.124302979,-12.67055145,-0.2692900085,13.05284108
1357,13.47962921,3.291954346,-12.56981094,-2.857857056,13.30430222
1358,13.48956321,2.761756897,-10.07973907,-4.299958191,11.30124247
1359,13.49949621,2.564167786,-8.369994507,-4.7563591,9.962666128
1360,13.50943021,2.601739655,-7.992629242,-4.771178284,9.665159784
1361,13.51936321,2.643951874,-8.326135712,-4.36911438,9.767506225
1362,13.52929721,2.612666931,-8.798852692,-3.859573975,9.957015037
1363,13.53923021,2.358794861,-9.180259552,-4.079167328,10.31894785
1364,13.54916421,2.374661865,-9.487720184,-3.938609619,10.54364733
1365,13.55909721,2.390977936,-9.967622223,-3.665128326,10.88592825
1366,13.56903121,2.680775299,-10.50365753,-2.719993744,11.17639225
1367,13.57896421,3.314557343,-10.66127975,-0.9647438049,11.20624411
1368,13.58889721,3.91391098,-10.46309189,0.8512797546,11.20355605
1369,13.59883121,4.452940063,-9.919123077,1.926044769,11.04207074
1370,13.60876421,4.513414307,-8.854387207,2.208208008,10.18073004
1371,13.61869821,3.716471558,-7.617958374,0.5478607178,8.493856721
1372,13.62863121,2.894680481,-6.853049011,-2.246228943,7.771035986
1373,13.63856521,1.843566284,-6.390510864,-4.160148926,7.845011462
1374,13.64849821,0.9369017029,-6.205046539,-5.620362396,8.4243018
1375,13.65843221,0.1321751404,-5.954018555,-5.920787659,8.397829107
1376,13.66836521,-0.7286846924,-6.085744629,-4.158652039,7.406865454
1377,13.67829921,-1.121617584,-6.497837677,-1.064586182,6.679316149
1378,13.68823221,-0.8563691711,-6.823260956,1.491498413,7.036677181
1379,13.69816621,-0.0940045166,-6.976242828,2.085612946,7.281935334
1380,13.70809921,0.2866539001,-6.708300018,0.6923103333,6.750018755
1381,13.71803221,0.9487271118,-6.75260788,-0.7445516968,6.859457233
1382,13.72796621,2.238145752,-6.87774765,-2.077829132,7.52529621
1383,13.73789921,3.423231354,-7.005881195,-3.016377411,8.360587115
1384,13.74783321,3.988156586,-7.019802246,-3.217409363,8.691072404
1385,13.75776621,3.7477565,-7.012916565,-2.956202545,8.48326653
1386,13.76770021,2.55309082,-6.959328003,-2.258353729,7.749237418
1387,13.77763321,1.626966705,-6.592890015,-1.685345306,6.996685516
1388,13.78756721,1.112935638,-6.158493347,-1.605561218,6.460920435
1389,13.79750021,0.4144880676,-6.443201294,-1.97858551,6.752884117
1390,13.80743421,-0.3312611389,-7.591912537,-2.777623901,8.090863022
1391,13.81736721,-0.5894741821,-8.762927399,-4.086951141,9.687081399
1392,13.82730021,-0.9434880066,-9.396859131,-4.867428131,10.62464059
1393,13.83723421,-1.128652954,-10.37253021,-4.520150299,11.37079589
1394,13.84716721,0.2781216431,-10.79914307,-3.342698822,11.30807137
1395,13.85710121,1.745669861,-9.881700897,-2.862198029,10.43491991
1396,13.86703421,2.127076721,-9.562414856,-3.470832367,10.39282977
1397,13.87696821,1.535656586,-10.47776138,-4.329596558,11.44059138
1398,13.88690121,1.560804291,-11.72841064,-4.746928711,12.74853162
1399,13.89683521,1.801204376,-11.56524994,-5.194348297,12.80549092
1400,13.90676821,1.807640991,-10.40665924,-5.47366745,11.89651873
1401,13.91670221,1.67561554,-9.858798523,-5.757177887,11.53900745
1402,13.92663521,1.145418091,-9.827812958,-5.813460846,11.47581009
1403,13.93656921,0.4945715332,-9.839937744,-5.976322174,11.52325486
1404,13.94650221,0.2375559998,-9.299112396,-5.770799561,10.94678271
1405,13.95643521,-0.04326004028,-8.975186005,-5.335504761,10.44142932
1406,13.96636921,-0.2598596191,-9.437424774,-4.517605591,10.46619671
1407,13.97630221,0.247585144,-10.76216995,-3.073558502,11.19519372
1408,13.98623621,1.34914444,-12.8106601,-1.528471527,12.97187064
1409,13.99616921,2.751578064,-13.69382355,-0.8367599487,13.9925749
1410,14.00610321,3.832779694,-12.71725433,-0.9997709656,13.31984609
1411,14.01603621,4.986580353,-11.56989029,-1.276994476,12.66329577
1412,14.02597021,6.227948914,-10.91320587,-1.257684631,12.62803154
1413,14.03590321,7.767497406,-10.43869263,-1.170865173,13.06412052
1414,14.045837,9.102571106,-10.58149567,-1.302441559,14.01860212
1415,14.05577,9.942773895,-11.61195282,-1.436562653,15.35447535
1416,14.065704,11.10061615,-13.24071579,-2.239043884,17.42278827
1417,14.075637,11.26542343,-14.3726619,-2.65263382,18.45317429
1418,14.08557,8.365054779,-14.79583191,-1.028960266,17.02790482
1419,14.095504,4.430935822,-14.88235199,0.340841217,15.53170196
1420,14.105437,1.811981964,-15.10928009,-0.1990859985,15.21884551
1421,14.115371,-2.931503906,-15.99319199,-3.32533493,16.59619708
1422,14.125304,-8.258177032,-15.78781906,-1.43222168,17.87467419
1423,14.135238,-11.06379272,-13.86177429,3.299139404,18.03997275
1424,14.145171,-11.3188623,-10.74345886,5.207670593,16.45169855
1425,14.155105,-9.301357727,-7.73890686,6.938371582,13.94800829
1426,14.165038,-4.503983917,-7.125033417,7.507637787,11.28789606
1427,14.174972,0.2670446777,-7.678282928,4.694238281,9.003511239
1428,14.184905,1.739682312,-7.289092255,0.6896159363,7.525485405
1429,14.194839,1.942510529,-6.794520721,-2.749332733,7.58272309
1430,14.204772,2.531984711,-6.025270386,-5.054389343,8.262062783
1431,14.214705,3.195105743,-5.194198608,-6.043083344,8.585293017
1432,14.224639,3.242557068,-4.349355469,-5.871091003,7.993796276
1433,14.234572,3.135080566,-3.863765259,-5.026996307,7.073054786
1434,14.244506,3.115770721,-4.02393219,-3.775299225,6.336634887
1435,14.254439,3.233276367,-4.50832489,-2.629282379,6.139396975
1436,14.264373,3.433859253,-5.0629216,-1.863774261,6.395171538
1437,14.274306,3.299438782,-5.486091614,-1.324445801,6.537404236
1438,14.28424,2.526895294,-5.951623535,-0.9424401855,6.534157638
1439,14.294173,1.362317047,-6.415808258,-1.441352692,6.715355607
1440,14.304107,1.15604599,-7.115453339,-1.372196503,7.338190634
1441,14.31404,1.06713089,-7.59849884,-1.728755035,7.865401893
1442,14.323974,0.869841156,-7.773484955,-2.251168671,8.139499516
1443,14.333907,0.3882925415,-7.767497406,-2.538421326,8.180976096
1444,14.34384,-0.4076023865,-7.593708801,-2.856509857,8.123435334
1445,14.353774,-1.450334015,-7.523504791,-2.939886475,8.206675672
1446,14.363707,-2.644850006,-7.74130188,-2.396965485,8.524577989
1447,14.373641,-4.090992737,-8.49363739,-4.218677216,10.32837524
1448,14.383574,-5.735473022,-9.5923526,-7.650141449,13.543764
1449,14.393508,-6.962621155,-10.93341385,-9.106463013,15.84125312
1450,14.403441,-7.191046143,-11.98812057,-8.150700531,16.18209191
1451,14.413375,-7.009623413,-12.05293579,-6.88478302,15.5501871
1452,14.423308,-5.482948151,-12.32896179,-6.359974365,14.91694651
1453,14.433242,-3.437451782,-12.82727554,-6.389463043,14.73703873
1454,14.443175,-0.5358856201,-12.07089844,-6.119274902,13.54397607
1455,14.453109,2.67598526,-9.917326813,-4.346960449,11.15393802
1456,14.463042,4.461322632,-7.449857941,-2.597698059,9.063764018
1457,14.472975,5.649252319,-7.942034454,-0.942739563,9.791768018
1458,14.482909,5.344785461,-10.4987178,-0.8409512329,11.81088507
1459,14.492842,3.95956604,-12.5570874,-3.075055389,13.52089394
1460,14.502776,2.190844116,-14.88654327,-4.544848938,15.71828936
1461,14.512709,0.3209326172,-17.50714371,-4.136348419,17.99201092
1462,14.522643,-1.873953094,-19.73735596,-3.224444733,20.08661157
1463,14.532576,-2.442171478,-21.01644608,-1.361568604,21.20162909
1464,14.54251,-1.695823517,-17.76161453,0.3513194275,17.84584527
1465,14.552443,-2.806064758,-11.53501282,0.8526269531,11.90199533
1466,14.562377,-3.720513153,-8.645571442,1.198407898,9.488113889
1467,14.57231,-2.381697235,-8.604556732,0.3918850708,8.936691344
1468,14.582244,0.21061203,-9.619745636,-1.630559235,9.759230858
1469,14.592177,2.242037659,-9.2366922,-3.432212677,10.10560733
1470,14.602111,3.99579071,-7.971373444,-4.689148865,10.07458461
1471,14.612044,4.936284943,-7.319928131,-5.446124725,10.37345321
1472,14.621977,5.160668335,-7.223528595,-5.753435669,10.57893591
1473,14.631911,4.680616608,-7.548053741,-5.048701172,10.21619649
1474,14.641844,3.773952026,-8.419691162,-5.218448181,10.60028842
1475,14.651778,3.329975281,-9.541458435,-4.567302246,11.09001417
1476,14.661711,2.593357086,-10.61397812,-3.571273499,11.49504358
1477,14.671645,1.576820984,-11.33113678,-2.420765991,11.69363644
1478,14.681578,0.396076355,-11.66164948,-1.522933044,11.76733912
1479,14.691512,-0.5766009521,-11.46825165,0.0390687561,11.48280414
1480,14.701445,-0.9934840393,-10.43884232,1.707050171,10.624051
1481,14.711379,-0.3171903992,-8.919801178,2.099833374,9.169120078
1482,14.721312,0.628692627,-7.152276764,1.268013153,7.290965278
1483,14.731246,1.477727051,-5.814808044,0.337098999,6.009101893
1484,14.741179,2.204016724,-5.364244995,-0.4370910645,5.815828633
1485,14.751112,2.667153625,-5.726042633,-1.601369934,6.51656799
1486,14.761046,2.908900909,-6.36641098,-2.767594757,7.526783776
1487,14.770979,2.682721252,-6.968309326,-3.91391098,8.430482035
1488,14.780913,2.890788574,-7.047344971,-4.154311066,8.676406523
1489,14.790846,2.206262054,-7.079528046,-3.463946686,8.184511973
1490,14.80078,1.352437592,-7.027136993,-2.282453613,7.511280601
1491,14.810713,0.7725434875,-7.056625671,-0.808768158,7.144710998
1492,14.820647,0.6622229004,-7.019502869,0.093256073,7.05128757
1493,14.83058,0.7473957825,-6.910828857,0.2622546387,6.956071697
1494,14.840514,0.7390132141,-6.894363098,-0.4029620361,6.945556958
1495,14.850447,0.8095166016,-7.080725555,-1.1771521,7.223411838
1496,14.86038,1.152303772,-7.475903778,-1.580114136,7.727464135
1497,14.870314,1.649420013,-7.936795349,-1.760638733,8.295369524
1498,14.880247,2.192490692,-8.409811707,-2.189047852,8.962359001
1499,14.890181,2.674039307,-8.754095764,-2.620750122,9.521187429
1500,14.900114,2.52509903,-9.037007446,-2.76026001,9.780729217
1501,14.910048,2.253713379,-8.936416626,-2.792293396,9.62993606
1502,14.919981,1.858385468,-8.992250519,-2.495310974,9.515289948
1503,14.929915,1.247805176,-9.092392273,-2.363135834,9.47697346
1504,14.939848,0.3902384949,-8.85289032,-2.861449585,9.312026999
1505,14.949782,-0.4833448792,-8.973090363,-3.522774353,9.651938255
1506,14.959715,-0.8958869934,-9.136999512,-4.227658539,10.10744628
1507,14.969649,-0.4436773682,-9.203760681,-4.291425934,10.16476251
1508,14.979582,0.189206543,-9.055568848,-4.106111298,9.944811525
1509,14.989515,0.3516188049,-8.976682892,-4.926555176,10.24575119
1510,14.999449,0.8375083923,-9.730814667,-6.035000153,11.48091465
1511,15.009382,1.874102783,-10.63373703,-6.875352631,12.800746
1512,15.019316,2.608775024,-11.20659576,-7.119944,13.53096812
1513,15.029249,2.127974854,-10.68268524,-6.574627991,12.72296248
1514,15.039183,0.9397457886,-10.12045441,-6.02362381,11.81485351
1515,15.04911662,-0.3186872864,-10.12419662,-5.662275238,11.60440777
1516,15.05905062,-1.445693665,-9.613159332,-5.400769043,11.12075397
1517,15.06898363,-1.726659393,-8.810378723,-4.94242218,10.24849564
1518,15.07891763,-1.45796814,-8.446036377,-4.563560028,9.710163835
1519,15.08885062,-0.9087602234,-8.955576782,-3.899690552,9.809984049
1520,15.09878463,0.2342628479,-10.20862106,-3.252735901,10.7168612
1521,15.10871763,1.329086151,-11.80624878,-2.827170868,12.21257038
1522,15.11865163,2.258952484,-13.09222458,-2.867586823,13.59162481
1523,15.12858462,4.077969818,-13.50162323,-2.260000305,14.28395145
1524,15.13851763,6.19441864,-13.32005081,-0.4131408691,14.69575657
1525,15.14845163,7.771389313,-12.18526062,0.9038204956,14.48074445
1526,15.15838462,8.912017365,-11.45867157,-0.4712200928,14.52402341
1527,15.16831862,9.782606964,-11.30389343,-1.88622757,15.06768928
1528,15.17825163,10.55829391,-12.12463669,-2.604134674,16.28698568
1529,15.18818563,10.74495575,-12.58852203,-3.319646759,16.88031444
1530,15.19811862,9.294472046,-12.70004013,-2.442321167,15.92617853
1531,15.20805263,6.055058441,-13.95802414,-1.47084137,15.28573011
1532,15.21798563,3.185675354,-15.26091476,-0.9386979675,15.6181049
1533,15.22791963,0.1469943237,-15.26271103,-1.458866272,15.33297903
1534,15.23785262,-4.692442017,-15.03144196,-2.979254608,16.02620408
1535,15.24778663,-8.511450348,-14.30784668,-0.07200027466,16.6482566
1536,15.25771963,-9.618248749,-12.42221786,2.289638672,15.87654405
1537,15.26765262,-9.863588562,-10.16730698,4.061803436,14.73644318
1538,15.27758662,-8.727301483,-7.875422974,6.652765503,13.50730791
1539,15.28751963,-5.729186096,-7.144642639,7.272177429,11.694189
1540,15.29745363,-0.7762857056,-7.621850281,5.223986664,9.272823619
1541,15.30738662,1.560205536,-7.415279846,1.99026123,7.834650999
1542,15.31732063,2.478545837,-6.681505737,-1.203197937,7.227267372
1543,15.32725363,2.52270401,-5.729784851,-4.16898056,7.521626744
1544,15.33718763,2.511477356,-4.503385162,-6.511609039,8.305964647
1545,15.34712062,3.268453217,-3.612587585,-6.824608154,8.385037385
1546,15.35705463,3.34524353,-3.419489136,-5.356311493,7.181478471
1547,15.36698763,3.268752594,-3.956272888,-3.952979736,6.477876773
1548,15.37692162,3.132984924,-4.792134705,-2.513722687,6.252915425
1549,15.38685462,2.972219238,-5.595813446,-1.472487946,6.505031597
1550,15.39678863,2.628833313,-6.345454559,-0.8144563293,6.91656687
1551,15.40672163,2.031874695,-6.88942337,-0.4758604431,7.19854932
1552,15.41665462,1.350042572,-7.187902679,-0.7854167175,7.355639965
1553,15.42658863,0.8710386658,-7.240144043,-1.426832886,7.430628924
1554,15.43652163,0.6655160522,-7.194638672,-1.796713715,7.445395719
1555,15.44645563,0.2866539001,-7.171287231,-2.186054077,7.502557127
1556,15.45638862,-0.3760180664,-7.065756683,-2.396666107,7.470630196
1557,15.46632263,-1.463207245,-7.175029449,-2.740052032,7.818561772
1558,15.47625563,-3.230282593,-7.574997711,-3.726650391,9.038984406
1559,15.48618962,-4.931345215,-8.35322937,-5.449417877,11.12612968
1560,15.49612262,-6.139632568,-9.439520416,-7.514373779,13.53755691
1561,15.50605663,-7.763006744,-10.62685135,-9.478140106,16.21818064
1562,15.51598963,-7.980654144,-11.84561691,-8.956325226,16.85898105
1563,15.52592362,-7.572153625,-12.79434402,-7.482639771,16.64399734
1564,15.53585662,-5.710624695,-13.56104965,-7.190597076,16.37736207
1565,15.54578963,-1.562600555,-13.14566345,-6.260131989,14.64375091
1566,15.55572363,3.335364075,-11.55806488,-3.88816452,12.64244204
1567,15.56565662,5.318440247,-9.935588837,-2.079625397,11.45978071
1568,15.57559063,5.850583649,-9.119485931,-0.6439608765,10.85398721
1569,15.58552363,5.95461731,-9.810598755,-0.5915698242,11.49153036
1570,15.59545762,4.522245941,-11.72077652,-2.996319122,12.91531025
1571,15.60539062,0.9969268799,-14.40888657,-6.237828369,15.73278037
1572,15.61532463,-1.749711456,-17.91564423,-6.863976288,19.26514907
1573,15.62525763,-3.937262421,-20.78412918,-6.139632568,22.02673714
1574,15.63519162,-4.473896484,-21.46641037,-3.537593536,22.21119294
1575,15.64512462,-3.071911926,-17.57405457,-0.3576063538,17.8441004
1576,15.65505863,-2.490071869,-10.25203079,2.453547821,10.831643
1577,15.66499163,-2.248025208,-6.978787537,3.910019073,8.309352681
1578,15.67492462,-0.8178991699,-6.964716797,2.124082947,7.327207345
1579,15.68485863,1.154100037,-8.00804718,-0.9541159058,8.146846242
1580,15.69479163,3.32772995,-9.491013336,-3.068768463,10.51524896
1581,15.70472562,4.808301086,-10.79255676,-5.016817474,12.83617928
1582,15.71465862,5.312602386,-10.55155792,-5.743855591,13.13586677
1583,15.72459263,5.214556274,-10.11940659,-5.303770752,12.55882045
1584,15.73452563,4.986280975,-10.09919861,-4.646337891,12.18381165
1585,15.74445962,4.589156799,-10.16311569,-4.198618927,11.91543879
1586,15.75439262,3.881727905,-10.35292099,-3.684438171,11.6544356
1587,15.76432663,2.394121399,-10.89703949,-2.663710785,11.47051185
1588,15.77425963,0.5590873718,-11.47064667,-0.7679031372,11.50990829
1589,15.78419362,-0.4918771362,-11.39759857,1.878443756,11.56182283
1590,15.79412663,0.3793112183,-10.3434906,2.86204834,10.73885448
1591,15.80405963,1.810784454,-8.961115265,2.717898102,9.537688254
1592,15.81399362,2.58826767,-7.904163208,2.132465515,8.586171133
1593,15.82392662,2.990032196,-6.783144379,1.006057892,7.480875128
1594,15.83386063,3.115321655,-5.935157776,-0.6746470642,6.73694853
1595,15.84379363,3.394940186,-5.401367798,-2.717898102,6.934505249
1596,15.85372762,3.367098083,-5.348228302,-4.772076416,7.919192433
1597,15.86366062,3.104843445,-5.771098938,-5.888604584,8.810295098
1598,15.87359463,2.84453476,-6.410120087,-6.126909027,9.312359086
1599,15.88352763,2.254461823,-6.831643524,-4.802912292,8.649966349
1600,15.89346162,1.101259918,-6.988666992,-2.864443359,7.632776395
1601,15.90339463,0.5436694336,-6.767876129,-0.785716095,6.83498892
1602,15.91332863,0.429307251,-6.581064606,1.186133423,6.700867747
1603,15.92326162,0.2628533936,-6.506819,1.519490204,6.687049864
1604,15.93319462,0.1236428833,-6.518345032,0.690813446,6.556015004
1605,15.94312863,0.2749781799,-6.632856903,-0.5219645691,6.659042777
1606,15.95306163,0.973276062,-6.995253296,-1.800306244,7.288479782
1607,15.96299562,1.955683136,-7.319179688,-2.851121063,8.094688329
1608,15.97292862,2.469564514,-7.515571289,-3.395239563,8.608728848
1609,15.98286263,2.022294617,-7.659272461,-3.406765594,8.623235006
1610,15.99279563,1.193318481,-7.59969635,-2.865640869,8.20921989
1611,16.00272962,0.8319699097,-7.397466888,-2.242486725,7.774537736
1612,16.01266263,0.7312294006,-7.536378021,-2.031126251,7.839461969
1613,16.02259663,0.4939727783,-7.943381653,-2.653082886,8.389289004
1614,16.03252962,-0.2368075562,-8.816066895,-3.649860077,9.544663005
1615,16.04246362,-0.9134005737,-9.848020935,-4.626279602,10.91880396
1616,16.05239583,-0.8628057861,-10.41144928,-4.906347198,11.54187822
1617,16.06232883,-0.09774673462,-10.16940262,-5.074597321,11.36564305
1618,16.07226283,0.6509962463,-9.693242798,-5.178032227,11.00884961
1619,16.08219583,0.9134005737,-9.833800507,-5.361400909,11.23755101
1620,16.09212983,1.274449768,-10.70109695,-5.242847443,11.98437097
1621,16.10206283,1.72231842,-11.24835892,-4.738097076,12.32645622
1622,16.11199683,1.635049896,-11.07397156,-4.762945404,12.16519146
1623,16.12192983,0.8653504944,-10.40710831,-5.116360474,11.62901025
1624,16.13186383,-0.206869812,-9.818831635,-5.680088196,11.34529205
1625,16.14179683,-1.084045715,-9.655820618,-6.15579895,11.5023427
1626,16.15173083,-1.630708923,-9.170679474,-6.032006378,11.09710208
1627,16.16166383,-1.673968964,-8.471782837,-5.372028809,10.17015094
1628,16.17159783,-1.286125488,-8.421188049,-4.231101379,9.511716239
1629,16.18153083,-0.6872209167,-9.00961441,-2.71340744,9.434405352
1630,16.19146383,0.6550378418,-10.01462448,-1.532513123,10.15235808
1631,16.20139783,2.372117157,-11.09313171,-1.463356934,11.43791609
1632,16.21133083,3.299289093,-12.59495865,-0.9819580078,13.05689601
1633,16.22126483,4.558769989,-13.38247101,-0.1579216003,14.13852373
1634,16.23119783,6.510561218,-13.08339294,0.2080673218,14.61526156
1635,16.24113183,9.019194489,-12.68028122,-0.7458988953,15.57856753
1636,16.25106483,11.75131302,-13.22425003,-2.092199249,17.81436062
1637,16.26099883,13.39564362,-14.16549271,-2.559826813,19.6636
1638,16.27093183,12.95885193,-14.11429916,-2.612217865,19.33827723
1639,16.28086583,10.18362305,-13.2378717,-2.573448486,16.89881838
1640,16.29079883,6.405928802,-13.77570328,-1.618883514,15.27830843
1641,16.30073283,3.374283142,-15.38620422,-1.20050354,15.79754018
1642,16.31066583,0.05748046875,-16.49449951,-2.492466888,16.68185269
1643,16.32059883,-4.879552917,-17.30880615,-3.797752533,18.38009063
1644,16.33053283,-9.544152832,-16.82471283,0.63887146,19.35381027
1645,16.34046583,-12.10068649,-14.75960724,3.824247437,19.46528931
1646,16.35039983,-11.38607254,-11.57587784,5.656138,17.19405399
1647,16.36033283,-9.900262299,-8.186476135,6.861880646,14.56430538
1648,16.37026683,-4.8559021,-7.271428986,7.264992371,11.36809478
1649,16.38019983,0.09460327148,-7.637866974,5.562432861,9.449159805
1650,16.39013383,1.334325256,-7.257507935,2.387684784,7.75582903
1651,16.40006683,2.118245087,-6.589596863,-1.478924561,7.077921087
1652,16.41000083,2.123783569,-5.021158447,-5.152285767,7.501235726
1653,16.41993383,3.070714417,-3.88232666,-6.254743195,7.976437786
1654,16.42986783,3.341651001,-3.14989975,-5.766608276,7.371721024
1655,16.43980083,3.244053955,-3.065026245,-4.545896759,6.370514052
1656,16.44973383,3.087329865,-3.732338562,-3.813918915,6.165057528
1657,16.45966783,3.118465118,-4.50832489,-3.074157257,6.284923297
1658,16.46960083,3.47517334,-5.282514954,-2.156565399,6.680761057
1659,16.47953483,3.400927734,-5.728287964,-1.727557526,6.882154274
1660,16.48946783,2.833008728,-5.990991669,-1.455273743,6.784964355
1661,16.49940183,2.093546448,-6.216572571,-1.568737793,6.744601509
1662,16.50933483,1.557810516,-6.363117828,-1.736538849,6.777286277
1663,16.51926883,1.400337982,-6.262077942,-1.300046539,6.547112922
1664,16.52920183,0.9690847778,-6.207890625,-1.529519348,6.466564834
1665,16.53913583,-0.2544708252,-6.239774323,-2.104773102,6.590114476
1666,16.54906883,-1.969753876,-6.366860046,-2.638712769,7.167959421
1667,16.55900183,-3.280278625,-6.633755035,-3.784130859,8.311833738
1668,16.56893583,-4.432133331,-7.181915131,-5.024451599,9.821854442
1669,16.57886883,-5.582341461,-8.548722839,-6.115682373,11.9014608
1670,16.58880283,-6.607559509,-10.38585251,-7.493117981,14.4108498
1671,16.59873583,-7.249424744,-11.70925049,-7.912246399,15.8828319
1672,16.60866983,-7.366930389,-12.81664764,-7.613168335,16.62824261
1673,16.61860283,-6.704258423,-14.30470322,-8.188422089,17.79387174
1674,16.62853683,-4.998854828,-14.7588588,-8.4351091,17.719016
1675,16.63846983,-2.216590576,-13.50940704,-6.861581268,15.31334875
1676,16.64840383,0.5824388123,-10.98266144,-4.004921722,11.70459248
1677,16.65833683,3.593427429,-9.757010193,-1.405876465,10.49230467
1678,16.66827083,7.06620575,-11.54384445,0.7303312683,13.55451925
1679,16.67820383,8.469537506,-14.18330566,0.9945318604,16.54957156
1680,16.68813683,6.620133362,-16.25664413,-1.748813324,17.63981271
1681,16.69807083,3.052003326,-18.30902618,-4.585414581,19.11965457
1682,16.70800383,-0.5867797852,-18.21951233,-5.291196899,18.9813515
1683,16.71793783,-2.507735138,-15.80727859,-6.215075684,17.1693319
1684,16.72787083,-2.501747589,-13.22963882,-4.845723267,14.30954641
1685,16.73780483,-3.788471832,-9.153465271,-2.640509033,10.25235257
1686,16.74773783,-3.03284317,-8.356223145,-0.403560791,8.898733856
1687,16.75767183,0.8593629456,-9.285191345,0.818946991,9.360766911
1688,16.76760483,3.532803497,-10.14036301,1.40288269,10.82939252
1689,16.77753883,4.232448578,-10.48135391,0.4668791199,11.31328321
1690,16.78747183,3.962709503,-10.74226135,-2.530787201,11.72621548
1691,16.79740583,3.883673859,-10.16760635,-4.700674896,11.85577859
1692,16.80733883,3.484154663,-9.639504547,-5.775140533,11.76484721
1693,16.81727183,2.896327057,-9.821376343,-5.123096466,11.44964022
1694,16.82720583,2.270478516,-10.37642212,-3.533851318,11.19434294
1695,16.83713883,1.378932495,-10.61053528,-2.207160187,10.92503866
1696,16.84707283,0.40251297,-10.40950333,-1.944456482,10.59720186
1697,16.85700583,-0.180075531,-10.27149033,-2.006577301,10.46720083
1698,16.86693983,0.05418731689,-10.30517029,-1.539997559,10.41974392
1699,16.87687283,0.6985972595,-10.20772293,-1.191073151,10.30069419
1700,16.88680683,1.657652893,-9.656868439,-0.9303153992,9.842174958
1701,16.89673983,2.442919922,-9.159602509,-0.4323010254,9.489629078
1702,16.90667383,3.270099792,-8.675359497,-0.09175918579,9.271668394
1703,16.91660683,4.080813904,-7.945926361,-0.07214996338,8.932860319
1704,16.92654083,4.548591156,-7.045399017,-0.8815168762,8.432342546
1705,16.93647383,4.800217896,-6.333030396,-2.188598785,8.2425318
1706,16.94640683,4.686604156,-6.289021912,-3.932322693,8.77378008
1707,16.95634083,4.104315033,-6.650071106,-5.235512695,9.406351088
1708,16.96627383,2.654130707,-7.276368713,-5.565875702,9.537763039
1709,16.97620783,0.4306544495,-7.782915344,-4.012705536,8.767042844
1710,16.98614083,-0.9629475403,-7.908354492,-1.637594604,8.133329873
1711,16.99607483,-1.596879272,-7.692203979,0.1787283325,7.858242125
1712,17.00600783,-1.481020203,-7.345225525,0.3637435913,7.501870983
1713,17.01594183,-1.116827545,-6.812633057,-0.8896000671,6.960650919
1714,17.02587483,-0.7704478455,-6.129453735,-2.00088913,6.493639217
1715,17.03580883,-0.4308041382,-5.63518158,-2.379601593,6.13215846
1716,17.04574183,0.1942959595,-5.494324493,-2.790347443,6.165337899
1717,17.05567646,1.160836029,-5.659580841,-3.171155548,6.590494905
1718,17.06560946,2.416874084,-5.88201828,-3.3230896,7.175119781
1719,17.07554246,3.614832916,-6.222111053,-3.068918152,7.823039153
1720,17.08547646,4.455035706,-6.62971344,-2.727777557,8.440451045
1721,17.09540946,4.745282135,-7.289840698,-2.037562866,8.93370821
1722,17.10534346,4.008963318,-8.057145081,-1.511556702,9.125468612
1723,17.11527646,2.617157593,-8.83417923,-1.325792999,9.308596221
1724,17.12521046,1.367705841,-8.814120941,-2.124082947,9.169028062
1725,17.13514346,0.4439767456,-8.603209534,-3.068768463,9.144925889
1726,17.14507746,-0.5001100159,-8.395441589,-3.043321381,8.944012217
1727,17.15501046,-0.9645941162,-8.062084808,-2.742596741,8.570267799
1728,17.16494446,-0.950223999,-7.936945038,-3.121159515,8.581355307
1729,17.17487746,-1.06009552,-8.46908844,-4.256847839,9.537820246
1730,17.18481146,-0.6890171814,-10.15817596,-5.987099762,11.81137787
1731,17.19474446,0.5189707947,-12.01222046,-7.187154236,14.00778202
1732,17.20467746,2.618205414,-12.37147339,-6.951244812,14.43011288
1733,17.21461146,3.065325623,-11.40089172,-6.235283661,13.35122899
1734,17.22454446,1.829046478,-10.50066376,-5.517077179,12.00197863
1735,17.23447846,0.9071136475,-10.18272491,-4.983287201,11.37294567
1736,17.24441146,-0.2689906311,-10.30292496,-5.02789444,11.46744702
1737,17.25434546,-0.965791626,-9.473799133,-5.030439148,10.76990908
1738,17.26427846,-0.7979905701,-8.006699982,-4.37495224,9.158834022
1739,17.27421246,0.1179547119,-8.144712982,-3.913162537,9.036764018
1740,17.28414546,0.8602610779,-9.739197235,-2.602488098,10.11755683
1741,17.29407946,1.41111557,-11.88603287,-0.775537262,11.99460222
1742,17.30401246,1.974244537,-13.0455217,-0.4207749939,13.20077003
1743,17.31394546,2.580783234,-12.84164566,-1.069675598,13.14201321
1744,17.32387946,4.219874725,-11.99051559,-1.314117279,12.77915142
1745,17.33381246,6.767576752,-11.44070892,-0.7400610352,13.31306148
1746,17.34374646,9.190588074,-12.33330276,-0.5638774109,15.39140097
1747,17.35367946,11.15405502,-14.10636566,-0.4162843323,17.98821248
1748,17.36361346,12.83401154,-15.62061676,-1.954635315,20.31098519
1749,17.37354646,11.85519699,-16.28448624,-3.091521149,20.37860865
1750,17.38348046,7.995623016,-15.74515778,-2.198478241,17.79531645
1751,17.39341346,5.063370667,-15.43859528,-1.301244049,16.29972953
1752,17.40334746,1.616787872,-15.89200241,-1.356479187,16.03152455
1753,17.41328046,-4.053720245,-16.51515656,-2.531835022,17.19282503
1754,17.42321446,-8.667875061,-16.23838211,0.4209246826,18.41179756
1755,17.43314746,-11.39310791,-14.37056625,3.756887512,18.71978328
1756,17.44308146,-11.54878418,-11.22276215,4.712500305,16.77892921
1757,17.45301446,-11.18159775,-7.754923553,5.261708221,14.58946678
1758,17.46294746,-6.810088348,-6.087540894,6.215375061,11.04836389
1759,17.47288146,-0.287252655,-6.754104767,5.122198334,8.481589536
1760,17.48281446,3.621568909,-6.670877838,2.736459503,8.06874111
1761,17.49274846,4.165837097,-5.575904846,0.4240681458,6.973144726
1762,17.50268146,2.709365845,-3.890260162,-2.360142059,5.295758487
1763,17.51261546,1.960922241,-2.831062775,-4.328249359,5.531173021
1764,17.52254846,1.887125702,-2.411784668,-6.989565125,7.630987441
1765,17.53248246,2.437082062,-3.022664337,-7.325765991,8.291122724
1766,17.54241546,3.034789124,-4.11164978,-5.459896088,7.478373769
1767,17.55234946,3.285218353,-5.050647125,-3.470832367,6.953299457
1768,17.56228246,3.551963654,-5.726791077,-2.018851776,7.034795258
1769,17.57221646,3.689078522,-6.259682922,-1.23792572,7.37057601
1770,17.58214946,3.580703888,-6.534212036,-0.8548722839,7.499878258
1771,17.59208246,2.877316589,-7.089856567,-0.6985972595,7.683297146
1772,17.60201646,1.936972046,-7.454498291,-0.5462141418,7.721382996
1773,17.61194946,1.224154358,-7.50838623,-0.5580395508,7.627963412
1774,17.62188346,0.7720944214,-7.512427826,-0.7282356262,7.587030299
1775,17.63181646,0.1606159973,-7.243287506,-0.5502557373,7.265933716
1776,17.64175046,-1.117725677,-7.046895905,-0.6406677246,7.16369372
1777,17.65168346,-2.890040131,-7.244634705,-1.758393402,7.995561976
1778,17.66161746,-4.771477661,-7.60912674,-3.73144043,9.725711105
1779,17.67155046,-6.536756744,-8.180787964,-6.181695099,12.16009189
1780,17.68148446,-7.232509918,-9.145232391,-8.254135437,14.28549009
1781,17.69141746,-6.339317322,-10.52835617,-8.917406158,15.18398368
1782,17.70135146,-4.841082916,-11.50028503,-8.681945801,15.20094808
1783,17.71128446,-3.687731323,-12.06446182,-8.538993073,15.23367993
1784,17.72121746,-2.33544342,-12.69075943,-8.467142487,15.43379969
1785,17.73115146,-0.6048921204,-12.85930893,-8.218808899,15.27339322
1786,17.74108446,1.733844452,-12.02853653,-6.863227844,13.95692674
1787,17.75101846,2.457888794,-10.18467087,-5.089566193,11.64785053
1788,17.76095146,3.565136261,-8.453221436,-2.343975677,9.468968855
1789,17.77088546,4.342320099,-9.451794891,0.8292755127,10.43455166
1790,17.78081846,3.184477844,-11.63171173,1.685195618,12.17692495
1791,17.79075246,0.776585083,-13.30388443,-1.405427399,13.40043475
1792,17.80068546,-1.151854706,-16.02821915,-4.114643555,16.58797365
1793,17.81061946,-2.342029724,-19.59619949,-5.286855927,20.43151936
1794,17.82055246,-3.989653473,-22.32951553,-5.65973053,23.37856173
1795,17.83048646,-3.8764888,-20.48909271,-3.628604279,21.16593619
1796,17.84041946,-2.700833588,-12.46038849,-1.334774323,12.81941519
1797,17.85035246,-2.636617126,-7.592062225,0.3559597778,8.044741517
1798,17.86028646,-1.172511749,-7.875273285,1.224154358,8.055635729
1799,17.87021946,1.9481987,-10.49946625,1.297352142,10.75720188
1800,17.88015346,4.198918304,-12.44227615,0.7689509583,13.15417943
1801,17.89008646,4.846322021,-11.66164948,-1.100511475,12.67643606
1802,17.90002046,4.48377594,-9.067543945,-3.579506378,10.73021276
1803,17.90995346,3.955225067,-7.236551514,-5.473218384,9.897858486
1804,17.91988746,3.404520264,-6.900799713,-5.639372864,9.54014262
1805,17.92982046,2.965932312,-7.793543243,-5.141508179,9.796487999
1806,17.93975446,2.881208496,-9.26947403,-4.38902298,10.65307626
1807,17.94968746,2.635868683,-10.62280975,-3.890260162,11.61576579
1808,17.95962146,2.489323425,-11.08250381,-3.39793396,11.8559933
1809,17.96955446,2.181264038,-11.20435043,-3.195854187,11.85364355
1810,17.97948746,1.683399353,-11.02876556,-2.666255493,11.4706766
1811,17.98942146,1.568887482,-10.55604858,-1.673370209,10.80239499
1812,17.99935446,2.004781036,-9.83110611,-0.09056167603,10.03384252
1813,18.00928846,2.512525177,-9.108708344,0.9180409241,9.493373983
1814,18.01922146,2.707270203,-8.37313797,0.6930587769,8.827178591
1815,18.02915546,2.635269928,-7.377109222,-0.3595523071,7.841917236
1816,18.03908846,2.34607132,-6.533912659,-1.594334564,7.123058891
1817,18.04902183,1.840123444,-6.051316223,-2.939587097,6.974643691
1818,18.05895483,1.630409546,-5.76151886,-4.210444336,7.319916418
1819,18.06888883,1.534309387,-5.463787994,-4.690196686,7.362406502
1820,18.07882183,1.355880432,-5.522465973,-4.251309357,7.099977001
1821,18.08875583,1.118773499,-5.875581665,-2.497705994,6.481716538
1822,18.09868883,0.7533833313,-6.524332581,0.290994873,6.574129606
1823,18.10862183,0.6644682312,-7.045249329,1.846859436,7.313545372
