,Time (s),Acceleration x (m/s^2),Acceleration y (m/s^2),Acceleration z (m/s^2),Absolute acceleration (m/s^2)
217128,57.34818742,-5.204078064,-7.647596741,-5.170398102,10.59722515
44331,35.05447621,-4.065096588,-16.66858749,-3.879183197,17.59019277
71943,94.36791571,-2.762505341,7.395820313,-3.914210358,8.81195986
121558,82.19296517,-9.071884918,-2.631228333,-1.78907959,9.613701903
49828,33.74263283,1.748364258,-4.289330292,-1.462758179,4.857447212
96515,66.99987254,0.5105882263,-0.4085005188,-4.659660187,4.705316787
163596,9.563410042,-6.620582428,-7.324418793,-4.094734955,10.68859564
201852,80.59409763,-2.733765106,8.329578552,-5.907465363,10.57135268
163680,10.39783092,-4.333638153,-7.111561432,-1.65570694,8.490941709
2293,23.05854417,-0.4933740234,-9.615704041,0.02709365845,9.628391153
70117,76.04655283,-4.249962158,10.53000275,-3.664529572,11.93197021
151417,25.82810033,6.712640991,-5.511987762,-5.503605194,10.28256915
39595,45.0284135,3.355871429,-7.848778381,-0.1609153748,8.537627826
2432,24.45630283,-0.9602531433,-8.477171631,-0.2704875183,8.535671529
37702,26.22427033,-0.007484436035,-7.74713974,-1.43805954,7.87948256
90619,7.840430417,10.73073532,-7.742200012,-0.3769161987,13.23753781
41179,3.743125333,-1.861079865,-13.95952103,-1.554367676,14.16855336
21914,4.205316292,6.356681213,-6.934779053,-5.15423172,10.72681971
216772,53.77635437,2.637215881,-15.01826935,-14.58521988,21.10052039
96544,67.29085454,11.83004929,-4.8559021,1.655856628,12.8946389
14678,5.047106792,0.1249900818,-9.599088593,-0.149539032,9.601066933
77370,37.00346262,4.795427856,0.6096821594,-2.952310638,5.66427213
40057,49.61770725,2.561922455,-6.618337097,-0.6903643799,7.130388178
87840,142.0563571,9.05766449,1.289718018,2.444566498,9.469982256
50869,44.08330221,1.47084137,-4.297563171,-1.673519897,4.840773946
102187,123.9122048,15.42961395,-12.03617065,-2.240989838,19.69681259
189689,25.40037233,4.75875412,-8.661438446,-0.4143383789,9.891305931
28871,10.12877663,3.165766754,-9.801467743,-1.390159149,10.39343021
117037,36.82970304,-11.39610168,-1.41351059,3.256029053,11.93611624
178213,27.02921146,-7.820038147,-37.62725372,7.323071594,39.12276316
164853,22.04989917,1.394949188,-2.429897003,1.544039154,3.199115439
97748,79.37163367,12.42685822,-11.56210648,6.924151154,18.33174788
54513,29.14665175,12.30980164,-5.36484375,0.8737330627,13.45645474
110120,65.61540433,14.16145111,-11.52019363,3.337160339,18.55796859
212707,12.99159792,-7.970774689,-15.37482788,-1.234183502,17.36207909
2098,21.09765917,0.8702902222,-8.472680969,1.719474335,8.689092005
44872,40.42867233,-1.638343048,-6.030060425,-1.347797241,6.39236686
219689,3.331866,21.52778275,-2.616858215,3.146606598,21.91334091
125011,116.8399757,-7.397616577,-2.221081238,0.1204994202,7.72479469
59644,27.79603133,3.517684937,-8.821755066,-3.387306061,10.08321933
49899,34.44790408,-2.841391296,-11.08385101,1.227746887,11.50793727
25075,35.99394617,8.764124908,-3.204087067,-3.758085022,10.05978441
132240,49.83723125,-1.248852997,-3.205733643,1.184037781,3.638448496
230232,31.91743458,14.79568222,3.365750885,3.46694046,15.56470904
173537,48.26384488,3.463647308,1.879790955,0.9874964905,4.062710429
135540,9.855382083,-0.2297721863,1.375789032,0.8610095215,1.639185198
81230,75.7336435,17.93465469,-2.750530243,18.65241211,26.02171657
22191,6.990979417,11.89770859,-4.54350174,-4.360282745,13.46146141
189148,20.02647279,15.81880463,-22.92512695,-4.448299713,28.20608792
229394,23.51026304,-0.7911048889,-0.02918930054,0.299078064,0.8462544823
214748,33.46917925,-0.6349795532,-3.411405945,1.19346817,3.669503485
171689,29.90717929,7.91913208,4.412823486,-5.814658356,10.77014001
57353,5.038228208,0.453407135,-6.744973755,-1.758543091,6.985178794
5576,56.07203233,7.562423859,-9.096433868,4.873265991,12.79390813
127365,0.816155875,-9.842482452,-2.06286026,4.627327423,11.06986957
5739,57.71115379,0.7662565613,-10.7654631,-1.706900482,10.926841
200906,71.10302875,2.225272522,-5.840704193,2.099983063,6.593602364
119505,61.59340117,-13.07755508,-0.5691165161,1.99265625,13.24073335
209139,70.44487175,-30.66388412,-10.78821579,0.5782475281,32.51144044
6690,67.27439442,1.619631958,-7.410040741,0.5668711853,7.606132684
13235,61.27815817,-3.967499542,-9.12547348,-0.7450007629,9.978494125
51208,47.4507275,-1.122665405,-5.066065063,-1.967358856,5.549404807
3186,32.03841329,-0.7457492065,-9.38174057,0.9765692139,9.461864797
59558,26.9417455,1.887125702,-11.92974197,-1.336720276,12.15182324
117077,37.23106104,-7.907905426,-0.1835183716,3.755240936,8.756168209
232695,56.62735254,8.851543121,-0.2700384521,0.9138496399,8.902688221
228956,19.11606679,21.17900803,-2.229763184,4.496349792,21.76555504
84353,107.0688723,11.63575333,6.339616699,6.476731567,14.74888291
30754,29.06493962,3.59447525,-14.02598282,-3.06322998,14.79972379
134766,2.072125625,0.6888674927,-4.715045013,-0.8241860962,4.835852626
155082,62.68389967,1.121318207,0.3902384949,-1.466500397,1.88686619
11681,45.65035675,-4.68151474,-7.168742523,-2.192191315,8.838164537
65625,30.97589787,-1.329684906,9.860894165,-3.93381958,10.69954355
112556,90.05830779,2.662662964,-6.943161621,0.9174421692,7.492594176
25192,37.17055246,9.417815552,-4.531227264,-1.581012268,10.57009319
106730,31.59899379,13.1423703,-9.498647461,1.739832001,16.3086853
166144,34.87406479,2.268382874,-8.580756226,0.5854325867,8.894811385
85791,121.4973222,10.03617966,2.726130981,3.429667969,10.95076776
111497,79.43232829,7.135960693,-9.110504608,1.667682037,11.69206537
184426,29.60262529,4.674778748,-1.931732941,0.7075785828,5.107427527
199861,60.6187325,-3.990252228,13.61119537,-13.85054764,19.82484356
159199,37.95250017,14.0381076,6.435716858,-0.8529263306,15.46655747
198569,47.6563675,0.9394464111,14.73580673,-14.73999802,20.86370296
177071,15.68544204,-6.910080414,-19.21419388,4.929848328,21.00566262
196628,28.18281492,-1.96930481,7.590864716,-6.099965057,9.93523841
182636,11.82214121,7.089856567,-4.659360809,2.187101898,8.761228453
43605,27.84252571,-2.167342987,-8.561895447,-1.694027252,8.992950439
7624,4.851204,-1.583856354,-9.153016205,-1.081950073,9.351840597
61065,41.91163908,2.953807526,-8.018824768,-3.154390411,9.109155198
234150,71.22461742,0.1639091492,-0.4616400146,2.348765717,2.399307838
19830,56.85689117,0.4454736328,-9.38174057,0.3496728516,9.398817691
112036,84.84065146,4.774172058,-6.667884064,0.6355783081,8.2254092
209419,73.25401388,7.881560211,7.370822296,2.868484955,11.16585056
207794,56.950979,2.000440063,0.242795105,3.118764496,3.713139089
78988,53.23807112,17.91923676,-3.546874237,4.889132996,18.90986473
206622,45.19276392,-19.75831238,-4.023632812,0.9601034546,20.18668689
2946,29.62500621,2.011966095,-9.52798645,0.67045578,9.761149744
150469,16.29465158,24.30840042,-15.7991954,-12.76904663,31.67903815
97909,80.98708929,14.35260361,-5.357509003,-1.057401123,15.35637425
72109,96.03349725,-0.7033872986,12.79643967,-2.401755524,13.03886695
130455,31.8877195,0.6433621216,1.286574554,0.735869751,1.615763966
121859,85.21316283,-12.82413208,-3.265010376,-3.594624939,13.71276722
212433,10.24253112,-0.2868035889,-5.563480682,-0.6312373352,5.606517116
202436,3.1965275,-5.500312042,-3.05155426,-2.414029999,6.73742954
197748,39.41947238,-0.05358856201,-3.366050262,-2.592758331,4.249183671
118905,55.57306829,-10.74630295,-2.844385071,0.8252339172,11.14695315
106732,31.61906279,12.59241394,-8.103249207,2.09100174,15.11965029
31172,33.2685035,0.1537303162,-9.202563171,-1.2063414,9.282567614
171374,26.77819617,89.17585785,-4.923112335,17.6399176,91.03701089
69276,67.60831633,-0.4526586914,8.584797821,-0.8354127502,8.637219922
44273,34.47831521,-6.593937836,-11.88947571,-1.263971558,13.65420349
23930,24.47927496,10.04456223,-2.654130707,-5.524561615,11.76683565
122844,95.09652854,-6.919810181,-0.7400610352,2.304308167,7.330845749
54226,26.29574858,6.264772339,-6.878795471,-3.350183258,9.888828417
224626,52.86384925,-1.288670197,16.17775818,8.816665649,18.46927513
37351,22.73762046,3.250789948,-7.037016449,-2.685864716,8.203725072
135844,12.91236738,-0.007334747314,-0.5318440247,1.045426025,1.172956708
24900,34.23406542,7.98589325,-5.384003906,-2.031874695,9.843297406
121187,78.47039583,-8.125253448,-1.924398193,5.240602112,9.858344816
38818,37.31005883,-2.046544189,-17.46044083,1.527573395,17.64621255
167905,52.36690717,1.750908966,-2.807561646,-0.9391470337,3.439488589
27696,62.35182054,13.73648483,-1.808090057,-3.69746109,14.33985438
178092,25.82728804,-13.3957933,-21.90649521,1.409768372,25.71632278
191776,46.13108467,-1.199904785,0.04834945679,1.518442383,1.935917466
78389,47.22785912,10.28526169,-2.287093964,-1.482666779,10.64028701
166526,38.66865721,-0.08322692871,2.493664398,1.174906769,2.757842412
106099,25.26715671,11.53830597,-7.05797287,3.231629791,13.90650628
9897,27.70957504,-3.305276642,-9.398655396,-2.269730072,10.2181824
180439,49.14058358,0.1469943237,0.09819580078,-0.2833607483,0.3339806284
61429,45.52746358,0.8650511169,-5.1624646,-2.062710571,5.626200234
36424,13.52929721,2.612666931,-8.798852692,-3.859573975,9.957015037
78555,48.893462,8.384214935,-0.4441264343,-1.215023346,8.483430326
217396,60.03710025,-4.909790039,-6.012097778,-3.51499054,8.520945747
116405,30.48824733,-12.32506989,-1.401086426,4.129163361,13.07365216
48822,23.74962646,-2.264790344,3.16157547,0.7156617737,3.954365503
64222,16.89889846,-3.699107666,15.43904434,-0.2176473999,15.87749533
217352,59.59563725,-11.63021484,-10.55440201,-23.47987335,28.24821679
160591,51.95036404,-1.50122818,0.03727249146,-0.7125183105,1.662154514
217641,62.49524937,-4.135450287,-10.33855087,-2.654430084,11.4469901
45525,46.9154595,-0.6429130554,-12.07553879,0.1496887207,12.09356775
71012,85.02662008,-0.5191204834,7.559430084,-2.786305847,8.073287407
98721,89.13460933,1.838027802,-1.917213135,0.5998027039,2.722832291
4799,48.25857042,-2.682122498,-10.48479675,1.808539124,10.97249096
230123,30.82389942,-5.129982147,-0.3109034729,2.276016998,5.620821219
45401,45.68366596,-1.287472687,-7.645052032,0.05777984619,7.752918483
87508,138.7251721,9.971364441,1.708996124,-0.6201603699,10.1357474
17159,29.99658025,0.2128573608,-11.78379547,-0.2201921082,11.78777454
41858,10.48816821,-1.094673615,-11.48531616,-6.308331757,13.1493668
9586,24.58200838,-7.331603851,-10.24963577,-3.178639984,12.99658419
103724,1.434476417,9.276659088,-5.89728653,5.442831573,12.26616516
115702,23.43436967,-7.258855133,-0.8631051636,-0.1769320679,7.312129192
216524,51.28811475,-5.219945068,-4.436773682,-4.52119812,8.208167863
169277,5.948085,7.81614624,0.9012757874,0.7496411133,7.903568934
231516,44.79908708,36.3999559,-12.67623962,10.48719177,39.94527546
48877,24.29596312,-7.623197479,-9.566755829,-2.523003387,12.49005616
181122,55.92497554,-1.585353241,3.883673859,1.326242065,4.39945287
55086,34.83851987,10.85018692,-3.257226562,1.044078827,11.37656282
226158,68.23387388,40.98237671,-9.309889984,39.97018158,57.99866091
199945,61.46148838,-2.044747925,12.12508575,-6.332132263,13.83092902
228955,19.10603379,22.83905594,-3.160677338,4.445755005,23.48142021
173605,48.93930487,50.73085464,2.461331635,-4.427043915,50.98309999
199472,56.71597262,0.7861651611,-11.69293442,9.270671539,14.94282844
184125,26.61272167,1.506766663,-1.050216064,0.263152771,1.85541072
118940,55.92425429,-9.437724152,-0.4291575623,3.860621796,10.20584215
174587,58.69373179,10.18467087,0.8327183533,-0.1017883301,10.21916344
68811,62.94271112,0.2941383362,7.235952759,-3.791315918,8.174326032
218088,66.98012312,-3.413800964,-7.146139526,-3.335364075,8.593369576
81524,78.68354912,8.221652985,-2.206860809,0.9476792908,8.565273403
125930,126.061138,-8.776249695,-0.1143621826,2.742596741,9.195513814
31573,37.30111017,3.641776886,-8.315358124,-0.2671943665,9.081801167
173283,45.7408025,23.96381699,-0.3433859253,2.058519287,24.05452016
196189,23.77845513,-1.235680389,3.415597229,-2.168540497,4.230340216
208078,59.80024404,-4.736899567,2.194137268,1.296753387,5.379035713
228837,17.92221079,20.95881592,-2.253414001,2.484234009,21.22548605
146490,50.91718196,-6.025420074,-55.71294434,-14.88863892,57.98197498
104721,11.43927392,4.813091125,-7.27202774,3.889960785,9.548823412
163117,4.805218542,-1.93996582,1.390458527,0.1992356873,2.39510692
99095,92.88728733,8.363707581,-4.172872467,0.1043330383,9.34747851
86184,125.4405635,5.869743805,0.5854325867,-0.9258247375,5.971078219
195254,14.39788375,-0.8369096375,15.82359467,-14.06310562,21.18625747
231146,41.08708358,-0.167202301,-1.989662476,2.144440613,2.9300749
123067,97.33408229,-12.8955336,-2.271226959,3.871549072,13.65438212
100258,104.5567205,14.13944687,-3.030597839,-1.137185211,14.5052291
67359,48.3740085,-1.910327454,7.06381073,-2.178569641,7.63498125
158281,28.72112017,1.680405579,-0.5242098999,0.593815155,1.857733933
59709,28.44171333,2.358046417,-5.793552246,-2.339634705,6.678287287
130572,33.06423375,0.2228865051,-20.81167191,1.14197525,20.84417121
47585,11.46197333,-3.130589905,-13.71672592,-0.6713539124,14.0854492
167169,45.05588142,-9.05182663,-25.32269119,-1.283131714,26.92249397
209784,76.91593329,-54.04017288,-23.29336121,-2.692151642,58.90813731
154119,52.99993379,23.34156097,-14.38104446,-10.39977356,29.32231571
123781,104.4982813,-14.22551788,-2.56835907,4.872367859,15.2545664
167993,53.24105046,-1.36785553,-1.108145599,-1.662143555,2.421102356
53414,18.22976283,5.642815704,-6.329138489,-0.8384065247,8.520697658
113585,2.192385167,-9.733209686,-6.783593445,7.456444244,14.01253266
145882,44.80303583,-6.302942963,-13.95398254,-2.025288391,15.44482152
306,3.077714917,-3.338657227,-8.801547089,2.526895294,9.746746281
62951,4.1463095,-2.909499664,8.716673584,-3.855682068,9.965534149
143736,23.22232638,-6.727310486,-37.59746567,-10.1192569,39.51234606
38276,31.92609575,2.084265747,-8.939260712,-1.93996582,9.381791575
121640,83.01574283,-10.53793625,-2.010319519,2.041005707,10.92040243
49280,28.29912858,-9.130113831,0.01691482544,5.048102417,10.43276582
165102,24.52334858,-4.938530273,-23.30473755,-6.0821521,24.58642812
40718,56.18377633,4.272565155,-3.749253387,1.938169556,6.005681909
53627,20.34559596,6.265071716,-2.980601807,1.567390594,7.112792983
35511,4.460040583,3.210972748,-10.07390121,-3.99115036,11.30146508
10725,36.03634937,-6.954837341,-8.691525879,-0.1297801208,11.13235049
221798,24.49120954,-1.071322174,-3.77709549,0.6804849243,3.984625612
195874,20.6181535,-2.485730896,7.816595306,-2.96263916,8.720966177
140100,55.71000375,0.2514770508,1.290765839,1.425036621,1.939083941
85655,120.1327401,12.64435593,-1.453926544,-0.1938468933,12.72914828
154207,53.88486879,-1.070124664,3.988455963,-2.15177536,4.656509956
153501,46.78526429,-0.1980381775,2.606529694,-1.596729584,3.063129368
100589,107.8779478,11.82930084,-8.316256256,-2.624941406,14.69635308
193953,1.345356167,-5.452860718,1.444795532,2.899620209,6.342627334
16304,21.39850887,1.39360199,-7.193890228,-3.09137146,7.95303468
91931,21.00479542,0.9644444275,0.1124162292,-0.9645941162,1.368660758
32436,45.97976475,3.378624115,-7.407945099,-2.002386017,8.384646758
168998,3.17669075,-1.0776091,0.9596543884,-0.5577401733,1.547013904
6250,62.84975671,-0.8231382751,-9.806108093,0.09445358276,9.841048422
117291,39.37832504,-9.356293488,-0.5269042969,3.659589844,10.06034064
200676,68.79547767,-3.087629242,2.601589966,-0.9729766846,4.153120311
77706,40.37480737,6.560257874,0.08801696777,-1.861079865,6.819702971
167544,48.78093054,-0.5152285767,-17.69230865,-1.975891113,17.80975552
25021,35.45089717,6.37224884,-4.483476562,-3.080294495,8.378265426
139265,47.31334808,1.366208954,2.705773315,-6.28572876,6.978403985
183758,22.96722604,4.731061707,-1.92005722,0.1501377869,5.108043261
151862,30.30315354,12.09649521,-11.55686737,-7.558531952,18.35804415
161383,59.91464775,34.03412567,2.656675415,-2.605032806,34.23690743
168088,54.18472896,-2.823578339,-45.51749588,-6.622528381,46.0833257
115907,25.49133421,-7.771988068,-2.622696075,1.118923187,8.278545907
54971,33.69617321,5.845643921,-2.158661041,2.139949951,6.588683946
18533,43.81387117,0.3200344849,-10.70259384,-4.56221283,11.63880247
63404,8.691490458,1.504521332,14.36817123,-2.635419617,14.68514098
177279,17.75155754,-6.798412628,-22.96913544,4.107308807,24.30369483
108259,46.94167467,5.194647675,-6.114335175,1.332079926,8.13288977
5100,51.28540442,0.9568103027,-9.628277893,0.9463320923,9.721870477
11349,42.31160075,-4.071682892,-8.861572266,-0.7300318909,9.779519986
207514,54.1418465,2.035467224,1.420545959,0.3147953796,2.502033928
138124,35.83967083,-0.1513352966,2.264341278,2.460433502,3.347219266
137403,28.58942996,-4.418960724,1.406924286,-15.63229248,16.30568054
202223,1.059605542,-9.056017914,0.5098397827,2.869981842,9.513579391
37695,26.15473533,0.7066804504,-7.911348267,-0.170944519,7.944686947
206272,41.68135712,-6.097120972,-0.2399510193,2.075434113,6.445144482
201335,75.4071155,-4.863087158,8.357720032,-0.5977070618,9.688052156
26285,48.16224121,9.026529236,-5.284760284,-3.021915894,10.88755698
26009,45.38666704,8.620124359,-3.263513489,-3.82963623,9.981141113
222423,30.761721,65.73999298,-10.43225601,35.50361984,75.43928462
148371,69.83273525,-0.7682025146,-9.922266541,-1.680704956,10.09288252
146923,55.27149033,-0.4749623108,3.878285065,1.024768982,4.039410317
231999,49.64476121,37.48070847,-3.442241821,7.437284088,38.36620558
49372,29.21300171,-1.194216614,-6.077212372,-1.703307953,6.423388632
219807,4.515747792,15.6028038,-10.76935501,5.274282074,19.67853006
156737,13.19463404,-1.70600235,0.06242019653,-1.219663696,2.098075268
114173,8.092392042,-7.716303864,0.8759783936,3.990850983,8.731298588
124595,112.6658742,-6.822512512,-5.146447906,2.573598175,8.925021602
62445,55.62214425,-1.25319397,6.452781372,8.559500427,10.79230884
155482,0.5742875,4.556674347,1.338516541,8.419242096,9.666361524
151874,30.42382954,-1.827399902,2.110461273,-0.9651928711,2.953816932
201990,81.9786315,-2.759661255,7.296427002,3.507356415,8.553077005
142033,6.096263583,-1.011746063,-9.844278717,-0.04011657715,9.896214574
109692,61.32078067,15.0455127,-7.586523743,4.559219055,17.45592373
163631,9.911084917,1.654359741,-3.726650391,-1.091230774,4.22085464
182173,7.223044917,14.39496552,-14.83909195,0.8409512329,20.69108216
33705,58.741318,2.122735748,-8.618328094,-6.852899323,11.21355498
157816,24.04508225,9.216334534,2.557431793,-5.90896225,11.24264713
4547,45.72447942,-1.172362061,-10.30606842,1.579066315,10.49204125
203671,15.58667388,-4.262985077,-2.268981628,0.1761836243,4.832427968
63477,9.423936375,-1.347497864,6.295458527,-3.773802338,7.46258217
196052,22.4039745,0.2161505127,2.10731781,-3.537743225,4.123485967
84149,105.0219992,15.05254807,3.390150146,5.940097504,16.53351383
70144,76.31745946,-1.860930176,8.122109985,-1.136586456,8.409730109
20222,60.79897217,-1.750010834,-7.266638947,-1.212778015,7.572146988
60052,31.84892708,0.4102967834,-6.200855255,-2.362088013,6.648188409
159788,43.87545342,22.27143631,5.87154007,-0.730480957,23.04398968
48982,25.33897308,-2.766247559,-9.166637878,-1.197360077,9.649510179
54905,33.04056621,3.176544342,-4.979095917,1.324445801,6.05276687
147080,56.85030233,-1.998045044,2.413131866,1.601070557,3.518354208
191768,46.05161892,5.743705902,0.4065545654,0.3168910217,5.76678975
108694,51.30660733,1.411414948,-6.11014389,-0.2026785278,6.27431503
30324,24.74069875,2.487976227,-9.059011688,-0.1486408997,9.395627312
27998,1.349536375,11.0349028,-4.821773071,-3.221900024,12.46592215
150997,21.60443292,14.82337463,-11.29835495,-11.75535461,22.03573512
59493,26.29606271,2.099384308,-8.939709778,-3.549269257,9.844954933
111616,80.62637592,2.737657013,-5.588778076,-0.7081773376,6.263443258
154961,61.46712271,-0.4040098572,3.509601746,-2.258353729,4.192933334
153966,51.46135454,17.98734512,-19.13231415,-12.08302322,28.90656464
83659,100.1054866,5.10513382,1.361269226,-3.189567261,6.171611178
190917,37.59841871,-1.600920868,-0.1502874756,2.550546112,3.015098576
51917,3.359296083,14.95674728,-5.48190033,-1.709894257,16.02121278
214353,29.50608917,0.3141966248,4.468358002,2.89483017,5.33338396
8634,15.00824262,-2.789000244,-7.723488922,-1.740281067,8.394008678
38248,31.64795775,3.008144531,-8.821755066,-3.840114441,10.08061381
165193,25.42729867,-0.7171586609,5.87034256,-0.9704319763,5.993077384
162024,66.36048063,9.545949097,1.540296936,1.767225037,9.829585095
91528,16.96116804,8.522826691,-4.423152008,2.387235718,9.894530957
85177,115.3366347,11.09627518,4.806055756,4.550836487,12.92035632
111715,81.61974254,5.848488007,-6.473288727,2.564916229,9.093243325
173709,49.972362,-2.915487213,-1.061143341,-1.270857239,3.35278526
91911,20.80411942,8.50770813,-7.730823669,-0.4222718811,11.5032624
184889,34.20171667,2.23021225,-0.9210346985,-3.753444672,4.462118163
221665,23.15684113,-2.602787476,-2.542013855,-1.188678131,3.827439455
102333,125.3771664,10.19200562,-6.419550476,-5.860014038,13.39505025
193427,62.53087929,11.94441147,-1.641785889,-0.5661227417,12.07000088
18214,40.60592038,1.475781097,-11.07636658,0.8399034119,11.20576923
53353,17.62382033,10.90317673,-1.986668701,0.9822573853,11.12613791
2889,29.05182308,-1.288071442,-8.820557556,-0.3845503235,8.922401167
222473,31.263361,-0.6212081909,-3.326233063,1.981279907,3.921121788
224569,52.29198579,-0.4605921936,-3.53250412,0.1164578247,3.564308201
19769,56.24345463,-1.802701263,-11.34460876,-6.350244598,13.12537566
175404,66.80916379,-1.82889679,-9.977801056,13.36944809,16.78223822
133434,61.84402363,1.637145538,-18.33013229,-0.0122744751,18.40310153
213475,20.69701388,0.3441343689,-21.01973923,-8.703950043,22.75316708
17334,31.75642138,1.654359741,-9.693242798,0.160765686,9.834719503
21459,73.238684,1.065484314,7.942184143,5.162763977,9.532453916
58676,18.18033671,0.1323248291,-9.747729492,-2.316133575,10.01999076
156200,7.79453775,-0.3788621521,0.2977308655,-1.897454224,1.957680446
150440,16.00301458,10.3912413,-8.904083862,-8.662935333,16.1958962
178450,29.38338804,-0.4299060059,-1.402134247,0.5535488892,1.567550954
35376,3.1190195,0.7740403748,-9.938432922,-1.499581604,10.08069107
104113,5.338065917,11.30224686,-7.460785217,2.494861908,13.77056411
85313,116.7012167,6.814728699,2.170636139,-1.391955414,7.286269852
26892,54.26648258,7.104526062,-4.939278717,-2.899171143,9.125566181
172388,36.85053825,20.52142548,-0.7092251587,0.2682421875,20.53542933
161701,63.11242579,2.435136108,2.427352295,-5.198838959,6.232965069
160455,50.58275925,71.63398636,10.63268921,-1.227746887,72.42920298
13095,59.87024654,-1.880838776,-9.124725037,-5.556295624,10.84760723
65833,33.06286571,0.2134561157,6.054759064,-4.701273651,7.668614267
42973,21.56435696,-4.951104126,-10.57326279,-2.907254333,12.03160196
140430,59.02847308,0.4140390015,1.184935913,0.6533912659,1.415069454
81650,79.94779254,9.120982819,-0.2071691895,-3.153192902,9.652868596
177764,22.56918417,-1.175804901,0.7625143433,-0.5899232483,1.520511338
165863,32.08275242,-2.088157654,6.64258667,1.43446701,7.109293612
141233,67.10350413,-3.046315155,1.480421448,9.799222412,10.36804917
22106,6.136173417,6.999294891,-5.636977844,-4.638703766,10.11351674
23910,24.27814496,8.783734131,-4.844525757,-3.843407593,10.74221565
162055,66.6722135,9.489516449,1.569336548,1.751058655,9.776499683
55639,40.33170621,7.78695694,-6.225104828,-0.8904981995,10.00907666
39095,40.06164533,1.810036011,-12.08122696,-5.420527954,13.36466979
83497,98.48002775,9.325307922,0.1974394226,-0.7219487,9.355295832
168587,59.14151804,8.859776001,-3.383713531,1.911225586,9.674602384
24619,31.40819704,8.301137695,-5.450166321,-4.193828888,10.77967535
22391,9.002288042,8.886869659,-3.631598053,-4.050576782,10.41979506
201882,80.89508263,-1.256038055,8.133336639,-2.138153687,8.502969933
134340,70.95488725,-4.249363403,0.3776646423,9.180259552,10.12308675
62493,56.09895825,-3.490591278,5.896388397,7.741002502,10.33802415
87125,134.8822675,11.56929153,5.595813446,2.971620483,13.1906089
24530,30.51316904,8.889264679,-7.153773651,-6.411467285,13.08825492
138178,36.38268483,0.4263134766,-12.42131973,-1.246457977,12.49098013
28910,10.52097563,2.443668365,-7.980953522,-0.6780899048,8.374182952
88202,145.688557,13.88617355,-2.854863281,16.07956238,21.43661323
196556,27.46045992,2.262545013,-3.736679535,-0.9568103027,4.471841884
206666,45.6341985,-15.10329254,-4.716092834,1.400487671,15.8843427
103957,3.772618458,9.813293152,-7.089407501,2.989433441,12.46984898
82460,88.075081,11.14058304,0.8484356689,-2.37990097,11.42350043
91020,11.86399154,10.1948497,-2.329306183,-4.233047333,11.28181357
77028,33.57191329,13.38830887,0.5216651917,1.158890076,13.44849342
112004,84.51956408,9.02248764,-12.49855911,4.703069916,16.1163932
198729,49.261612,-1.486109619,1.727856903,-2.967429199,3.741610259
81598,79.42604154,9.663454742,-0.6439608765,0.2514770508,9.688151727
156940,15.23600925,-1.182840271,-0.5075944519,-0.2360591125,1.308620319
203517,14.04166554,-11.58141632,-0.1222956848,2.866988068,11.93162943
76625,29.52830162,11.73574539,-1.075812836,2.136357422,11.97702451
162809,1.745670583,-8.480165405,-5.933660889,-0.9810598755,10.39634625
121465,81.25981392,-6.393504639,-3.350632324,0.6414161682,7.246727071
234072,70.44208142,4.673880615,-0.0339793396,-0.8053253174,4.742875021
79707,60.45231412,11.04972198,3.39089859,10.99613342,15.95335386
28877,10.18911462,2.529290314,-9.216184845,-10.40875488,14.13073072
63007,4.708187083,-1.533560944,9.277407532,-0.5604345703,9.419988672
44973,41.43198896,-2.31792984,-11.94845306,-2.42795105,12.41101429
120289,69.45996804,-10.12374756,-1.303639069,-1.517993317,10.31959511
149029,1.813291542,-0.8208929443,-0.35102005,9.606573029,9.647970028
39272,41.81988196,-0.8381071472,-10.35456757,-4.373904419,11.27166948
27460,59.97851421,8.409961395,-5.588927765,-5.163213043,11.34117865
177607,21.00966517,-0.6020480347,-2.05582489,0.2457888794,2.156221229
126174,128.509418,-13.49952759,-1.818867645,0.4225712585,13.62806263
27567,61.05454717,8.530610504,-4.115092621,-3.721710663,10.17626813
170674,19.82489775,59.13018814,-4.387675781,-4.815186768,59.48795569
112821,92.71729967,13.4224379,-4.385580139,4.287833405,14.75739366
108675,51.11595533,7.648644562,-9.03072052,2.885250092,12.18114711
174297,55.81309775,1.742676086,-0.8178991699,0.2444416809,1.940523313
197651,38.44629704,-1.022074585,13.56598938,-4.609065399,14.36398928
230011,29.70026742,-0.1601669312,-0.01586700439,1.407672729,1.416844283
232975,59.43644246,11.03789658,0.7399113464,6.501579895,12.83172517
100068,102.6502772,11.27620102,-7.683821411,4.236639862,14.28785982
174211,54.958841,4.956941986,-0.3342549133,0.3528163147,4.980710748
71189,86.80256775,-1.004561005,14.81259705,-3.438200226,15.23953394
227279,2.291794792,7.807164917,-3.220552826,-3.70449646,9.222097298
3212,32.29986642,5.870941315,-8.865164795,0.9589059448,10.67607603
212891,14.83768562,-4.459077301,-12.9061615,-11.93647797,18.1364793
60356,34.86873358,1.536405029,-10.63538361,-3.434907074,11.28142329
74604,9.249964125,8.197253723,-6.937323761,1.301693115,10.81738575
229606,25.63713546,19.71205856,-4.135001221,2.217488708,20.26279211
220762,14.09716267,49.36150223,10.83925964,25.26985107,56.50321075
28576,7.16213925,0.4569996643,-9.932445374,-0.09145980835,9.943373909
201680,78.86844663,-0.2893482971,8.547675018,-3.186872864,9.127027408
48863,24.15689512,0.145796814,-8.943152618,2.252964935,9.223724111
81879,82.24550654,9.382339325,5.705984344,5.441334686,12.25539358
216501,51.05734962,-9.333241425,-15.52526505,-13.98886002,22.88736452
60952,40.78914383,2.55548584,-8.791817322,-3.887565765,9.946845092
217826,64.351404,-4.75995163,-7.82782196,-7.718100128,11.97919053
114287,9.236270167,-10.96679443,-3.129691772,6.220314789,12.99068385
51487,50.22900808,-1.447938995,2.560425568,8.9301297,9.402102046
144787,33.79148563,-1.915267181,-0.7613168335,1.134341125,2.352569125
132208,49.51544425,0.5554948425,3.113375702,1.228345642,3.392715107
14521,3.46828075,1.338217163,-9.278305664,0.2520758057,9.377703524
167731,50.63848608,-1.465153198,2.633024597,0.4643344116,3.048786458
41702,8.938495833,-2.373464355,-6.832391968,-1.502126312,7.387238761
25308,38.33710192,9.660311279,-4.646038513,-2.85965332,11.09436366
96149,63.32748392,9.400751038,-1.784289551,-3.088677063,10.05473696
35449,3.8441635,2.353106689,-9.33024765,-5.099595337,10.89020224
232059,50.24670821,0.7131170654,-0.3143463135,0.01930984497,0.7795655354
55251,36.477537,5.007686462,-6.767576752,1.436412964,8.540509411
13729,66.24607225,-0.5689668274,8.443491669,4.653073883,9.657503372
176777,12.76506346,-7.670948181,-26.64294571,4.772226105,28.13297254
194750,9.3414095,-1.389859772,6.253395996,0.08352630615,6.406531691
227486,4.368483042,1.399290161,-0.65758255,-1.224004669,1.971957199
114756,13.94221879,-15.2166069,-2.47704895,3.145259399,15.73447024
58498,16.41216246,-0.2528242493,-6.228098602,-1.414259033,6.391655569
212378,9.690711667,-2.215991821,-3.106639709,-4.324956207,5.767761804
219704,3.482359,23.75994095,-9.953102417,7.788154449,26.91197487
128645,13.68711525,0.9575587463,4.034709778,2.262545013,4.723866179
152735,39.08224579,20.50301376,-18.56379639,-9.262139282,29.16805331
134572,0.12128075,-0.152233429,3.320095825,8.67146759,9.286579644
32424,45.85908775,0.2891986084,-9.691745911,0.2942880249,9.700524732
136568,20.19280825,9.624086609,-50.74238068,2.553390198,51.71007679
180265,47.41220254,-11.06259521,-23.57956604,3.975882111,26.34738291
145346,39.41291583,-6.342610474,-17.14459763,-1.760039978,18.36474002
81659,80.03809554,8.84465744,0.2113604736,-0.3350033569,8.853522787
120577,72.34972658,-10.82878143,-0.4808001709,3.691772919,11.4508892
204689,25.79979729,-20.06966492,0.007484436035,-9.307345276,22.12279779
14119,70.16811213,1.376986542,5.25482254,7.686964874,9.412687228
12777,56.67227904,-6.783743134,-8.123008118,-1.400337982,10.67536314
47321,8.839543458,0.9193881226,-2.910697174,-2.057920532,3.681367881
211990,5.79787325,-1.556014252,-9.014105072,-1.166075134,9.221442502
152104,32.73676983,0.7000941467,0.1799258423,0.4278103638,0.8399564455
23825,23.42334117,8.521928558,-7.575297089,-6.220763855,12.98869875
10790,36.6900215,-4.913681946,-7.855214996,0.1064286804,9.266067125
26252,47.83037929,8.543184357,-2.613265686,-4.994513855,10.23524915
80702,70.435853,8.004005585,-1.58310791,2.446961517,8.518095839
90168,3.315178292,8.41759552,-6.769073639,-1.583706665,10.91716076
93445,36.19599342,8.050409088,-5.992937622,1.040635986,10.08996091
24890,34.13350058,9.631121979,-8.041577454,-5.425467682,13.66971756
43595,27.74318771,-3.424728241,-8.999734955,-3.707190857,10.31829719
39619,45.26681813,-4.982987823,-15.5218222,-8.769513702,18.51111836
166538,38.78785921,-3.371139679,-3.956272888,-1.530716858,5.418465835
154604,57.87712217,23.97519333,-14.91378662,-11.00631226,30.3046174
217213,58.20101342,-1.226848755,-0.3800596619,0.4619393921,1.364914362
190627,34.71777408,2.06989563,-4.215234375,-1.938468933,5.080386851
173573,48.62144188,8.5439328,-2.651286621,-1.345402222,9.046447677
111562,80.08453892,9.381441193,-4.202361145,6.155649261,11.98179018
12574,54.63080879,-3.699706421,-10.25143204,0.5694158936,10.91347428
213166,17.59678675,0.692460022,7.259603577,0.9372010803,7.352529554
29718,18.646535,2.585423584,-9.253307648,-0.2499801636,9.610962887
97399,75.86980917,7.556735687,-2.324516144,-0.1360670471,7.907347456
107260,36.91729029,10.04396347,-5.049748993,5.09450592,12.34241296
63214,6.7851235,0.4531077576,9.794582062,-0.8261320496,9.839798706
78109,44.41841087,7.071444855,-0.6155200195,-0.1565744019,7.09990935
18077,39.22821279,0.9090596008,-9.234446869,-6.132597198,11.12250632
200846,70.50105875,2.029030609,-7.614365845,-3.077450409,8.459682822
160495,50.98499625,46.01461212,7.000941467,-0.2616558838,46.54488343
169346,6.633484417,0.4047583008,-0.01077758789,-0.5122348022,0.6529394544
211027,89.38654217,-8.297245789,3.966451721,-5.701194305,10.82038093
3196,32.13897229,-1.437161407,-10.20742355,2.883004761,10.70367437
163842,12.00707029,0.01945953369,-3.310815125,-1.440454559,3.610648806
159372,39.69218075,-1.238674164,-0.2495310974,-1.169068909,1.721424284
174885,61.65382813,-0.3812571716,-0.7228468323,-1.111139374,1.379309712
181228,56.97789908,-9.955347748,-20.79610428,3.087329865,23.26195408
82798,91.46647037,9.788295135,3.155288544,4.576882324,11.25674994
34098,62.69348025,4.953948212,-8.388855286,-2.874472504,10.15761232
161981,65.92807762,9.920919342,1.448837128,2.515369263,10.33686858
187629,4.937796167,1.652413788,-9.112450562,-1.284628601,9.349732467
112066,85.14167046,9.908794556,-7.449857941,5.324577484,13.49206131
220190,8.358348875,1.654060364,1.463057556,-4.308490448,4.841440182
171164,24.69220775,0.8114625549,-0.1889071655,-0.3291654968,0.8958277287
24851,33.74129858,10.15937347,-2.090402985,0.1020877075,10.37270823
134952,3.942521458,-1.479074249,-6.766678619,-0.7012916565,6.961853931
37396,23.18462846,-1.532962189,-7.316335602,-0.2146536255,7.478289637
127814,5.331034375,-1.224154358,-9.850415955,-1.12565918,9.989812659
198969,51.66947925,-1.671723633,1.773661652,-4.091292114,4.762269073
13215,61.07702775,-3.400478668,-11.13938553,-0.6415658569,11.66450907
190030,28.78761658,-0.5680686951,0.2088157654,0.4093986511,0.7306937264
68577,60.59485975,-1.326990509,11.53710846,-4.139641571,12.32892565
211898,4.874827917,-1.845961304,-11.95354248,-2.318528595,12.31545069
176612,11.12607446,2.049837341,-1.445244598,-0.773890686,2.624780347
61116,42.41825208,4.33753006,-11.73634415,-5.583988037,13.70171023
95696,58.78215233,9.460327148,-4.912783813,-0.9157955933,10.69915493
187089,56.05490621,-1.390907593,3.745960236,7.555987244,8.547501696
20572,64.31869038,0.7451504517,-7.140301666,-3.475622406,7.976158737
104272,6.933616917,10.23391846,-7.571255493,6.002667389,14.07440985
173016,43.08862479,-1.987417145,-0.04745132446,-0.1637594604,1.994716946
16679,25.16959092,0.6466552734,-10.02824615,0.04610412598,10.04917955
174563,58.45533479,-1.162781982,-0.2734812927,0.0002993774414,1.194509961
108542,49.78139171,15.67510345,-4.916526031,5.513634338,17.32862545
151641,28.08071517,4.378395081,-6.071973267,-5.425317993,9.24517594
39223,41.33313796,3.496129761,-13.95353348,-0.726738739,14.40319996
42702,18.87229533,-1.900597687,-4.589456177,-1.250649261,5.122450892
99304,94.98437292,8.626411285,-4.478836212,-0.9598040771,9.76709626
233595,65.65657771,9.03072052,-0.5837860107,3.566184082,9.726889951
182990,15.33850842,19.17452637,-22.39388168,4.112098846,29.76672228
105926,23.53115867,13.08967987,-5.457950134,7.028484192,15.82809303
26611,51.44063267,10.58957886,-3.256029053,-4.695136414,12.03267267
161850,64.61075488,11.74936707,4.414470062,-1.045126648,12.59473946
14356,1.80900375,9.71868988,-3.380270691,-1.152752838,10.35412971
45028,41.97834896,-4.106111298,-11.85355042,-2.073488159,12.71480085
149052,2.044592292,-0.180075531,-0.1327738953,9.599687347,9.602294167
147075,56.80002133,-2.107018433,-0.07514373779,-1.179996185,2.416105183
209683,75.90263367,7.05917038,0.09445358276,-0.9131011963,7.118606726
213825,24.20860229,-3.658542023,-1.579066315,1.0776091,4.127907646
221514,21.64188113,-7.15392334,-12.42685822,-7.192992096,16.04196246
36853,17.79075246,0.776585083,-13.30388443,-1.405427399,13.40043475
160995,56.01295613,42.81082443,5.288352814,0.01392105103,43.13622095
122056,87.18983692,-15.59741501,-3.683689728,0.859662323,16.04954654
70567,80.56166787,-0.245489502,6.683302002,-2.494861908,7.138005792
86902,132.6447551,7.001091156,0.6703060913,-1.280886383,7.148794133
128903,16.28143442,-0.7879614258,0.7379653931,0.7210505676,1.298225732
113437,0.7073462917,-10.17539017,-2.850671997,5.407804413,11.87051997
169557,8.72941175,0.5183720398,0.04116439819,0.9416917419,1.07572646
64077,15.44404096,-2.635419617,14.35065765,-2.393372955,14.78563647
21012,68.74348663,0.2065704346,-9.369765472,-3.854185181,10.13360349
146107,47.0656745,0.168848877,2.191442871,1.008452911,2.41824504
150629,17.90367871,11.64638123,-8.008945312,-9.171727295,16.84939115
154939,61.24589071,6.354136505,-2.259251862,-1.839524689,6.990216075
96593,67.78251354,10.64571213,-9.659562836,6.126459961,15.62599925
166816,41.54936604,0.02185455322,1.736089783,-0.1927990723,1.746899206
37386,23.08529346,9.459129639,-16.91497513,-1.091530151,19.41089785
184227,27.62591104,16.93892532,-19.43094315,4.69438797,26.20164157
9539,24.10935437,-5.305567017,-8.33915863,0.1564247131,9.885093663
59213,23.51466321,1.173709259,-12.40769806,-3.107537842,12.84466255
67788,52.67839325,-1.185834045,8.288563843,-0.8930429077,8.420452398
196774,29.64759163,-2.337539063,-10.42701691,5.065017242,11.82544587
20991,68.53230304,0.8819659424,-7.645950165,-2.461181946,8.080583792
136644,20.95705283,14.13675247,-79.50027832,-11.19312378,81.51949487
102312,125.1664524,5.430706787,-6.525081024,-1.457668762,8.613597204
117951,46.00071992,-4.794679413,-1.064137115,0.4781057739,4.934564176
194920,11.04696712,7.054979095,10.27643005,-16.58281586,20.74530131
110687,71.30474708,6.895710297,-8.656648407,0.003891906738,11.06744764
167005,43.42679217,3.583547974,-6.514602814,-1.715432739,7.630502957
51,0.5135003334,-0.8379574585,5.27009079,6.709796906,8.573062705
189582,24.33751254,-0.4037104797,0.9084608459,0.04400848389,0.9950979885
135420,8.648676625,-0.2724334717,0.7987390137,0.2906954956,0.8925849425
145387,39.82522083,-2.692001953,-19.20147034,-5.277575226,20.09467934
73466,109.6491431,-0.8361611938,11.33847153,-3.42712326,11.87456424
191445,42.84317729,0.7677534485,0.06885681152,0.01392105103,0.7709607083
10221,30.96787642,-4.275409241,-10.58344162,1.578916626,11.52307851
78200,45.33148117,7.271878052,-0.7291337585,0.4664300537,7.323209913
8210,10.74429667,-6.017935638,-7.376809845,-0.8541238403,9.558368081
180111,45.88248567,-10.66666855,-24.11799637,3.395838318,26.58923249
11869,47.54097792,-7.248077545,-11.57707535,-2.706821136,13.9244455
122473,91.37396017,-6.497987366,-4.104165344,1.268013153,7.789471762
53946,23.51437683,13.92883484,-5.227429504,2.992876282,15.17549893
52280,6.965164833,4.663851471,-6.449188843,-0.7243437195,7.991759575
19435,52.88464563,-1.40063736,-9.306447144,-4.331991577,10.3604003
159239,38.35473817,22.90237427,7.37037323,-2.282902679,24.16718422
74414,7.343533792,9.442214813,-4.128863983,0.4950205994,10.31736322
66196,36.70502812,-0.819994812,8.837771759,0.3234773254,8.881623654
90477,6.415628208,8.984616394,-3.463946686,-3.236719208,10.15867165
16859,26.97971075,-0.4788542175,-7.958500214,-3.180436249,8.583833744
121752,84.13953767,-14.60946945,-1.492845612,2.521057434,14.90036631
5201,52.30105342,-0.4797523499,-9.464518433,-0.6098318481,9.496271182
77855,41.8698375,8.166717224,-0.3198847961,1.327738953,8.280126039
231783,47.47775104,-7.826175385,-0.6509962463,-1.16308136,7.938864876
229547,25.04522296,50.17835358,-3.631298676,6.120322723,50.68048784
105733,21.59446379,9.72452774,-9.255103912,7.836803284,15.54473782
115490,21.30716708,-9.1769664,-1.772314453,-1.196761322,9.422847154
32301,44.62215404,6.306685181,-10.34813095,-2.620899811,12.39867767
204467,23.572572,-16.35304367,-1.54808075,-1.699715424,16.51386157
26038,45.67830404,9.584568787,-5.471571808,-4.173171844,11.79904319
83035,93.84445775,10.06866211,1.026265869,-0.2902464294,10.12498994
145085,36.78824388,-6.881489868,-7.732619934,-10.02749771,14.41176687
194733,9.170854917,1.011895752,15.82119965,-10.21116577,18.85741758
129465,21.93265213,-2.969375153,-9.577533417,0.2586621094,10.0306152
138419,38.80613546,0.02320175171,1.189725952,0.6179150391,1.340822568
43464,26.44185862,-0.5200186157,-11.68051025,-0.4809498596,11.70196787
94468,46.46059854,9.507628784,-4.986580353,-0.2210902405,10.73824332
97533,77.21434954,11.71523804,-9.951755219,-4.650379486,16.05958479
214269,28.66330629,0.7670050049,-9.574988708,-3.986959076,10.40021866
48824,23.76949246,-5.010380859,-3.324586487,-6.397246857,8.779610413
76464,27.91286262,7.968379669,-0.4445755005,7.432643738,10.90582023
55106,35.0371885,14.5982428,-2.343526611,0.7536827087,14.80435231
35938,8.7016335,2.711311798,-3.851640472,-6.735094299,8.218749371
42447,16.33917533,-0.8288264465,-12.55379425,-7.088808746,14.44077258
171675,29.76811329,-0.5170248413,0.6315367126,-0.4366419983,0.9256400708
92433,26.04176992,9.08101593,-4.061054993,2.256707153,10.20047769
29234,13.77924492,3.091221771,-8.819958801,-1.084494781,9.408690357
209645,75.52139267,-2.954555969,-0.423918457,0.8855584717,3.11340997
150449,16.09352258,-0.02724334717,2.663561096,-0.739611969,2.764475679
139814,52.83401246,0.6979985046,-18.69417526,0.06601272583,18.70731804
116490,31.34113308,-4.899311829,-1.387614441,0.5525010681,5.1219125
11136,40.16956842,-4.910388794,-9.087452545,0.2906954956,10.33335453
124439,111.100585,-11.34071686,-4.931195526,2.149979095,12.55193046
99758,99.53976529,13.11303131,-10.01896545,4.686903534,17.15512529
126138,128.148196,-7.012168121,-1.470991058,2.496658173,7.587332765
78644,49.78646329,8.40472229,-3.252286835,2.724484406,9.414857498
5830,58.62624554,-1.569935303,-9.583221588,1.306333466,9.798435589
221781,24.32065154,-5.116061096,-7.01231781,-1.680405579,8.841405155
24447,29.67848192,5.02430191,-5.260959778,-3.86601059,8.238163955
150743,19.05010867,5.155728607,-0.01272354126,-9.218579865,10.56238203
102587,127.9257974,4.766687622,-5.853727112,-6.090085602,9.699307946
152438,36.09555354,19.08441376,-14.47819244,-12.84927979,27.18339375
135176,6.195041083,2.574047241,-7.849826202,-4.008065186,9.182051902
101215,114.1591931,12.89942551,-8.502319336,5.569168854,16.42255322
117129,37.75282658,-7.172933807,-0.2318678284,2.66191452,7.65444518
16186,20.21187463,1.110241241,-6.352789307,-2.37406311,6.872171654
159249,38.45529817,-0.6944059753,-0.5120851135,-2.736160126,2.868972474
104248,6.692778917,14.08540924,-2.166744232,4.710254974,15.00933163
47843,14.02480121,-3.18492691,-10.5943689,2.527943115,11.34790325
117915,45.63949792,-12.32237549,-1.409169617,4.351900177,13.14403788
61268,43.92815508,0.6170169067,-7.124284973,-1.394051056,7.285569613
123360,100.2740111,-4.868176575,-2.232906647,1.284029846,5.507608183
11574,44.574312,-2.510579224,-7.721692657,-1.785936127,8.313670272
106207,26.35089754,11.80684753,-6.197711792,3.046015778,13.67813921
234091,70.63269942,2.175725555,0.0477507019,1.990111542,2.949000809
80920,72.62319912,11.35583542,3.273692322,8.67386261,14.65973915
878,8.829604583,0.4959187317,-7.300019531,2.545007629,7.746824148
82538,88.85770879,7.893984375,0.1137634277,0.7605683899,7.931355225
174368,56.51835704,25.98715942,-1.931283875,11.60596527,28.52649194
189490,23.42365246,4.044140167,-2.093845825,-0.9129515076,4.644646433
24681,32.03169804,6.267167358,-4.981940002,-2.755320282,8.466929948
104318,7.395221917,9.091494141,-6.692283325,1.658551025,11.41020216
133240,59.89315204,0.9614506531,3.147654419,0.07469467163,3.29206546
133039,57.871897,1.071621552,2.970572662,-1.560055847,3.522278941
12800,56.90357804,-2.072290649,-10.95751373,-0.1752854919,11.15312605
123722,103.9062813,-8.448581085,-0.6262976074,3.188220062,9.051824027
12555,54.43973479,-7.982001343,-12.12553482,-2.617906036,14.75108037
200271,64.73218588,1.058748322,-4.102668457,0.2549198914,4.244740349
141752,3.27039025,5.122797089,-2.358495483,0.3179388428,5.648595937
128435,11.57546404,0.8104147339,5.828429718,0.1910028076,5.887601132
220031,6.763117625,32.94873276,1.987267456,16.99146606,37.12516857
83917,102.6941809,6.836583252,-1.375639343,-0.7231462097,7.011005249
102222,124.2633938,10.47716263,-1.556762695,-3.190016327,11.06212687
198424,46.20161629,-0.1519340515,5.83052536,-1.501078491,6.022569764
160040,46.40954925,-2.793191528,-0.04026626587,-0.3022215271,2.809782578
164004,13.61631117,-2.524799652,4.32929718,1.685195618,5.287467411
6917,69.55711008,-1.080153809,-9.800569611,-1.84057251,10.0302345
184414,29.48342629,0.5671705627,0.9391470337,-1.849404144,2.150343063
179128,36.11812046,-7.771838379,-21.74782516,7.126230927,24.16924778
11311,41.92945425,-5.397176514,-10.21071671,-2.376308441,11.79131425
33269,54.3567315,1.94355835,-11.63710052,0.5764512634,11.81235894
124443,111.140721,-9.393865356,-2.901566162,-1.881437531,10.01017481
218092,67.02025612,-4.929998016,-6.784341888,-4.37614975,9.459538146
99813,100.0916303,12.26699066,-7.947722626,0.307610321,14.6198488
94259,44.36352792,1.627116394,-0.6896159363,2.026485901,2.688814424
144613,32.04169783,-0.6641688538,2.456840973,1.335822144,2.874301416
160552,51.55818325,-1.240919495,-0.520916748,-0.8485853577,1.591016203
221941,25.92590442,-0.3861968994,-3.279679871,2.443668365,4.108158125
187779,6.427794458,0.05044509888,1.552870789,0.2192939758,1.569089622
49557,31.05067987,-3.941304016,-10.79779587,2.040257263,11.67428467
116770,34.15063904,-7.977510681,-0.9933343506,4.525389404,9.22532054
198633,48.2984645,-3.211122437,34.79199966,-13.87120468,37.59261719
71097,85.87947537,-1.689386902,9.511520691,-2.773432617,10.050621
223265,39.20931992,53.54575104,-16.27924713,27.09500565,62.17958405
2615,26.29652042,-5.317093048,-14.22836197,-2.864593048,15.4571555
132571,53.16572175,-1.849553833,-0.6176156616,-1.389111328,2.394144684
81609,79.53641154,8.802295532,-0.4709207153,1.74462204,8.985871077
151333,24.98336833,21.96592163,-11.16408417,-10.97218323,26.97271386
62743,2.059338833,-3.518882446,7.877668304,-1.891466675,8.832770673
183653,21.92423667,7.178771667,-5.156327362,0.3025209045,8.84386756
58016,11.62418262,3.537443848,-12.5584346,-2.124082947,13.21890756
13869,67.65398467,-0.8876541138,7.42306366,6.171665955,9.694290308
200125,63.267395,1.621877289,-8.627459106,3.857478333,9.588726488
232864,58.32283942,32.6694136,-4.922363892,7.046895905,33.78134091
117905,45.53915929,-7.361990662,0.5752537537,2.827320557,7.907184386
26835,53.69326754,8.311615906,-3.429069214,-4.292922821,9.963466314
190971,38.13481492,-0.9324110413,-0.1203497314,0.646355896,1.140898923
91027,11.93422754,7.508236542,-2.978506165,-0.8243357849,8.119399265
135147,5.903420083,-0.3014730835,0.5677693176,0.7595205688,0.9950474926
118895,55.47272942,-11.62258072,-1.821262665,7.48383728,13.94306999
21721,2.264402333,-1.840722198,-2.451751556,10.06147705,10.51820633
63318,7.828608208,-1.2461586,9.30330368,-0.7153623962,9.413613227
230080,30.39250542,2.449057159,0.4751119995,-0.3459306335,2.518586982
233038,60.06848746,1.050814819,-0.2579136658,0.07409591675,1.084537435
42596,17.81931125,-1.576970673,-5.390739899,0.03412902832,5.616767571
68513,59.952713,-1.082099762,6.813231812,-3.173700256,7.593644772
43877,30.54452325,-0.6842271423,-7.614814911,-4.915777588,9.089468753
72646,101.4215581,-0.7265890503,9.280251617,-4.112248535,10.1765215
6236,62.70897271,0.1977388,-8.04906189,1.375789032,8.168187889
167011,43.48639317,-3.681444397,8.487949219,-0.6322851562,9.273516016
232326,52.92537429,8.229885864,-1.927242279,2.690205688,8.870315146
116442,30.85950308,-6.846762085,0.2242337036,1.138981476,6.944473386
26817,53.51225254,9.16409317,-3.486399994,-6.033203888,11.51239062
34163,63.34714504,0.3830534363,-8.617579651,-5.412744141,10.18367361
156546,11.27393104,3.161874847,-8.247998199,1.982327728,9.052985699
123179,98.45787717,-13.65834732,-2.056723022,0.1216969299,13.81286977
32989,51.54094304,4.192930756,-8.878487091,0.8514294434,9.855614311
15931,17.6475415,-0.8153544617,-7.247927856,-1.924098816,7.543170246
188819,16.75842342,5.564827881,-8.159831543,4.188440094,10.72814945
219167,77.80605417,2.040257263,-13.40043365,0.9273216248,13.58654471
130594,33.28545875,1.337768097,2.74035141,-0.1775308228,3.054613973
120612,72.70091329,-5.765410767,-0.8951385498,-1.031205597,5.924915131
76879,32.07688175,10.66053131,0.9313632202,0.4658312988,10.71127276
169327,6.444751417,-0.7258406067,0.01032852173,-0.3796105957,0.8191797538
75764,20.88920354,9.757159882,-3.552113342,7.569010162,12.84949777
220565,12.12068512,3.920646973,-7.563771057,1.660047913,8.679738727
52813,12.25972758,8.745563507,-5.939049683,-0.3094065857,10.5760543
31286,34.41493012,2.906805267,-9.320966949,-0.0004490661621,9.763705338
59936,30.69663346,-0.2447410583,-8.455766144,-3.182232513,9.038057481
165759,31.04966796,-6.728807373,-16.52054535,-3.444636841,18.16785046
42676,18.61401633,-2.424807587,-12.6566304,-5.315895538,13.94018401
174212,54.968774,3.638034668,-0.6161187744,0.4797523499,3.720895175
41142,3.375575333,-2.608775024,-8.188422089,-0.6701564026,8.620039039
104225,6.461975792,8.610095215,-4.794380035,1.885928192,10.03377021
92806,29.78438279,9.338181152,-3.383563843,1.585652618,10.05805278
193507,63.32554017,17.09789474,3.922892303,-5.332810364,18.33482902
73118,106.1574355,-2.959944763,16.62981812,-3.722758484,17.29656192
116316,29.59522433,-8.083490295,-7.532785492,-0.8945397949,11.08539012
167477,48.11538854,-0.1097218323,-1.153201904,-0.2195933533,1.179039759
40436,53.38251833,1.15604599,-10.92398346,-2.033221893,11.17156427
14603,4.29289075,-0.6051914978,-5.945486298,-2.239792328,6.382141783
56139,45.2984185,3.560645599,6.353837128,6.11253891,9.508552742
70388,78.765655,-0.7791297913,10.41848465,-0.4427792358,10.45695554
2136,21.47977979,1.763782196,-11.60072617,0.9045689392,11.76885807
30501,26.52067713,2.069296875,-8.046068115,-1.635199585,8.467294689
88582,149.5013619,8.844208374,-0.2764750671,-0.7158114624,8.877434667
212714,13.06182892,-4.142635345,-21.45638123,-8.870852966,23.58452364
24533,30.54333904,8.478219452,-6.995702362,-5.981411591,12.51388594
126880,135.5933918,-10.47461792,-4.97640152,3.297492828,12.05635316
15767,15.99832175,4.752616882,-10.76905563,-0.6581813049,11.78953473
81610,79.54644554,8.096363525,0.08502319336,1.241967316,8.191508658
202041,82.49030837,-1.025517426,4.354145508,7.602690125,8.821063781
77198,35.27765504,10.30831375,0.9686357117,-1.935924225,10.5331567
202802,6.868422375,-7.783663788,2.384092255,-1.528621216,8.282873937
58314,14.58438612,-0.2811154175,-7.467072144,-3.109932861,8.093693513
177418,19.13227971,-0.4670288086,-6.597829742,-1.148860931,6.713371333
72441,99.36466321,-1.262923737,8.574768677,-2.298619995,8.966899582
197272,34.64388904,-0.716559906,-3.114273834,-7.127727814,7.811316368
212147,7.373067875,-0.4146377563,-12.50993546,-11.03400467,16.68591228
13696,65.91420837,-1.642085266,8.077502747,5.269042969,9.782908997
145840,44.38067683,-3.1253508,-15.24564651,-1.8791922,15.675743
154294,54.75974679,1.568438416,1.131646729,-1.196312256,2.274156194
49807,33.53403183,0.8231382751,-16.8901268,-5.662724304,17.8331261
231912,48.77193821,-3.422333221,-1.603914642,-0.6547384644,3.835829678
231920,48.85219721,-0.2944377136,-1.039887543,1.696272583,2.011318062
99020,92.13474492,10.35052597,-10.05324417,4.95993576,15.2578527
189195,20.49333679,7.073390808,-10.74061478,-0.3685336304,12.86582607
224265,49.24204687,0.6433621216,-6.997498627,1.947150879,7.291796651
195554,17.40769067,2.138453064,15.67645065,-3.217858429,16.14554736
126441,131.1884825,-6.323749695,-3.734733582,1.791923676,7.559698115
140301,57.73125021,2.491718445,-5.833219757,-0.2848576355,6.349508439
203421,13.07854442,-37.32727753,-5.358107758,5.463338928,38.10358301
48690,22.43841587,2.224224701,-3.639980621,-1.323547668,4.466364615
100507,107.055166,0.3354524231,-1.293909302,2.356399841,2.709123442
46465,0.3365079584,-0.6348298645,1.06249054,14.62368988,14.67597359
97623,78.11739858,10.6249054,-3.467688904,-0.9635462952,11.21792773
185614,41.40332417,2.978506165,-0.5813909912,-4.853207703,5.723909456
230560,35.20807304,0.1481918335,-0.3918850708,-1.223256226,1.293016056
191943,47.78993771,-0.2435435486,-0.1314266968,0.1908531189,0.3361716075
168927,2.471424875,7.597151642,-35.56738724,-6.09966568,36.87765813
189549,24.00971546,-0.08442443848,1.572180634,1.076710968,1.90740293
182349,8.971299667,18.5636467,-17.64276169,3.167113953,25.80516672
87836,142.0162231,8.10055481,1.328188019,0.623303833,8.232349562
37149,20.73105837,2.964734802,-7.808362427,-1.247206421,8.444862349
76052,23.77893979,9.103020172,-2.307301941,5.993985443,11.1407576
152433,36.04527254,3.356170807,0.1345701599,-1.30109436,3.602060264
133882,66.34915775,-0.7762857056,-12.44272522,4.516258392,13.25973681
88549,149.1702545,7.939789124,3.001558228,0.2312690735,8.49135375
101017,112.1724718,6.311624908,-2.891686707,3.305426331,7.689233006
141225,67.02305513,-2.025887146,0.9639953613,10.17030075,10.41482228
158696,32.89435125,-1.238674164,0.2151026917,-1.187031555,1.72905372
86785,131.4708129,11.33068771,1.032852173,-6.002068634,12.86375122
98447,86.38532083,7.509284363,-5.096302185,-2.644700317,9.452834885
39808,47.14425575,-3.127147064,-15.57481201,0.2010319519,15.88692015
32829,49.93192242,3.693120117,-8.730145569,-0.2001338196,9.481277941
16127,19.61855763,0.1460961914,-9.84397934,-0.6960525513,9.869638417
166110,34.53632579,-2.640958099,7.386389923,-1.099313965,7.920978915
228672,16.26686533,6.61100235,-0.06765930176,3.978726196,7.716229131
111772,82.19168054,10.00160156,-5.568719788,4.253704376,12.21215275
161894,65.05321487,8.468789062,0.3908372498,-4.3117836,9.511289069
142707,12.87431246,0.2436932373,-19.11734528,-6.393504639,20.15959271
63724,11.9022135,-1.367256775,7.292834473,-2.00552948,7.68615471
119011,56.63666129,-8.74286911,-2.625839539,1.715133362,9.288405461
51558,50.93428108,-3.737577667,3.752097473,6.93507843,8.725997656
10487,33.64290379,-6.32075592,-8.016878815,-2.077679443,10.41820777
180666,51.39542629,-0.3872447205,-0.8677455139,-0.5480104065,1.096930333
39463,43.71718583,-2.82926651,-14.17297714,-1.149908752,14.4982868
174684,59.65725188,-1.551074524,0.1492396545,-0.4728666687,1.628406442
174444,57.27328162,2.806513824,-2.055375824,0.1484912109,3.481829873
196937,31.282926,0.7397616577,26.50957306,-16.0514209,30.99923909
197705,38.98806504,0.3456312561,16.92949493,-2.140997772,17.06783909
88733,151.0164517,10.25008484,-0.9217831421,-0.4281097412,10.30034957
29663,18.093434,2.110760651,-9.523196411,-0.200433197,9.756369913
202088,82.96185237,-0.686023407,4.514761505,8.941955109,10.0405309
67818,52.97939925,-3.044219513,17.08816498,2.5122258,17.53807097
36258,11.880342,2.221230927,-14.17731812,0.03532653809,14.35031232
104620,10.42575529,4.565505981,-6.869215393,4.692891083,9.489636015
20289,61.47274717,0.08337661743,-9.445358276,-1.187181244,9.520039072
225949,66.13705567,56.52665222,-5.30751297,26.37694885,62.60331889
126463,131.4092295,-7.957153015,-1.77156601,4.805457001,9.462935444
24687,32.09203704,6.212381287,-4.893024902,-3.342249756,8.585220287
167170,45.06581542,-1.682650909,-23.17720276,1.381477203,23.27922939
174603,58.85266279,-2.813698883,-1.135987701,-0.8557704163,3.152730954
21430,72.947049,3.626957703,6.724765778,5.7848703,9.583424301
90823,9.887329292,11.4742392,-4.332290955,-2.745141449,12.56832175
163329,6.911140542,-3.049458618,8.415499878,1.964065704,9.163917838
180490,49.64717758,-10.57416092,-23.57567413,6.574328613,26.66171575
86416,127.7683807,12.38255035,3.132984924,4.671485596,13.60021785
96888,70.74250183,11.3493988,-4.945565643,-1.229543152,12.44103087
144988,35.81278933,0.5083428955,2.522254944,0.03487747192,2.573207908
83568,99.19242075,7.093898163,-0.7902067566,1.728904724,7.344176564
207991,58.92740562,-0.69620224,-0.7827223206,0.9300160217,1.400814617
79197,55.33511762,13.39699081,-4.526586914,-0.7042854309,14.15857938
9990,28.64482788,-5.566324768,-7.143445129,1.39943985,9.163580721
14066,69.63511662,-0.2616558838,6.711443481,6.783593445,9.546155112
29116,12.59259192,6.158044281,-7.828720093,-0.330662384,9.965927216
41435,6.286173833,-1.245410156,-7.843838654,0.5155279541,7.958807722
102049,122.5275165,7.004983063,-4.882846069,5.971981201,10.42000638
107806,42.39609904,13.05330551,-2.153272247,4.651427307,14.02359234
231714,46.78551158,13.06797501,1.269809418,2.738704834,13.41211732
138592,40.54578958,0.1745370483,0.7125183105,-0.7420069885,1.043417412
42251,14.39215108,-2.10851532,-6.15819397,1.411414948,6.660426561
72525,100.2074882,1.754950562,10.83626587,-1.23328537,11.04651539
80626,69.67329187,11.46166534,-0.6562353516,-1.770817566,11.61620472
181107,55.77597754,-11.38277939,-25.59542404,4.090094604,28.30940254
147513,61.20460125,-4.337230682,-14.72278381,0.6798861694,15.36340387
883,8.879882583,0.8192463684,-8.552015991,0.9999206543,8.649160852
129572,23.00859863,-1.468296661,1.917512512,-0.2412982178,2.427132907
112738,91.88448367,10.84554657,-7.512577515,4.991071014,14.10586726
174406,56.89581904,34.37781097,-5.896538086,6.085295563,35.40669246
81325,76.68684504,7.498806152,-0.3213816833,3.326682129,8.209883914
64654,21.23337208,-0.2857557678,6.497687988,-2.927312622,7.132374411
47555,11.16396933,1.075513458,-6.008804626,1.888921967,6.389873898
136884,23.37045446,-0.09310638428,-0.5373825073,-2.436782684,2.497070005
96424,66.08679129,3.854185181,-1.056952057,5.88785614,7.116090288
15089,9.180212042,2.900368652,-12.52999374,-6.474935303,14.39922459
203251,11.3730165,-38.14682327,-5.93111618,-3.326382751,38.74820108
72358,98.53187137,-1.769470367,7.072941742,-2.029479675,7.568111919
143526,21.11049388,-6.476881256,-35.48266342,-10.898237,37.67945016
213239,18.32920312,-0.6777905273,-3.482657776,-4.530179443,5.754201158
87480,138.4442291,6.282285919,-2.63736557,3.262615356,7.554301588
204893,27.84643904,1.004860382,0.6439608765,4.49081131,4.646699497
229141,20.97206254,-3.583547974,-0.7334747314,2.762355652,4.583711379
162364,69.77948525,7.403304749,4.576582947,1.786534882,8.885141504
87696,140.6115059,5.056634674,4.580025787,2.751578064,7.356451066
163249,6.116452333,-2.530637512,0.2080673218,1.687141571,3.048584083
70830,83.20050296,-3.266207886,5.203628998,-3.645519104,7.143925968
39266,41.76027996,2.348765717,-12.36623428,-6.091283112,13.98371126
29938,20.858937,3.353326721,-8.866511993,-2.366878052,9.770462975
235220,81.95942517,-0.8746311951,7.486681366,6.123615875,9.71154205
15107,9.361224042,0.4023632813,-10.94643677,1.947300568,11.12557206
3470,34.89428142,3.110232239,-11.8828894,0.3246748352,12.28747407
87405,137.6917012,10.2360141,0.1663041687,-1.92125473,10.41608667
72942,104.3915157,-0.2164498901,9.481283569,-0.5912704468,9.502167617
16199,20.34260563,1.605710907,-10.03363495,-4.816384277,11.24498534
5752,57.84188079,-1.708547058,-11.57647659,-0.7861651611,11.72825644
20260,61.18111317,4.300706635,-6.266867981,3.180436249,8.239228518
202501,3.8486395,-3.388204193,-8.297694855,-2.433639221,9.287317558
73527,110.2611951,-11.40972336,6.618935852,1.247206421,13.24943858
138959,44.2362695,0.6536906433,-5.345234528,-8.765023041,10.28710224
110952,73.96377704,14.0301741,-6.994953918,1.918859711,15.79421376
194070,2.519180167,-8.386460266,7.763006744,-0.6008505249,11.44368869
120119,67.75420654,-15.51418808,-0.4992118835,3.247945862,15.85838569
230651,36.12102429,0.4379891968,-0.8665480042,0.2496807861,1.002537019
135311,7.552587958,-0.6601272583,1.339115295,1.882335663,2.402537267
148719,73.33374662,1.33267868,6.096222839,7.663912811,9.883092884
224882,55.43221487,33.09213455,11.89411606,19.81549347,40.36351258
144381,29.70864325,-3.911665649,-18.95134048,-3.347039795,19.63815444
26322,48.53432821,7.463629303,-5.074896698,-5.965245209,10.81871015
114545,11.82504417,-10.62295944,-1.988315277,5.399272156,12.08109286
205443,33.364349,0.5596861267,0.5599855042,2.215093689,2.35233339
223789,44.46647629,42.06657211,-4.595294037,14.2333017,44.64638948
229308,22.64747496,13.35762268,-4.143683167,6.226601715,15.30904186
195360,15.46134829,1.662442932,1.631607056,-1.619631958,2.83708755
28147,2.847942625,2.870730286,-11.22680374,-0.5945635986,11.60326336
210489,83.98896125,-16.79103287,-4.197271729,5.888155518,18.28185576
83050,93.99496375,7.216792603,-1.355730743,-0.9416917419,7.403167204
100651,108.5000527,8.930429077,-2.458487549,0.5704637146,9.280202227
38536,34.50880808,5.713768158,-11.5564183,-0.6215075684,12.90675103
60124,32.56414383,0.08547225952,-7.692952423,-0.9617500305,7.753308043
140177,56.48431175,0.4602928162,1.070424042,2.094893646,2.39713506
199906,61.0702085,-0.8316705322,0.3924838257,-0.6842271423,1.146248756
15695,15.27427538,0.5812413025,-7.285649414,-0.8198451233,7.354636283
122595,92.59809254,-8.019872589,-1.828148346,3.669469299,9.006968839
182125,6.746248917,8.416847076,-6.583759003,0.0043409729,10.68593544
185244,37.72802042,1.987117767,-1.60765686,-0.8123606873,2.68200065
196364,25.53417925,-0.9768685913,-1.282233582,1.272952881,2.053972794
82842,91.90795337,8.502169647,-2.356250153,-0.5662724304,8.840784352
26358,48.89635921,8.685987396,-3.473526764,-5.003944244,10.60901613
190866,37.09182271,7.181615753,0.6560856628,-0.3513194275,7.220074692
104718,11.40916992,5.567073212,-7.759563904,4.468956757,10.54394189
69864,73.50805783,-4.917274475,9.006770325,-6.882088623,12.35575347
89053,154.234367,-1.400487671,5.598208466,7.439679108,9.415419745
81351,76.94772104,12.5066423,1.685195618,-1.811532898,12.74902496
98175,83.65610371,12.74165359,-10.36324951,6.568640442,17.68880194
118679,53.30540692,-9.743687897,-0.4173321533,3.120411072,10.23965748
46587,1.548389333,4.316274261,-9.075627136,-2.139500885,10.27495477
164689,20.42079742,-3.03164566,8.046217804,0.5671705627,8.617086445
18245,40.91766463,2.10147995,-9.744735718,-0.4131408691,9.977313144
142948,15.297908,-0.8731343079,4.49784668,0.6053411865,4.621625929
121613,82.74482783,-11.08624603,1.708397369,-2.240091705,11.43859622
30931,30.84491788,1.254990234,-10.48329987,-0.2092648315,10.56022577
34670,68.4457395,4.311633911,-9.36766983,0.479153595,10.32342062
78676,50.10754329,6.917864227,-0.7394622803,2.674338684,7.453572119
211763,3.520360792,-1.440155182,-9.510921936,-0.8178991699,9.654047963
229640,25.97823846,1.493144989,-0.03412902832,1.304836578,1.983241096
34966,71.42243462,4.478087769,4.897216187,6.55486908,9.327502618
140408,58.80724108,15.24429932,-78.67294876,-6.817423096,80.4257346
74947,12.69157204,6.309828644,-4.677473145,5.880222015,9.811712566
118466,51.16818542,-5.280269623,-0.433049469,2.309547272,5.779514489
156190,7.69397675,3.099454651,-12.99597473,-7.691754913,15.41638972
95930,61.13007179,10.22164398,-3.987258453,-1.174158325,11.03444079
234924,78.98979296,10.93281509,-1.63579834,3.47397583,11.58752735
204319,22.08775629,-13.36645432,-4.162094879,0.7078779602,14.01735446
228773,17.28013767,42.13288422,0.7912545776,9.014703827,43.0937455
71122,86.13031537,0.8991801453,9.012159119,-5.439239044,10.56469868
12723,56.12922804,-4.221970367,-10.69016968,-0.7099736023,11.51559048
111012,74.56582004,10.32822235,-8.025411072,3.426374817,13.52107408
179122,36.05852146,-2.675087128,-9.039103088,6.152056732,11.25652157
122033,86.95905792,-4.860392761,-1.583556976,1.517394562,5.332312514
211266,91.78435325,-4.779860229,8.171956329,1.590891724,9.599941174
45480,46.4684375,-1.957329712,-5.888005829,1.391955414,6.359032325
171000,23.06314838,1.39240448,-0.5239105225,0.3685336304,1.532673973
18623,44.71893637,-1.556912384,-8.998836823,-3.004102936,9.613931286
156508,10.89180104,40.42837875,-79.20359528,-7.55763382,89.24562254
76916,32.4481315,11.66554138,-3.376079407,3.358416138,12.60006853
45532,46.9849965,-2.767744446,-12.9817543,-4.989873505,14.18045104
58600,17.425385,2.146386566,-8.023016052,-2.31328949,8.621314872
80684,70.25524688,10.34498749,-0.1579216003,-0.9066645813,10.38584354
89533,159.0505484,-1.452279968,5.441933441,8.126001892,9.887146375
145527,41.23308958,1.400188293,2.904559937,-0.5260061646,3.26705956
19506,53.59864363,3.761527863,-11.95608719,4.384232941,13.27850184
217552,61.60228762,-7.910749512,-8.106093292,-14.98818192,18.78654581
9762,26.35194879,-1.87559967,-6.762637024,0.4105961609,7.029916276
118440,50.90730442,-12.03766754,-1.342707825,-0.7168592834,12.13351521
65481,29.53107408,0.7277865601,11.01783829,-2.580334167,11.33933676
113963,5.985249292,-8.048163757,0.5948629761,2.710563354,8.513163661
84753,111.0823499,8.123756561,1.753603363,1.60765686,8.464933904
17018,28.578651,1.794618073,-9.211544495,1.420995026,9.49170337
102818,130.2436487,8.29829361,-3.290756836,1.611848145,9.071318086
86168,125.2800244,8.55336319,-2.162253571,-0.6203100586,8.84421545
136079,15.27549521,1.208437042,-12.21430023,-1.160386963,12.32866368
35071,0.08930875,-3.511248322,7.761958923,5.841452637,10.3295421
183259,18.01054704,-3.010988617,0.1658551025,-5.165308685,5.981134857
52620,10.34256096,4.281247101,-7.785909119,-3.69042572,9.621262887
157884,24.72889017,4.940326538,-0.5108876038,1.573527832,5.209973348
228973,19.28661779,17.73931091,-3.218307495,4.622537384,18.61205273
53334,17.43508333,7.093598785,-2.796035614,2.760709076,8.109159851
14598,4.24260975,5.09450592,-17.14729202,-6.082301788,18.89386168
179601,40.81653992,-3.220852203,0.5554948425,-1.072819061,3.439971537
32710,48.73521238,3.124901733,-9.753417664,-0.4119433594,10.25006655
233831,68.02424704,1.624272308,0.09460327148,0.8976832581,1.858237214
165797,31.42714196,-2.257156219,-4.981341248,-1.831890564,5.767524414
119250,59.03476067,-12.06655746,-0.2782713318,3.934418335,12.6948372
226107,67.72220925,-1.958976288,-4.449197845,-1.801054688,5.184278884
203897,17.85402467,-30.49114334,3.424129486,6.9022966,31.44958161
207714,56.14837012,-6.242618408,3.553759918,2.849025421,7.727641296
1104,11.10220667,-5.262606354,-11.40927429,-1.881138153,12.70453644
93899,40.75134867,10.57026901,-2.056723022,1.802551575,10.91832811
93687,38.62417846,7.78695694,-3.122357025,-0.9916877747,8.448032695
167566,48.99946608,1.126407623,-2.3927742,-1.539249115,3.059975547
73073,105.7059215,3.025658112,14.19842422,-1.81482605,14.63022389
16801,26.39645025,-0.384250946,-9.428892517,-0.2948867798,9.441325177
17355,31.96760238,0.9550140381,-9.463171234,-0.4728666687,9.522986113
80092,64.315294,5.897436218,1.4239888,-1.289568329,6.202457942
152869,40.42977558,-0.8452922058,2.066901855,-1.244512024,2.556445261
176313,8.156024542,-2.882555695,-6.465504913,-1.584754486,7.254193814
215981,45.84008,-2.844385071,-5.210514679,-3.822451172,7.060532743
200128,63.297493,1.07177124,-6.045029297,1.164877625,6.248840906
86602,129.634648,8.830736389,1.998643799,-0.03083587646,9.054139002
83143,94.92809729,7.348069611,1.698817291,-1.079704742,7.618783992
59988,31.21317946,1.488804016,-10.6328389,-4.850662994,11.78145712
203444,13.30929154,4.649032288,-0.4013154602,1.686243439,4.961650153
155265,64.52414833,-2.510878601,6.330036621,4.81144455,8.338097722
325,3.268774042,-2.759661255,-8.968899078,5.193150787,10.72500331
124545,112.1641787,-9.509874115,-3.068169708,-0.4992118835,10.00502791
53745,21.51774833,6.418502655,-5.216053162,-0.6825805664,8.298813358
51701,1.213653,-0.8994795227,5.818400574,0.7981402588,5.94136992
102138,123.4205405,11.78095139,-10.29544052,3.647764435,16.06527611
31973,41.32366212,2.359992371,-9.395062866,-1.534608765,9.80774155
101554,117.560704,6.386469269,-1.289867706,-11.54893387,13.26003853
233374,63.43939854,12.08377167,-5.03492981,2.486329651,13.32478484
56291,46.80829683,8.756191406,-4.014352112,0.07544311523,9.632839793
212371,9.620479667,-0.2260299683,-8.275690613,-5.893843689,10.16245729
51146,46.83485512,-2.089953918,-9.146130524,-0.5420228577,9.397520935
77943,42.752808,14.20590866,-3.030747528,1.728156281,14.62804825
125630,123.050962,-8.155640259,-1.800156555,3.970193939,9.24756571
83349,96.99503925,5.329966278,1.307980042,-1.483115845,5.684978885
10984,38.64098075,-1.440304871,-8.369844818,-2.062111816,8.739627311
119453,61.07163883,-12.65243912,-4.339026947,1.656904449,13.47800812
214840,34.39222875,0.6797364807,1.985770569,0.1944456482,2.107874651
155292,64.79565933,-1.973496094,7.38788681,7.098987579,10.43413547
48633,21.87221033,0.2490820312,-8.721164246,1.996099091,8.950148559
148002,66.12203621,-4.971761169,-13.29116089,-2.755919037,14.4557413
226257,69.22710379,-1.358275452,-0.725690918,-0.5849835205,1.647344903
162883,2.480756417,-3.010389862,-12.38644226,-0.6737489319,12.76480852
199475,56.74607063,6.834038544,-4.900808716,0.5101391602,8.425096489
206864,47.62065342,-0.8036787415,-0.7629634094,-1.372196503,1.763784546
216322,49.2614035,-3.480262756,-2.360591125,-1.650467834,4.517594868
171584,28.864184,8.20114563,-3.626957703,-1.508562927,9.093369778
30883,30.362212,3.085234222,-11.37484589,0.1216969299,11.7864583
156700,12.82256004,-1.052611084,0.2005828857,0.5727090454,1.214997629
53987,23.92164883,5.322631531,-7.415579224,-1.063688049,9.189812506
82649,89.97145075,7.826923828,-4.377197571,12.78311737,15.61501473
96894,70.80270483,15.59202621,-1.234333191,-2.133213959,15.78560932
153331,45.07572167,10.8584198,-6.800957336,-4.219874725,13.48946418
62540,0.02253345833,-3.176095276,6.817872162,5.805227966,9.501138551
30745,28.97443162,2.443967743,-9.646988983,-6.643634491,11.96558624
23262,17.76152604,8.430917816,-4.894222412,-5.323978729,11.1075892
195325,15.11020475,-3.150947571,18.26546677,-16.40543472,24.75265713
126453,131.3088895,-8.353828125,-0.7740403748,0.9499246216,8.443218559
164034,13.91431821,0.5623805237,-5.344336395,-1.672322388,5.628042779
15693,15.25416338,-0.1164578247,-7.572453003,-0.3656895447,7.582172232
230509,34.69641804,2.299069061,-2.684966583,0.5351371765,3.575071454
214328,29.25526117,-5.873036957,-18.0154866,-11.78888489,22.31654381
202953,8.383330125,-24.42485825,-3.017125854,1.66858017,24.6670004
59094,22.33256883,0.2398013306,-12.6367218,0.1285826111,12.63965095
111991,84.38912208,18.4627565,-1.779349823,5.426964569,19.32592579
119210,58.63340567,-10.80093933,-2.163750458,-0.7337741089,11.03995158
87391,137.5512302,5.792354736,0.9470805359,8.572822723,10.38949587
163538,8.987262042,-1.613045654,7.272327118,0.8659492493,7.499235034
52225,6.418821833,11.10854965,-3.106639709,3.54417984,12.06699202
15442,12.73005379,2.886447601,-8.763226776,0.005987548828,9.226362183
223795,44.52667229,38.57598083,-3.881727905,17.64889893,42.59879977
228006,9.585300042,0.005688171387,-2.005978546,1.571132813,2.548026805
126777,134.5598934,-9.866432648,-4.62882431,4.809797974,11.91245836
71789,92.82273721,-3.080593872,4.259691925,-3.644321594,6.39657047
123537,102.0500102,-15.19475235,-4.063000946,3.504961395,16.1143796
187001,55.18077646,-4.993166656,-0.6828799438,17.51762192,18.22814077
14330,1.547542042,8.006699982,-3.651506653,3.17908905,9.356674229
1854,18.64404292,-1.226399689,-9.095236359,-0.0940045166,9.178029062
74093,4.122667,8.627309418,-8.819210358,8.414901123,14.93383742
158298,28.89207217,2.842439117,0.1043330383,-5.982309723,6.624075418
219758,4.024135792,-2.89123764,-0.9255253601,-0.512384491,3.078699425
105226,16.50685154,9.041049042,-9.21798111,0.8279283142,12.93820733
62349,54.66637471,1.843566284,-6.022575989,-1.524280243,6.480246017
140431,59.03852908,0.5192701721,1.178499298,0.8846603394,1.562410325
65797,32.70165971,-0.0209564209,7.498656464,-3.468736725,8.262107624
131761,45.02049975,1.300345917,4.409530334,0.2121089172,4.602156828
231897,48.62145121,7.209607544,0.8026309204,-0.4899311829,7.270673277
175590,0.9742544167,-8.325536957,-5.430108032,5.016518097,11.13400614
71865,93.58529283,1.632804565,13.77046417,-0.627046051,13.88109942
120530,71.87813358,-13.88811951,-0.8675958252,2.742596741,14.18289191
223651,43.081959,45.16452988,2.687511292,17.45505203,48.49470401
136117,15.65761821,2.009720764,-13.34445007,-1.246907043,13.55242054
223919,45.77072979,3.854484558,-19.36358322,-5.204976196,20.41806023
222222,28.7451275,3.876937866,-5.167404327,0.7464976501,6.503074153
130118,28.49896492,0.1520837402,3.935316467,-1.499581604,4.214094226
71843,93.36455383,-3.781586151,5.143603821,-2.963686981,7.038500878
198726,49.231513,-1.000220032,1.903591461,-5.60943512,6.00748391
85277,116.3400042,8.827892303,1.1572435,2.537672882,9.258006194
133670,64.21725925,1.496288452,-2.777324524,0.8461903381,3.266259134
178468,29.56218604,-1.939816132,-17.51193375,4.540807343,18.19476962
31674,38.3168045,4.738396454,-8.127648468,0.09385482788,9.408500375
208509,64.12430804,3.254532166,0.9774673462,0.09280700684,3.399416887
5520,55.50889833,-0.5319937134,-8.985514526,-1.906136169,9.200861031
119808,64.63366842,-8.389753418,-0.4508624268,2.43962677,8.748886679
191256,40.96579221,31.87516525,0.8086184692,-1.588496704,31.9249643
119517,61.71380717,-11.50402725,-1.355730743,-1.251697083,11.65106838
144514,31.0461275,-2.9966185,-9.661209412,-3.044818268,10.56359825
44291,34.65712321,-0.8358618164,-11.01304825,-1.218615875,11.111747
41814,10.05108046,-1.790127411,-8.906329193,-1.963017883,9.294121532
50281,38.24246221,-2.921923828,-7.656578064,-0.4945715332,8.210080847
229114,20.70118754,17.06690918,-1.653162231,8.172255707,18.99468604
52172,5.892345708,3.406017151,-7.837551727,-0.7656578064,8.579883553
93524,36.98866529,0.4567002869,-0.916993103,1.672472076,1.961278754
59675,28.10397233,1.191971283,-12.40006393,-1.17131424,12.5121684
48543,20.97820296,-5.125641174,-13.350737,3.464395752,14.71449672
85919,122.781635,9.356293488,-2.196831665,0.9653425598,9.65909848
213837,24.32899838,2.947670288,-4.498445435,0.01960922241,5.378211225
189704,25.54937133,-0.3956272888,1.071172485,0.1463955688,1.151244156
122120,87.83200392,-11.85205353,-1.711540833,-0.4237687683,11.98249243
45898,50.62077912,-1.239272919,-10.55500076,-1.800904999,10.77901189
36986,19.11190183,3.786525879,-11.03864502,-1.972148895,11.83549042
150634,17.95396079,2.131417694,0.2200424194,-3.634591827,4.219196346
16709,25.47127692,2.113604736,-9.879605255,-0.4348457336,10.11251778
417,4.193901417,-2.520907745,-9.149124298,1.436113586,9.598118228
227764,7.157471583,0.2386038208,2.558329926,-5.533542938,6.100990185
1279,12.86196667,1.658251648,-9.825867004,-5.381758575,11.32522787
12808,56.98403004,-1.251697083,-9.429491272,-3.14750473,10.019423
5906,59.39049942,-2.806364136,-9.787247314,2.096390533,10.39522693
183254,17.96088104,1.652264099,1.68489624,0.406255188,2.394555339
21327,71.91124188,0.987197113,-11.0813063,-1.081351318,11.17762176
57198,3.498526583,-1.391656036,-8.161777496,-0.5804928589,8.29989701
111448,78.94066229,9.557175751,-5.13312561,5.061873779,11.97126364
203984,18.726856,8.384065247,1.152303772,3.433559875,9.132890422
64412,18.80526483,-0.6406677246,7.611222382,-2.614313507,8.073152816
170980,22.86448338,0.2448907471,-0.04999603271,0.4426295471,0.5083227294
54361,27.63676612,8.635542297,-6.809639282,2.225272522,11.22032155
17335,31.76647738,1.725162506,-9.700876923,-0.1712438965,9.854568647
66418,38.93246621,-2.677781525,6.831493835,-2.198927307,7.659967573
4562,45.87531842,1.775457916,-9.066196747,-4.552183685,10.29905581
130406,31.39499162,-1.905986481,-9.323960724,0.5580395508,9.533123108
158443,30.35018992,54.9344133,1.669328613,-2.424358521,55.01321602
89867,0.2949949167,1.313368835,-1.391955414,8.59422821,8.804728054
54366,27.68643412,10.24499542,-3.367397461,-0.8449928284,10.81726905
207325,52.24568379,-40.35113937,-5.933960266,-3.150199127,40.90660201
145936,45.34606946,-0.2613565063,3.021466827,-1.825903015,3.539984581
103761,1.805769833,4.867278442,-5.38475235,1.792073364,7.476462014
221027,16.7558775,19.33963303,0.5144801331,18.13478851,26.51710108
217509,61.17085812,-4.327949982,0.2335144043,-1.993704071,4.770800346
57741,8.892451375,1.910477142,-11.78678925,-1.944755859,12.0979502
113151,96.02849042,15.45506104,-13.64367783,3.424129486,20.89817023
195427,16.13353929,0.2421963501,2.605032806,-0.7149133301,2.712186584
189012,18.67554646,0.4556524658,-0.08217910767,0.3448828125,0.5773358898
218005,66.14736113,-3.006947021,1.601369934,-5.666316833,6.611600601
227940,8.923165083,16.39480682,-6.187682648,14.34496948,22.6463078
40118,50.22365325,2.473306732,-6.637646942,-2.443967743,7.493235713
230930,38.92007508,16.51126465,-2.521356812,4.845573578,17.39133933
233717,66.88054154,4.211641846,1.595083008,-0.03338058472,4.503701933
129323,20.50476079,-3.867058411,-19.77627502,4.173471222,20.57846099
222478,31.313525,-0.09265731812,-3.63429245,4.153263245,5.51962522
67777,52.56802425,0.06301895142,12.96783325,-0.7141648865,12.98763651
213107,17.00483413,-2.434088287,-4.544100494,-2.219284973,5.612384599
76644,29.71894362,6.225254517,-2.588117981,-2.083517303,7.056429184
21259,71.227409,-0.8705895996,-8.706195374,-1.715133362,8.91613406
69468,69.53476171,-2.518213348,10.06432114,-3.061882782,10.81698131
117744,43.92369729,-4.869224396,0.01107696533,1.969604187,5.252505076
205185,30.77594592,-34.15642136,-1.616338806,-10.18212616,35.67841594
134720,1.609554625,-9.956395569,-1.134191437,-5.58249115,11.47085046
88186,145.528018,3.345542908,1.705702972,-4.166585541,5.609145661
128006,7.261677,-0.6472540283,-9.758806458,-0.9476792908,9.826054004
39401,43.10130683,3.662583618,-9.319170685,-2.70876709,10.37298801
202995,8.804695125,-0.9202862549,-0.2550695801,-0.9093589783,1.318681551
160590,51.94030804,-1.454225922,0.07244934082,-0.8448431396,1.683384053
568,5.712320167,-0.3146456909,-9.464518433,-1.694176941,9.620101173
89950,1.127802917,3.352877655,-6.284082184,0.2881507874,7.128429584
52980,13.91862438,6.772217102,-5.055137787,-0.07679031372,8.451227087
209082,69.873011,-32.99962692,-7.9308078,-0.7722441101,33.94804045
11154,40.35058542,-2.52973938,-7.756719818,-1.776655426,8.350017256
65231,27.02269883,1.273701324,6.649172974,-4.298461304,8.019388124
65856,33.29363671,-0.7737409973,7.265142059,-4.107458496,8.381657328
131501,42.40599875,-1.298100586,2.113455048,-3.232827301,4.074669278
158939,35.33795117,-1.024619293,-0.3002755737,-0.5261558533,1.190315126
53997,24.02098421,5.178630981,-7.599097595,-1.918260956,9.393839907
108168,46.02854854,4.145928497,-6.475683746,0.643661499,7.7160549
114762,14.00242279,-12.13331863,-2.947071533,1.19586319,12.54323485
12821,57.11476504,-1.442999268,-8.905730438,-2.075434113,9.257521714
37822,27.41628838,-1.380130005,-9.117539978,-3.106190643,9.730504324
17208,30.48933525,1.78324173,-9.941277008,-4.293970642,10.97484048
105719,21.45397779,10.78612015,-6.318360901,8.770711212,15.27047633
9088,19.57388175,-6.062393188,-7.911797333,0.8295748901,10.00186696
121773,84.35024967,-7.718100128,-1.40288269,-0.5423222351,7.863285753
201734,79.41022042,-0.8518785095,9.135502625,-4.132456512,10.0628178
51150,46.87458913,-4.026476898,-8.261021118,-1.67905838,9.342174435
189997,28.45981958,1.224004669,2.212249603,1.462907867,2.921016119
92228,23.98483858,2.38469101,-2.812201996,1.60541153,4.021514324
119478,61.32248583,-10.22837997,-0.8619076538,-0.7777825928,10.29405593
81446,77.90092067,11.02337677,4.534370728,-3.776646423,12.50353596
181341,58.10035408,-8.062982941,-6.729406128,4.047583008,11.25520008
106536,29.65228496,11.06124802,-3.09960434,0.8384065247,11.51788523
226506,71.72522725,-1.36201767,-2.733914795,-1.211879883,3.28603638
47903,14.62080733,-16.05531281,-21.87401276,21.48317551,34.60884761
177008,15.05964604,-0.3996688843,-0.3376977539,0.502205658,0.725248587
142992,15.74039,-0.553099823,2.026934967,0.5894741821,2.182169697
95651,58.33062942,5.334007874,-3.825594635,3.141217804,7.27695428
235081,80.56490258,8.949439545,-3.326831818,-2.996169434,10.00686311
118279,49.29184454,-14.71574844,-0.4671784973,2.255659332,14.89494904
93703,38.78472046,10.53045181,-3.740571442,-2.944975891,11.55660733
122023,86.85871892,-10.15039215,-1.087787933,0.5770500183,10.22480954
225996,66.60858967,-1.067280579,-3.207380219,1.297202454,3.620650481
181360,58.28908508,-8.483009491,-5.697302399,4.993316345,11.37338616
31919,40.78061775,2.742596741,-8.135731659,-1.089284821,8.654392407
30052,22.005365,-0.636177063,-11.21288269,-0.9310638428,11.26944273
132296,50.40035825,2.564018097,4.10117157,-0.5101391602,4.863541817
4401,44.25631729,0.2680924988,-9.210796051,0.03727249146,9.214772201
41519,7.120612083,-7.631430359,-11.38891663,-2.035317535,13.85960565
110782,72.25798479,3.416345673,-6.816375275,0.07888595581,7.624999189
84398,107.5203893,12.23690323,0.6165678406,3.20842804,12.66554251
6396,64.31793067,7.077731781,-9.146878967,1.113983459,11.61897763
113568,2.021806167,-6.446494446,-4.000730438,5.591322784,9.424755973
181756,3.080875458,12.96079788,-8.692873077,2.464624786,15.7994525
38996,39.07822633,4.980293427,-11.78364578,-0.4195774841,12.79975296
71883,93.76589883,0.3378474426,6.865772552,-2.7192453,7.392379092
143462,20.46688688,-0.7940986633,2.571352844,1.3841716,3.026281407
57528,6.776601,0.342487793,-3.854634247,-1.095122681,4.021790242
181574,1.273019917,19.8150444,-19.31777847,7.303612061,28.62088921
53719,21.25947733,9.932744751,-10.88551346,2.154469757,14.89280234
226307,69.72873479,11.83049835,3.626209259,9.121880951,15.37266395
18524,43.72336417,0.466280365,-8.257877655,-4.483027496,9.407842275
139799,52.68317346,-0.3679348755,0.7270381165,0.3507206726,0.8871107516
87796,141.6148751,14.07059006,-0.2369572449,5.728138275,15.19372309
122168,88.31362992,-5.91944046,-5.156926117,1.372046814,7.969703558
121281,79.41358129,-9.174571381,-0.7613168335,2.982248383,9.677095058
127950,6.698573,-0.7758366394,-9.690249023,-0.959355011,9.768480469
140764,62.38718833,-0.2689906311,0.4564009094,-0.9877958679,1.1208918
7808,6.701594917,-0.8770262146,-8.966054993,-1.206940155,9.0893356
207147,50.45987992,-8.331823883,-2.160307617,-3.734284515,9.382488959
110683,71.26461008,5.722001038,-7.730973358,0.2821632385,9.622310587
183044,15.87490354,0.06137237549,0.2266287231,-4.179458771,4.186048586
186734,52.52858721,7.475454712,-2.430046692,2.342778168,8.202204558
114960,15.98915417,-17.50849091,-3.300037537,5.962850189,18.78811017
109279,57.17665296,12.18765564,-7.55987915,4.486620026,15.02732451
126185,128.619791,-5.433999939,-2.744692383,-0.5417234802,6.111886447
151938,31.06743142,10.83521805,-13.89710083,-10.5545517,20.54093287
67651,51.30379896,-2.841241608,6.747668152,-3.557951202,8.140190177
165104,24.54321558,1.029259644,-16.05112152,-2.562670898,16.28696287
214970,35.69653875,-8.096064148,-18.41380829,-9.066496124,22.06390587
115236,18.75853546,-8.688831482,-1.275048523,0.4147874451,8.791677308
166377,37.18856767,-1.849254456,-44.33764938,-5.582042084,44.72589953
38408,33.23731925,0.3634442139,-9.560169525,-5.743556213,11.15873519
83316,96.66392725,12.09335175,4.167034607,3.591331787,13.28574416
60956,40.82887883,-0.3493734741,-11.99156342,-3.838767242,12.59586396
98228,84.18789971,10.78701828,-10.66502197,3.136278076,15.48995472
185454,39.81400342,3.019670563,1.48131958,-1.370998993,3.632128335
99920,101.1652582,12.02554276,-3.272794189,-2.674039307,12.74658176
41953,11.43187833,-0.9382489014,-7.992928619,0.4975653076,8.063174942
58604,17.46512,-0.03667373657,-6.546187134,-1.931433563,6.825272637
94834,50.13298371,3.809577942,-2.114802246,1.992506561,4.791174703
228881,18.36363579,-1.287322998,0.09116043091,-0.004640350342,1.290555019
17565,34.07941229,-1.269210663,-12.47850082,1.027014313,12.58485745
4477,45.02056629,-1.047371979,-9.42619812,-0.01047821045,9.484213666
226111,67.76234088,0.5228627014,-2.956052856,-4.468058624,5.382859999
6640,66.77159442,1.008752289,-10.12629227,-0.1592687988,10.177659
194443,6.261374542,0.7249424744,9.06694519,-2.628234558,9.467980438
217069,56.75622692,5.979765015,9.812993774,-15.32483185,19.1547098
145660,42.57056346,-1.719923401,1.513203278,0.486638031,2.341951587
31831,39.89565575,8.861123199,-10.60978683,-3.146606598,14.17703122
201030,72.34709938,-1.52233429,-5.326822815,-0.1383123779,5.541811374
123627,102.9530611,-9.873617706,-3.000809784,3.936513977,11.04487792
145511,41.07219058,-1.930984497,-21.475242,-3.177592163,21.79476571
200405,66.07658379,-7.591613159,20.28072601,-16.32624939,27.11986093
95589,57.70853142,13.79920441,-3.713926849,-0.6243516541,14.30388443
146362,49.62999433,-1.519639893,-2.974165192,-7.212751007,7.948505588
155003,61.88947571,-1.033001862,0.6911128235,0.1166075134,1.248329721
79107,54.43208225,10.02046234,3.37802536,0.390687561,10.58174644
112078,85.26207846,11.44804367,-3.945644989,4.48377594,12.91239966
110044,64.85280933,3.828588409,-6.63091095,0.7536827087,7.69383564
18900,47.50452625,0.3007246399,-7.563621368,4.043092346,8.581689766
39462,43.70725183,0.02245330811,-13.40821747,-1.422491913,13.48348186
23286,18.00288204,6.679260406,-5.898334351,-4.326153717,9.905476953
80572,69.13147175,9.553882599,-4.240082703,3.866459656,11.14470656
33262,54.2863365,1.234931946,-6.942862244,0.04236190796,7.051963385
79866,62.0476755,12.01656143,-1.632205811,1.147364044,12.18106271
157185,17.69973767,-2.284549255,-0.6665638733,0.8628057861,2.531384309
203502,13.89117754,-39.34582993,-3.536096649,0.5869294739,39.50876862
10280,31.56121,-1.996548157,-7.199728088,-0.5081932068,7.488694774
38116,30.33673496,-1.486109619,-10.14724869,-6.821913757,12.31721093
89599,159.7127734,-1.224304047,5.507048035,7.902965698,9.709962167
149697,8.531052917,0.8632548523,0.4760101318,-0.6462062073,1.178718392
202405,2.885520125,-7.672145691,-9.074579315,-4.479884033,12.69957362
95005,51.84876854,10.66322571,-7.69564682,2.916385345,13.46969435
45972,51.35588312,-2.887046356,-8.588689728,-0.5535488892,9.077832576
110942,73.86343604,13.15195038,-4.262236633,4.132905579,14.42987763
79618,59.55931437,11.30149841,3.613635406,-1.31980545,11.93834635
94787,49.66139271,11.9493512,-11.03280716,5.261558533,17.09367795
35797,7.30101425,2.104024658,-9.007219391,-4.843627625,10.44115173
164535,18.89103142,2.702330475,-1.52113678,0.3240760803,3.117927582
223965,46.23223479,11.79786621,10.9167984,13.99499725,21.31258038
74063,3.821651,6.364015961,-1.48012207,4.262835388,7.801488707
198654,48.509154,-3.212020569,5.348677368,-2.27931015,6.642339986
142247,8.248347958,-1.434167633,-4.696333923,-2.418670349,5.473788028
73655,111.5455015,-2.21853653,5.503754883,7.921676788,9.897786888
58361,15.05126313,-0.1046324158,-9.136700134,-5.520070953,10.67527145
79333,56.69970425,8.548573151,2.32032486,3.095113678,9.383055955
234943,79.18041096,9.762997742,-0.07200027466,1.413959656,9.865119911
146405,50.06240933,-3.487896881,-13.04582108,-4.619244232,14.2722209
10112,29.87172,-4.841082916,-8.405620422,-2.301314392,9.969282142
62137,52.56044971,2.40804245,-8.62236969,-3.356619873,9.56090082
63546,10.11624837,-0.02844085693,9.108408966,-3.734733582,9.844397275
203578,14.65365017,5.748346252,-1.062191162,7.563321991,9.559057184
207610,55.10497813,-28.27350494,-8.96755188,-12.36758148,32.13666349
194054,2.358657167,-7.047494659,5.775439911,1.354533234,9.21182107
179030,35.14466554,-0.6673123169,0.1514849854,1.008303223,1.218576554
101653,118.5540667,1.033899994,0.8598120117,0.3516188049,1.38991427
218525,71.36467113,-6.448141022,-8.637338562,-9.070238342,14.08727666
224166,48.2488095,0.2667453003,-2.919229431,2.724334717,4.001881205
39867,47.73033475,1.585053864,-11.52318741,-0.8080197144,11.65972297
161789,63.99734429,-1.314416656,-0.2471360779,-0.60025177,1.465970523
46783,3.495345958,1.993404694,-6.556665344,-0.6800358582,6.886651688
136635,20.86655083,-0.01930984497,1.574276276,0.1266366577,1.579479505
212347,9.379685667,-9.662706299,-4.253854065,-8.378227386,13.4780511
98221,84.11766271,3.88352417,-7.68277359,5.358556824,10.14006416
75194,15.16992787,6.43901001,-3.827839966,0.155975647,7.492498723
90734,8.994318917,12.40590179,-4.546196136,3.868854675,13.76743749
35290,2.264740875,1.128652954,-9.318122864,-1.865420837,9.569799689
217487,60.95012612,-19.59230759,-12.37297028,-8.964408417,24.84571449
205137,30.29438292,5.627697144,-1.035845947,3.614084473,6.767980389
159177,37.73126917,-1.238374786,0.2878514099,-0.3781137085,1.32642396
193818,66.41478004,-5.104684753,6.882088623,3.746708679,9.351939701
188845,17.01668842,0.2564167786,-0.4526586914,0.03158432007,0.5211976828
109713,61.53149867,10.60709244,-10.16386414,3.695066071,15.14820311
24806,33.28875758,6.178252258,-3.79580658,-2.026485901,7.528983574
78486,48.20113317,9.315428467,-0.2935395813,7.644453278,12.05408806
154550,57.33409617,0.5718109131,1.880090332,-0.6569837952,2.072036458
77709,40.40490837,7.009024658,-0.628692627,-1.786834259,7.260472281
172535,38.31072813,-0.7942483521,0.4939727783,0.217048645,0.9601820998
138064,35.23632358,5.680686951,-44.34423569,1.595232697,44.7350669
1083,10.89103567,0.4593946838,-9.752220154,0.2019300842,9.765122486
165938,32.82776442,0.3617976379,-10.31534912,-1.494941254,10.42938993
28357,4.95978775,0.03502716064,-8.703201599,5.098547516,10.08673048
90071,2.341897292,9.90595047,-1.893412628,2.115251312,10.30471514
145926,45.24550783,-0.9493258667,-13.35043762,-1.904489594,13.5189676
112253,87.01802267,5.624403992,-9.924511871,2.331701202,11.64331081
36387,13.16175921,3.567082214,-5.594466248,-1.070424042,6.720709468
52046,4.6407215,6.216273193,-6.971602478,1.660646667,9.486993248
47448,10.10109113,-20.01712418,-24.90805344,27.314599,42.03788416
177383,18.78461717,-2.380350037,4.165088654,-0.4565505981,4.818969624
199738,59.38469738,6.933431854,-1.75390274,-0.4653822327,7.166954215
133086,58.344528,-0.3541635132,-6.115233307,1.435814209,6.291507978
156771,13.53653975,-0.9972262573,0.2514770508,-2.27811264,2.499499573
113113,95.64720242,12.05862396,-5.942492523,4.450245667,14.16080209
23931,24.48933196,10.06686584,-2.743943939,-5.877677307,11.97572991
65028,24.98589858,-4.220323792,4.813989258,-4.353995819,7.742280353
202985,8.704370125,-1.542841644,0.1475930786,-0.1621128845,1.558340349
219346,79.60201862,-1.43222168,5.396128693,8.952133942,10.55036331
196643,28.33330587,-4.428391113,23.04412949,-17.29847763,29.15269936
151758,29.25730067,1.540746002,0.2929408264,-4.538861389,4.802184428
70055,75.42447083,-1.110989685,6.91172699,-3.041824493,7.63275601
6240,62.74919671,-1.013392639,-8.960815887,0.09415420532,9.018428412
71534,90.2641645,-3.669319611,7.254663849,-3.514541473,8.856977799
193996,1.776762167,-9.89307724,0.7737409973,-2.813249817,10.31436023
21594,0.9872215834,-3.038082275,-0.9476792908,9.275611267,9.806375698
129785,25.15044204,-1.882335663,-2.217488708,0.5025050354,2.951771507
73785,1.032236,10.99852844,-4.943769379,3.181334381,12.47114157
193700,65.24265679,-4.844376068,7.095993805,3.688479767,9.350186659
199306,55.05052875,-5.232219543,22.58952484,-14.42864548,27.3102282
76902,32.3076585,9.656119995,0.7713459778,4.83015564,10.82432591
102284,124.8855014,1.686542816,-0.5505551147,5.560786285,5.836941127
137372,28.27769833,-0.09160949707,0.6975494385,0.8695417786,1.118512594
94565,47.43388017,11.74053543,-8.822802887,-1.632804565,14.77660562
199871,60.7190605,-4.525988159,19.0957901,-15.54262894,25.03411837
202305,1.882270625,-9.547595673,-4.110302582,-0.4897814941,10.40629888
168644,59.70772504,-1.465452576,2.835703125,8.822952576,9.382603883
58514,16.571099,0.3505709839,-13.54623047,-0.5851332092,13.56339341
71576,90.6855765,0.002844085693,6.798562317,-2.703977051,7.31655312
123286,99.53150442,-10.62325882,-3.254232788,2.232756958,11.33264588
101991,121.9455458,7.326963501,-8.371042328,0.7667056274,11.15107983
129019,17.44787525,-5.745801544,-54.30167908,0.3803590393,54.60614671
11212,40.93386142,-2.945574646,-10.0289946,0.2270777893,10.45508044
91807,19.76060179,4.633015594,-8.571176147,1.642384644,9.880653894
87734,140.9927869,8.489296417,-1.167122955,1.207838287,8.653854805
38191,31.08174775,6.493796082,-14.78176117,0.769100647,16.16358149
209734,76.41430029,-6.238277435,-0.3390449524,3.343147888,7.085738821
202007,82.1491895,-3.012036438,7.764353943,7.977360992,11.53238241
136874,23.26989546,3.003055115,-18.78758102,-1.899400177,19.12065014
170202,15.136387,17.48005005,1.631756744,-0.254021759,17.55788446
206378,42.74481037,-3.053350525,1.634900208,1.851948853,3.927539009
51521,50.56674408,-4.626279602,4.28603714,9.969717865,11.79694247
224875,55.36198587,16.2305983,17.67928574,15.44323563,28.53914841
50277,38.20272921,-4.779111786,-14.02822815,-0.9301657104,14.84911791
98035,82.25135858,9.835447083,-1.524729309,2.584375763,10.28298677
105488,19.13595783,12.71665558,-3.627706146,2.620450745,13.4811106
85404,117.614282,10.85063599,-1.718276825,-0.2056723022,10.98776946
94872,50.51426829,8.262518005,-2.140698395,-1.01683548,8.595681928
162507,71.21747838,3.618275757,-1.592687988,9.935888214,10.69347694
192484,53.16382658,13.43531113,-0.5421725464,4.320315857,14.1232668
101375,115.7646251,8.381071472,-4.917723541,-0.2865042114,9.721545583
21065,69.27647363,0.7249424744,-9.79952179,-0.1326242065,9.827194822
132021,47.63500738,-11.61554535,-32.83631653,0.722996521,34.83772812
147766,63.74879671,-2.425855408,-5.139412537,-0.4192781067,5.698607708
104079,4.996878917,6.261928253,-6.118676147,3.026406555,9.263319053
14012,69.09206475,-0.292641449,6.618337097,7.320975952,9.873434754
39733,46.399241,-4.077520752,-13.88737106,-9.868977356,17.51804683
129824,25.5426115,1.310674438,3.832330627,0.02050735474,4.050314318
210053,79.6147175,-21.54709259,-1.147663422,2.046693878,21.67448468
120351,70.08206821,-5.037025452,-1.476230164,0.2915936279,5.256986565
69701,71.87258446,-2.833757172,7.547305298,-2.959495697,8.587817636
130913,36.49322579,-1.898202667,-5.333858185,-2.396815796,6.148003128
39912,48.17734358,3.332220612,-13.72870102,-2.076032867,14.27903492
89619,159.9134475,-1.369202728,5.588478699,8.222551117,10.03574398
121243,79.03229329,-13.11797104,-0.539178772,3.509152679,13.58992386
225859,65.234116,-1.133442993,-2.212249603,3.108286285,3.979972985
12363,52.50888713,-4.216282196,-8.420738983,-3.91046814,10.19694276
170755,20.62949442,20.98082016,1.309177551,-0.1278341675,21.0220147
198284,44.79702854,0.1320254517,-1.097817078,0.01676513672,1.105854478
223187,38.42676517,51.68796432,-4.993316345,25.8534874,58.0084621
105013,14.36944192,12.73372009,-10.26610153,3.297792206,16.6857994
93034,32.07209367,6.993307343,-5.010380859,-0.247585144,8.606483739
60166,32.98135383,-0.06691085815,-6.899751892,-2.198478241,7.241847817
135964,14.11907125,4.971611481,-12.51128265,-1.926344147,13.59999692
79520,58.5760095,7.879015503,-0.7994874573,0.3411405945,7.926817924
197980,41.74707025,-1.148860931,-1.048270111,1.891766052,2.448985599
1289,12.96252367,-1.026714935,-9.80176712,0.4670288086,9.86645317
131557,42.96912225,-1.366807709,-0.4141886902,-0.09894424438,1.431609426
3750,37.70992854,1.337618408,-9.796677704,0.4896318054,9.899689709
160090,46.9123455,15.35057831,3.156785431,0.9225315857,15.69893669
192645,54.76307967,10.18541931,0.8728349304,2.17991684,10.45259034
49940,34.85517308,-1.302591248,-5.201233978,-2.874622192,6.083833627
146262,48.62437938,-0.2043251038,-1.582359467,-0.8113128662,1.789927037
182268,8.166704917,16.72337357,-15.70474182,3.974534912,23.2831928
13386,62.79668975,-4.058959351,-8.880882111,-0.3670367432,9.771383425
230438,33.98411479,2.641856232,0.8385562134,-1.322649536,3.071153312
166868,42.06590667,-6.270610199,-9.063951416,-2.743644562,11.3579643
34140,63.11584804,3.916306,-7.174430695,-1.720222778,8.35278845
231963,49.28359321,7.98230072,2.574346619,-2.706970825,8.813176292
54938,33.36837021,14.58147766,-4.569248199,7.692653046,17.10773015
77096,34.25421029,12.06086929,-2.13770462,-2.427651672,12.48710702
86418,127.7884477,12.32716553,0.5063969421,4.270619202,13.05578937
140065,55.35804521,0.6921606445,1.240021362,1.816173248,2.305477088
215857,44.59596375,-1.887125702,-3.438798981,-2.094294891,4.446645133
61712,48.33866996,1.518592072,-8.845106506,-3.605552216,9.67171328
66459,39.34384046,-9.768386536,15.27259048,-1.338217163,18.17867489
158361,29.52559917,1.946402435,0.1683998108,0.4093986511,1.996108262
99947,101.4361743,10.45051804,-3.328179016,-0.5993536377,10.98404878
203131,10.16911537,-34.59321304,-6.528823242,-8.465196533,36.20739529
86403,127.6379427,8.421487427,2.290387115,3.170856171,9.285561506
115488,21.28709908,-9.05182663,-2.139500885,-0.6484515381,9.323814604
150441,16.01307058,8.311915283,-7.176226959,-7.523804169,13.31141609
186381,49.02213917,2.913690948,-0.5887257385,-1.691183167,3.419984421
29238,13.819471,3.086880798,-9.140292664,-2.220931549,9.899814139
217975,65.84636212,-3.695365448,-7.862699432,-7.301516418,11.34856423
157974,25.63393079,23.01434143,3.581302643,-6.023174744,24.05752012
56751,51.37766821,-0.5981561279,6.88598053,6.373296661,9.401777967
95742,59.24370933,10.93835358,-8.857680359,4.720433807,14.84549008
193481,63.06727529,1.506616974,1.670526123,5.486989746,5.930228386
205187,30.79601092,-24.61675919,-3.242557068,-8.246201935,26.16292903
170607,19.15936925,-0.02544708252,0.5318440247,0.7000941467,0.8795666176
24579,31.00593704,7.744595032,-5.851332092,-1.842518463,9.879864055
126767,134.4595534,-7.200027466,-0.698896637,3.33940567,7.967463978
11564,44.473747,-3.947590942,-7.789950714,-2.736459503,9.151776712
40524,54.25666971,2.225272522,-6.949897614,-4.661905518,8.659461744
145440,40.35820058,0.5529501343,-4.508175201,-1.701811066,4.850315289
93992,41.68449496,12.19199661,-5.521118774,2.093396759,13.54658052
111702,81.48930054,8.059390411,-10.24589355,3.980821838,13.63007891
180863,53.35227096,0.408949585,-0.75353302,-0.1390608215,0.8685560934
161472,60.809624,9.110953674,2.285597076,-2.535277863,9.729391795
186497,50.17439929,13.92105103,-14.61500793,1.313518524,20.2267014
159324,39.20949467,1.613794098,-0.01556762695,-6.628665619,6.822300318
42122,13.11069046,-2.276316376,-7.301815796,-0.06945556641,7.648722392
53885,22.90843483,6.158643036,-9.52454361,-6.201154633,12.9267217
132241,49.84728625,-0.9785151672,-1.77620636,0.2883004761,2.048296397
195869,20.5679905,-0.4246669006,6.952292633,1.84641037,7.205827231
207914,58.15489417,-0.3297642517,0.8878038025,1.732048187,1.974064583
109029,54.66809158,12.22447906,-8.730744324,0.9372010803,15.05131658
199780,59.80607537,-4.440216522,18.43281876,-11.55267609,22.20244705
131447,41.86298775,0.2719844055,-19.80950592,-0.6224057007,19.82114752
234495,74.68583654,22.06262054,-2.818488922,7.928113403,23.61266794
56158,45.4871535,6.375092926,2.514620819,10.01896545,12.13856649
158872,34.66420117,1.25319397,-0.5816903687,0.966839447,1.686308788
86214,125.7415745,11.06049957,-5.883365479,1.431473236,12.60943122
60859,39.86532121,-0.09295669556,-7.577542419,-1.506167908,7.726340132
173548,48.37311087,-2.351759491,1.822310486,-0.7234455872,3.061855929
189454,23.06605446,-1.178499298,0.4498146057,-0.008981323242,1.261457268
90189,3.525888042,9.312584381,-3.111878815,-0.5830375671,9.8360536
125834,125.0978815,-8.111332397,-1.722019043,2.628533936,8.698750111
225274,59.36501912,53.5104245,-31.40065201,25.35098236,67.02267365
178336,28.25099917,-12.89403671,-35.24346085,4.283492432,37.77176224
22459,9.686131292,6.265371094,-6.414760437,-4.084556122,9.853305289
167521,48.55246054,1.58894577,-0.8285270691,-0.9862989807,2.045480737
58299,14.43538321,2.33319809,-8.746761017,-5.391937408,10.5367277
68309,57.90586808,-0.3983216858,7.26618988,-3.538042603,8.091595702
109404,58.43093154,7.423512726,-5.96045517,4.729864197,10.63048364
118897,55.49279642,-11.54354507,-3.011737061,5.038672028,12.95037485
189966,28.15188858,-0.05014572144,-0.5303471375,0.08292755127,0.5391286102
175589,0.9643204167,-9.614506531,-6.953041077,-0.7268884277,11.88746747
43194,23.75972887,-0.8840615845,-6.734196167,-2.576142883,7.264122456
173349,46.39639604,-2.118843842,0.2151026917,1.326990509,2.509317079
168981,3.007824875,0.9147477722,-3.017874298,0.1692979431,3.158004205
64852,23.22000321,2.442171478,11.61449753,-1.196611633,11.92864761
33006,51.71190204,4.11164978,-8.177943878,-1.112336884,9.220722495
220879,15.27101129,3.106789398,-0.4619393921,2.686912537,4.133403845
207465,53.6502485,0.6523434448,0.3044668579,0.09624984741,0.7263030158
151322,24.87274946,2.155367889,-0.2176473999,0.4379891968,2.210161909
130808,35.43737725,1.269959106,-6.794969788,0.5221142578,6.932316629
186432,49.52873617,6.019582214,3.032543793,-1.884131927,6.998688807
139990,54.60385121,0.7934999084,-0.1832189941,1.799857178,1.975524529
70312,78.00310225,-1.303190002,8.856782227,-3.163072357,9.494520648
46768,3.346343958,-6.756799164,-13.02127213,7.601342926,16.52235688
68606,60.88583275,0.6258485413,6.511010284,-3.545227661,7.439998689
156690,12.72200004,-0.3071612549,0.1686991882,-1.006207581,1.065486343
197805,39.99133937,-3.403023376,20.22818527,-9.589209137,22.64316628
50275,38.18286221,-4.237687683,-13.13353867,1.285826111,13.86005713
48931,24.83236712,-23.21716965,-29.85242157,18.55197098,42.12338623
161818,64.28896529,6.813830566,1.21457428,-5.040318604,8.562026004
19032,48.83195688,1.238823853,-9.207652588,-0.522563324,9.305300809
208017,59.18825363,-7.446864166,0.8708889771,-0.1935475159,7.500112943
84429,107.8314333,7.53652771,-1.557960205,-1.118174744,7.776683399
31,0.3123853334,-0.2483335876,3.951183472,8.917406158,9.756723476
217776,63.84973962,-5.831872559,-1.155447235,-9.62513443,11.31322273
150016,11.73907496,25.82893845,-20.25722488,-11.36047577,34.73542329
210309,82.1830805,-32.75219147,-0.8461903381,0.4296066284,32.76593728
233746,67.17148454,8.702752533,1.150657196,0.1434017944,8.779662733
143738,23.24243838,-1.724114685,-40.12810318,-12.53598129,42.07597965
62721,1.838601833,-5.686524811,6.816674652,-7.717501373,11.76279921
20369,62.27725338,3.493585052,-6.032006378,3.344944153,7.731680855
111913,83.60647183,9.810898132,-8.976832581,3.365301819,13.71723375
52032,4.5016515,12.40470428,-10.44617706,1.156944122,16.25846928
105398,18.23283092,11.1875853,-0.4540058899,3.08089325,11.61292768
211838,4.272842917,-3.408861237,-9.084309082,-1.335522766,9.794316081
26998,55.33246167,6.938221893,-6.10550354,-3.052302704,9.73306983
208736,66.40171713,-0.03682342529,2.663860474,1.534608765,3.074497137
51136,46.73552113,-1.601369934,-10.68672684,-5.67724411,12.20662184
134917,3.590565458,5.228177948,-8.600814514,1.105002136,10.12565478
142344,9.223825125,-0.2405497742,-10.13347733,-2.693648529,10.48813469
124148,108.1807216,-11.68709656,-2.211950226,0.9244775391,11.9304488
227196,1.459114792,7.769443359,-2.390079803,-1.946103058,8.358471672
158100,26.90098679,2.260898438,0.9994715881,-6.486760712,6.941805942
163530,8.907793042,-0.7629634094,-0.9053173828,-1.768422546,2.128152022
54542,29.43472175,10.5783522,-5.928571472,0.4553530884,12.13494299
48696,22.49801587,1.362466736,-4.04728363,0.383203125,4.28761764
86943,133.0561371,7.346722412,1.559606781,-0.9749226379,7.573452163
176618,11.18567446,-6.873256989,-16.09243561,-2.246228943,17.64238334
110951,73.95374304,14.68506226,-6.996750183,2.020198975,16.39166772
9572,24.44121837,-4.885540466,-8.475974121,-0.910556488,9.825464674
173115,44.072017,23.24620926,0.7655081177,3.279081116,23.48881905
123431,100.9864185,-11.25928619,-4.454736328,5.875881042,13.45890706
147577,61.84819258,-2.999462585,2.572400665,1.613345032,4.268126425
225852,65.163888,-1.342408447,-2.164947968,0.8497828674,2.685366095
105544,19.69790283,3.958518219,-7.753426666,4.327051849,9.721567223
22742,12.53213142,8.977730713,-4.037703552,-4.653522949,10.88843306
202396,2.795228125,-4.041296082,-9.132359161,-2.335892487,10.25614214
94004,41.80490096,8.395441589,-3.236270142,0.560584259,9.015050672
231182,41.44825142,42.78657486,-0.4071533203,19.35100937,46.96081692
176122,6.258768042,0.6330335999,0.9142987061,2.814746704,3.026462072
179406,38.87955967,0.2878514099,-1.436113586,-0.1450483704,1.47184228
62635,0.9757175,4.477339325,8.3262854,0.3571572876,9.460505131
205682,35.76213275,-1.829645233,1.737736359,1.904040527,3.161123164
194763,9.4718345,0.01332229614,-0.1519340515,-4.50248703,4.505069466
132178,49.21377,1.448687439,-3.200644226,-1.560504913,3.844215699
152093,32.62615183,0.2073188782,0.9202862549,0.6162684631,1.126807316
82564,89.11858479,10.21760239,1.571731567,-2.266736298,10.58337527
231230,41.92980842,6.479875031,-0.4275109863,4.077670441,7.668046836
78869,52.04405425,6.756499786,1.408271484,-0.1225950623,6.902792731
28740,8.81138875,-0.2486329651,-8.348289642,-0.6059399414,8.373943009
148855,0.06345391669,-0.8032296753,5.140909424,8.272098083,9.772498878
172828,41.22117388,53.17377457,-12.70857239,8.016729126,55.25600474
21715,2.204063333,-1.715881805,-2.209854584,10.28421387,10.65799055
125200,118.736381,-7.192393341,-4.749623108,2.164498901,8.886759653
82424,87.713868,5.01846405,1.63699585,-3.971092072,6.605627077
231339,43.02334417,11.4966925,-2.811004486,-2.362537079,12.06885522
58575,17.177046,0.2510279846,-14.29916473,-4.916076965,15.12272925
51440,49.75527946,3.218606873,-7.97182251,-2.890189819,9.069872189
113815,4.500212792,-4.719984741,-1.417701874,0.5086422729,4.954477926
55125,35.2259235,8.850944366,-4.693789215,0.7173083496,10.04417267
112654,91.04163417,5.774242401,-7.621700592,2.237996063,9.820428789
231443,44.06671917,-0.5433700562,-0.494122467,-0.009580078125,0.7345065066
221382,20.31754379,7.843539276,-8.60710144,-1.447489929,11.73450172
18257,41.03833962,-1.336420898,-14.1550145,-2.019899597,14.36072598
90884,10.49939254,-0.4358935547,-3.196602631,4.084556122,5.204985137
150485,16.45555358,1.005908203,1.698068848,-2.541864166,3.21813029
150241,14.00178133,7.108417969,-2.93105484,-0.8976832581,7.741222366
224823,54.84028687,4.041894836,11.74592422,15.63962723,19.97252086
5741,57.73126579,-0.283510437,-10.3169957,-2.633024597,10.65145985
179859,43.37931246,-0.3811074829,-0.8005352783,1.20170105,1.493380413
135585,10.30789608,14.50064575,-74.82355362,-4.75755661,76.36404421
59314,24.51795446,1.184636536,-8.683742065,-1.007105713,8.821847987
116530,31.74249071,-6.763385468,-5.035827942,0.6460565186,8.456969615
74836,11.5778155,5.60120224,-3.375031586,0.7548802185,6.582867831
105409,18.34321292,11.66419418,-6.522835693,7.092251587,15.12946939
181897,4.481464958,2.028581543,0.6279441833,-2.697241058,3.432865611
88011,143.7721198,9.615254974,1.107696533,-3.333118744,10.23668894
160774,53.79059788,5.723497925,1.789977722,-6.802454224,9.068397444
97654,78.42844867,6.325246582,-1.894610138,2.229314117,6.96908411
214171,27.68005979,-2.045496368,-7.793393555,-10.44662613,13.19291613
228382,13.35747254,1.585203552,0.4906796265,-0.8381071472,1.859048248
109271,57.09637896,13.87779099,-5.135670319,5.193150787,15.68237888
11420,43.02561175,-6.247258759,-8.050558777,-1.044378204,10.24355722
228980,19.35684442,3.384162598,-0.2266287231,0.2619552612,3.401843269
93334,35.08223867,4.13619873,-3.270848236,1.50586853,5.483997461
203959,18.476042,-30.45282303,-5.971831512,12.62893799,33.5041382
158999,35.94130925,45.06019684,1.420695648,3.531007233,45.22065598
22714,12.25054842,8.344846802,-5.095853119,-4.685855713,10.84257492
214581,31.793644,-3.848047943,-11.71658524,-11.16737732,16.63719203
1468,14.76250804,-0.4516108704,-9.525292053,-0.03547622681,9.536057867
24852,33.75135458,10.19799316,-1.974843292,0.15328125,10.38857862
47223,7.866064375,-17.99348236,-23.38586884,24.56990662,38.39719495
190518,33.63504729,-0.6331832886,1.057401123,-0.1347198486,1.239825653
225447,61.10066725,0.07185058594,-1.416354675,-0.4914280701,1.500907932
130719,34.54242025,-2.179767151,1.864223328,0.2595602417,2.879945306
51902,3.210293083,13.85204453,-6.313421173,1.593137054,15.30609389
116033,26.75561433,-8.568930817,-0.1044827271,3.267106018,9.171230763
136871,23.23972846,3.512745209,-24.75492188,0.6221063232,25.01064878
67622,51.01282712,0.9038204956,9.664801941,-0.6146218872,9.726409826
213381,19.7539025,-2.37765564,-3.920497284,-5.246889038,6.968026254
7945,8.0793315,-3.746109924,-8.988358612,-4.618495789,10.77749662
187208,0.7558671667,-4.00986145,-3.54298233,6.389163666,8.33385415
112342,87.91104417,4.261039124,-6.572682037,0.563278656,7.853272338
64163,16.30692146,-3.914060669,12.86454803,-3.44942688,13.88218329
28662,8.026989667,1.274000702,-8.650660858,-0.9199868774,8.792234467
181614,1.670351792,17.54995468,-19.11330368,4.405488739,26.31971918
222513,31.664673,27.79554886,2.062560883,14.47355209,31.4058976
95888,60.70865079,2.244881744,3.30198349,-2.219734039,4.568348522
115392,20.32383654,-7.696694641,-1.691183167,-0.02035766602,7.880331423
79572,59.0977635,7.069498901,1.46724884,-1.460512848,7.366392038
85483,118.406945,9.981393585,2.115700378,2.338886261,10.467798
221331,19.80586779,24.82722153,-0.7217990112,18.37758362,30.89737047
2061,20.72559417,0.4041595459,-9.975855103,-0.6981481934,10.0084185
110870,73.14098329,7.500003662,-6.700965271,1.922003174,10.23948664
68075,55.55801971,0.6041436768,10.68148773,-3.122806091,11.14500281
132264,50.07857125,0.9683363342,-9.248966675,5.180726624,10.64523312
72450,99.45496621,-2.692750397,5.957311707,-3.411555634,7.37422398
151248,24.12857946,5.827381897,-1.923350372,-2.984493713,6.823844895
117596,42.43867533,-8.35906723,-0.2415975952,3.624862061,9.114384198
232342,53.08589329,15.81940338,-1.57607254,3.630101166,16.30690536
71147,86.38115575,1.439107361,13.54652985,0.1383123779,13.62345886
190551,33.96284529,-1.067729645,-0.03128494263,-0.4171824646,1.146763511
183228,17.70261704,2.201921082,-0.1016386414,0.7015910339,2.3132265
29704,18.505745,0.7442523193,-9.768536224,0.03847000122,9.796922549
25126,36.50682629,7.894283752,-4.524191895,-4.47913559,10.14153262
37908,28.27056771,4.520150299,-9.907447357,-1.875150604,11.05013401
84718,110.7311709,7.392826538,-0.09310638428,9.560468903,12.0857403
106148,25.75885454,11.21916962,-11.10914841,3.949237518,16.27511666
206154,40.49751054,-22.28236359,-9.665999451,-0.5501060486,24.29481198
148412,70.24503525,-1.955832825,-9.162745972,-1.467997284,9.483470452
138875,43.39158146,0.7559280396,-24.01351364,-0.4709207153,24.03002353
202949,8.343200125,-31.27416504,-5.270988922,5.338199158,32.16136025
199275,54.73951175,-0.4306544495,4.740791473,-1.843416595,5.10477735
48963,25.15023808,-4.07542511,-8.689280548,-1.021026764,9.651693215
61225,43.50101108,1.265019379,-12.50349884,0.3505709839,12.57221768
220610,12.57216512,-1.151854706,-2.744243317,1.825004883,3.49117222
26365,48.96675421,8.391399994,-3.011737061,-4.101021881,9.813487374
218567,71.78606912,0.6429130554,-4.104165344,0.04326004028,4.154441214
202786,6.707902375,-7.50494339,-1.980232086,0.5084925842,7.778435518
230094,30.53295942,52.19166687,-3.872596893,15.88900864,54.69394567
176355,8.573221542,-2.617906036,-5.463488617,0.02948867798,6.058383404
173086,43.783953,1.660646667,-3.019520874,-8.941056976,9.582158082
85819,121.7782662,8.177045746,-0.5613327026,0.9448352051,8.250568774
98097,82.87346029,1.167272644,-0.1469943237,-5.147795105,5.280523383
19858,57.13846817,-0.2034269714,-8.707692261,-2.640059967,9.101384712
8657,15.23954138,-4.454586639,-9.38877594,-3.057990875,10.83253267
133581,63.32226588,0.07813751221,2.567760315,0.2130070496,2.577764634
687,6.908955042,-1.363813934,-9.3256073,-2.070045319,9.649457372
3586,36.06076333,-1.695374451,-9.417815552,1.046174469,9.626215524
180345,48.20686004,1.970652008,-14.63656311,4.068689117,15.31883416
227913,8.652291083,3.996090088,-1.826052704,7.631430359,8.805789788
219040,76.531823,-3.463647308,-9.379495239,-5.001998291,11.17997185
222697,33.51070762,4.876110077,-9.526190186,-1.657802582,10.8292686
110005,64.46147654,15.44473251,-7.673642578,4.976700897,17.94971043
95891,60.73875179,3.127147064,0.2245330811,3.009641418,4.345964258
49835,33.81216683,2.607727203,-3.226091309,-1.368603973,4.368178469
222984,36.39011425,1.801054688,-3.042872314,0.5264552307,3.574916086
17743,35.86942379,-0.7711962891,-7.909252625,-2.601589966,8.361775598
154039,52.19544804,21.8469191,-25.8069342,-16.16353775,37.47726884
159051,36.46421825,2.612966309,1.044976959,-2.008972321,3.457678348
70867,83.57174633,-0.5035528564,6.613996124,-2.721340942,7.169672708
18141,39.87181338,1.476379852,-9.947414246,-1.819316711,10.21962137
131789,45.30206175,-2.547402649,-3.934418335,-2.334844666,5.236449895
21145,70.08098263,-0.9651928711,-10.10698242,-1.982477417,10.34470433
61616,47.38504458,-0.09265731812,-6.50921402,-0.3598516846,6.519811789
211279,91.91477825,-5.630092163,4.81488739,2.530637512,7.828486735
114292,9.286440167,-9.645791473,-4.844675446,3.249742126,11.27266593
50223,37.66632563,-4.031266937,-9.455237732,0.2767744446,10.28247236
72622,101.1807523,1.629062347,5.29463974,-1.022523651,5.633170397
108949,53.86535058,12.20591766,-3.378624115,3.625460815,13.17359074
198962,51.59925025,9.109606476,0.959355011,5.765111389,10.82320662
225799,64.63215829,22.53668472,4.353247375,21.64798279,31.55135623
119126,57.79055829,-6.240672455,-1.608554993,0.4724176025,6.461936261
100553,107.5167268,7.925568695,-1.775457916,0.4993615723,8.137336907
31899,40.57948975,5.134772186,-7.814799042,-0.3432362366,9.357071154
194786,9.7025865,-0.01002914429,9.434880066,-0.6318360901,9.456018152
18294,41.41042163,1.152752838,-8.968450012,-3.768563232,9.796121863
208353,62.55921675,-0.4140390015,-1.188977509,1.563798065,2.007625513
72807,103.0369745,-3.450474701,12.40769806,-6.057154083,14.23186082
181112,55.82564354,-0.8152047729,-12.91693909,1.861528931,13.07582365
75646,19.70521337,7.257807312,-3.626209259,0.5532495117,8.132112001
159258,38.54580167,-1.627116394,-0.6818321228,-0.1796264648,1.773321311
96988,71.74588796,8.298143921,-3.597169647,-7.226222992,11.57657638
195193,13.78589,-0.4147874451,4.403393097,-1.308429108,4.612364483
40575,54.76327971,3.600911865,-8.355325012,-0.3421884155,9.10467546
159921,45.212892,-1.671723633,-0.1178050232,-0.6724017334,1.805730328
234531,75.04700754,1.320254517,-0.1481918335,1.838476868,2.268265858
110361,68.03362921,7.450756073,-6.644532623,1.80898819,10.14573891
183078,16.21263254,16.16503464,-19.06719955,5.380261688,25.5697802
188093,9.546852333,13.57676697,-6.998546448,5.094056854,16.10148033
165272,26.21204796,-1.086440735,5.485193481,-2.707868958,6.212910372
225524,61.87318154,18.98472107,7.296726379,16.55662033,26.22562729
47993,15.51481663,-1.943708038,-6.705455933,-2.071242828,7.28225151
177972,24.63529917,-2.217937775,-3.853736115,-1.501976624,4.693235961
100278,104.7573995,10.71352112,-7.75761795,4.285139008,13.90404931
172730,40.24771442,-0.6518943787,-0.3064128113,0.1052311707,0.7279620121
18046,38.91646879,-2.702330475,-12.56546997,-0.502205658,12.86257502
129724,24.53705004,-2.416724396,-4.866679688,-1.829645233,5.733474485
45614,47.79957096,-1.466949463,-7.856711884,-1.531465302,8.137889672
183456,19.96739229,17.46118927,-21.6756752,5.921087036,28.4567619
231322,42.85279317,22.46947449,1.823807373,7.903714142,23.88874744
178052,25.42995904,-4.1140448,-15.31600021,4.21583313,16.40970677
128304,10.25819888,-0.3791615295,4.042044525,1.861379242,4.466163912
17835,36.79459838,-0.6499484253,-8.76861557,-1.868115234,8.988932445
71072,85.62863537,0.7604187012,7.3774086,-1.439107361,7.554827877
196955,31.46351488,-0.1637594604,-0.01047821045,-0.5816903687,0.6043927852
148859,0.1036799166,-0.4647834778,4.969515839,8.238867188,9.632810799
114736,13.74153879,-7.014563141,0.2088157654,1.227297821,7.124181358
50441,39.83180683,7.500901794,-1.938169556,-0.3947291565,7.757308816
189208,20.62246979,-0.505947876,0.1829196167,-0.4390370178,0.6944035875
230302,32.61970442,11.71883057,-0.6397695923,4.774172058,12.67016234
166347,36.89056367,2.138153687,-16.08090958,1.783990173,16.32023207
131948,46.9009325,0.1636097717,-10.12299911,2.22661972,10.36627776
108318,47.53370167,10.91380463,-3.22010376,4.549788666,12.25482666
66677,41.53114683,-0.01466949463,6.278244324,-2.528841248,6.768427073
17568,34.10958129,0.1760339355,-9.908495178,0.9419911194,9.954728118
171619,29.21184929,22.28176483,-2.44546463,-1.409169617,22.45981078
219399,0.4223265,14.1722287,-3.356769562,0.8346643066,14.58823611
83142,94.91806329,7.832013245,1.540147247,-1.144070892,8.06358377
85612,119.7012911,10.52281769,-2.007774811,0.7316784668,10.73760705
107444,38.76363379,6.210884399,-10.04501129,3.054548035,12.19867208
113614,2.483372167,-5.144052887,-2.643802185,1.107995911,5.888856004
19842,56.97756717,-2.214195557,-10.82294357,-3.021317139,11.45282178
194545,7.28470875,0.763711853,9.62049408,-2.105072479,9.877676461
114325,9.617561792,-6.791976013,-1.843865662,3.93381958,8.062612184
86640,130.015928,6.031557312,0.6376739502,-0.7228468323,6.108094565
182583,11.29567954,2.592309265,0.8918453979,-0.7189549255,2.834140386
53827,22.33229283,12.01641174,-9.988428955,-0.7638615417,15.64437115
156713,12.95328904,31.21264297,-16.7455275,3.222498779,35.5672078
101310,115.1124186,14.15561325,-7.263794861,-5.782624969,16.92875819
193665,64.89499292,-3.742367706,-1.248553619,0.7821235657,4.021929818
70461,79.49810625,1.221160583,6.25055191,-2.221081238,6.744911728
159677,42.75924392,8.407865753,0.8357121277,-4.687502289,9.662468576
138843,43.06979546,-0.7469467163,-8.39768692,-5.701343994,10.17764208
182759,13.04392983,1.306632843,0.1853146362,0.6866221619,1.487642731
132251,49.94784525,1.100062408,3.700754242,-1.710942078,4.222918665
193353,61.79581992,15.89379868,2.630779266,-9.426647186,18.66535596
122426,90.90236817,-10.20652542,-2.379302216,0.7720944214,10.50858554
210213,81.21994463,5.500461731,0.6782395935,0.04086502075,5.542270126
145925,45.23545183,-1.70944519,-14.51007614,-1.961820374,14.74154848
87599,139.6382374,3.068618774,3.732338562,6.178252258,7.843313923
119732,63.87109246,-6.022725677,-4.603377228,0.8270301819,7.625502305
116342,29.85610733,-7.090006256,-0.7903564453,3.954027557,8.156419922
232928,58.96491742,37.68233917,1.350491638,7.14105011,38.37677826
51706,1.26332,-2.010918274,2.634222107,4.390968933,5.501229552
93936,41.12260067,12.05263641,-6.458319855,-1.97858551,13.81632153
218161,67.71255525,-0.1907034302,-0.6027964783,1.478325806,1.607849054
232349,53.15612029,13.77600266,-2.259850616,0.07334747314,13.96032069
65001,24.71499458,0.3990701294,16.88234299,-0.7918533325,16.90561426
172639,39.34378754,10.33001862,-3.992198181,1.55855896,11.18373985
135374,8.186108958,-0.4143383789,-0.4540058899,-0.6405180359,0.8877279958
60828,39.55738021,-1.855242004,-13.13054489,-6.309828644,14.68560756
55832,42.24885708,5.699098663,-4.467160492,-0.5827381897,7.264628843
232295,52.61436829,-2.202519836,-1.065035248,0.7547305298,2.560275743
12746,56.36052704,-5.182822266,-8.190966797,-1.425635376,9.797245528
100828,110.2760568,14.00323013,-8.420888672,-2.906356201,16.59664805
88589,149.5715979,5.387596436,0.715512085,-2.71220993,6.074062529
19191,50.43090788,0.9430389404,-9.047934723,-1.007105713,9.15252463
96251,64.35093617,9.267827454,-3.454366608,0.6508465576,9.912057083
211605,1.93513225,4.771028595,-8.670270081,0.9071136475,9.937763948
47777,13.36919421,4.356839905,-2.009122009,-0.7899073792,4.862363507
193968,1.495846167,-7.698191528,8.060438232,5.800587616,12.56501628
172124,34.228154,-1.164129181,0.769100647,0.2302212524,1.414112577
19520,53.73943275,-0.577199707,-8.229137421,-1.300944672,8.351306438
106920,33.50555754,5.231920166,-8.430169373,1.643432465,10.05691874
218337,69.47841225,-3.738176422,-4.455335083,-3.615880737,6.848252855
12035,49.21035567,-5.735473022,-8.696315918,-0.007185058594,10.41737073
76014,23.39765479,9.090296631,-5.651797028,5.966442719,12.25458042
111862,83.09473883,11.07501938,-7.766299896,3.977229309,14.09928442
114685,13.22980529,-7.319029999,-0.5105882263,2.632126465,7.794677042
67030,45.07297887,-1.835782471,7.848628693,-1.295705566,8.163940381
25990,45.19559504,7.047794037,-3.472329254,-4.0251297,8.827804956
106052,24.79552771,6.265670471,-9.133257294,4.31762146,11.88767725
206661,45.5840355,-7.296726379,-2.593656464,3.460803223,8.482124065
99356,95.50613617,2.797532501,-2.159409485,2.393073578,4.268025137
28647,7.876143667,2.26643692,-9.602232056,0.4258644104,9.875269984
173469,47.58838488,0.3011737061,0.7939489746,-0.4755610657,0.973251716
32757,49.20786263,1.071172485,-7.805518341,-1.017883301,7.944155933
162489,71.03647237,4.650080109,-3.480262756,8.695866852,10.45722593
62296,54.13989208,0.9463320923,-6.079008636,-2.791694641,6.755993591
36731,16.57886883,-5.582341461,-8.548722839,-6.115682373,11.9014608
142591,11.70776663,0.119002533,1.163380737,-0.589025116,1.309414728
98354,85.45216883,8.960666199,-3.139421539,-2.161355438,9.737605643
7771,6.329504917,-2.574795685,-8.372239838,-0.3995191956,8.768328707
162443,70.57390125,5.707780609,-1.092278595,-0.2639012146,5.81734268
225711,63.74928629,2.259251862,-4.588108978,-7.670798492,9.219333625
67733,52.12654896,1.307381287,7.20182373,-3.505111084,8.115498419
351,3.530223042,-3.555556183,-7.994575195,5.120551758,10.1378135
71568,90.6053075,0.3634442139,6.580765228,-1.68729126,6.80334583
56606,49.93732258,10.94898148,-5.321284332,0.06316864014,12.17375261
23985,25.03238296,5.232219543,-5.038522339,-3.771257629,8.184449451
228963,19.18629379,26.45448761,-9.454189911,10.92682755,30.14327756
80543,68.84049475,6.304888916,-1.249152374,1.425036621,6.583519976
180097,45.74342067,0.1636097717,-0.3583547974,0.2535726929,0.4684927201
75378,17.01615092,8.292006683,-2.372416534,1.188678131,8.706244354
6248,62.82964371,-0.8153544617,-9.617500305,0.2447410583,9.655102962
74409,7.293364792,8.684789886,-5.891748047,2.87611908,10.88165113
30396,25.46475767,1.259780273,-8.629704437,-0.9150471497,8.769045347
118209,48.58947154,-7.649093628,-0.4908293152,1.506167908,7.811407588
229135,20.91186854,-3.17205368,-1.985770569,0.599203949,3.790020406
61521,46.44135358,-0.2016307068,-11.28188919,-7.290140076,13.43383121
