"Time (s)","Acceleration x (m/s^2)","Acceleration y (m/s^2)","Acceleration z (m/s^2)","Absolute acceleration (m/s^2)"
3.989125020E-3,6.819967804E0,-6.246510315E-1,7.330256653E0,1.003169040E1
1.404512499E-2,6.655310211E0,-7.229965210E-1,7.377558289E0,9.962140547E0
2.410212503E-2,6.489006042E0,-8.068222046E-1,7.280859375E0,9.786167520E0
3.415812500E-2,6.555617523E0,-7.875123596E-1,7.220085754E0,9.783963161E0
4.421512503E-2,6.839577026E0,-7.939489746E-1,7.221582642E0,9.978047140E0
5.427112500E-2,7.078480225E0,-8.402027893E-1,7.276368713E0,1.018608682E1
6.432812498E-2,7.304809570E0,-8.918453979E-1,7.550299072E0,1.054336982E1
7.438474998E-2,7.348967743E0,-8.421487427E-1,7.752977600E0,1.071565225E1
8.444175002E-2,7.284601593E0,-7.909552002E-1,7.933502197E0,1.079960590E1
9.449774999E-2,6.921905823E0,-8.235873413E-1,8.062084808E0,1.065778062E1
1.045537500E-1,6.322252808E0,-8.430468750E-1,8.015531616E0,1.024355191E1
1.146107500E-1,5.893694000E0,-8.961863708E-1,7.908204803E0,9.903458093E0
1.246667500E-1,5.889652405E0,-1.040635986E0,7.535779266E0,9.620753497E0
1.347237500E-1,6.446644135E0,-1.158441010E0,7.348967743E0,9.844213176E0
1.447797500E-1,6.707401886E0,-1.214723969E0,7.152127075E0,9.880167816E0
1.548367500E-1,6.221512299E0,-1.343456268E0,6.519093475E0,9.111019140E0
1.648927500E-1,6.217919769E0,-1.479822693E0,6.334078217E0,8.998497003E0
1.749497500E-1,6.761888580E0,-1.401236115E0,6.857240295E0,9.731821222E0
1.850057500E-1,7.301067352E0,-1.177002411E0,7.084617462E0,1.024122667E1
1.950627500E-1,7.746241608E0,-1.175355835E0,6.906787262E0,1.044458858E1
2.051187500E-1,8.342900848E0,-1.196461945E0,6.486760712E0,1.063548684E1
2.151747500E-1,8.597521362E0,-1.444645844E0,6.275100861E0,1.074156720E1
2.252317500E-1,8.814420319E0,-1.950294342E0,6.634353790E0,1.120322738E1
2.352877500E-1,9.220825195E0,-1.588796082E0,6.813830566E0,1.157480787E1
2.453447500E-1,8.860374756E0,-1.099014587E0,6.790329437E0,1.121706948E1
2.554007500E-1,8.037685547E0,-9.680369568E-1,6.701564026E0,1.050963581E1
2.654577500E-1,8.204289093E0,-7.879614258E-1,6.773713989E0,1.066838525E1
2.755137500E-1,8.514593811E0,-5.608836365E-1,6.782395935E0,1.090017398E1
2.855707500E-1,8.500672760E0,-2.495310974E-1,6.798412628E0,1.088770487E1
2.956267500E-1,8.226892090E0,1.022373962E-1,6.885830841E0,1.072878708E1
3.056837500E-1,7.744744720E0,3.728746033E-1,6.969955902E0,1.042594799E1
3.157397500E-1,7.296876068E0,4.451742554E-1,7.029981079E0,1.014215039E1
3.257957500E-1,6.985224152E0,4.555027771E-1,7.044351196E0,9.930947740E0
3.358527500E-1,6.753506012E0,4.192781067E-1,7.080126801E0,9.793560798E0
3.459087500E-1,6.594386902E0,3.192860413E-1,7.104076996E0,9.698236548E0
3.559657500E-1,6.439309387E0,3.484753418E-1,6.939269714E0,9.473098998E0
3.660217500E-1,6.106102295E0,4.257147217E-1,6.763684845E0,9.122124256E0
3.760787500E-1,5.858068085E0,5.674699402E-1,6.770121460E0,8.970703897E0
3.861347500E-1,5.434449005E0,5.486091614E-1,6.531966705E0,8.514739987E0
3.961917500E-1,4.938979340E0,2.616558838E-1,6.696474609E0,8.324947622E0
4.062477500E-1,4.352498932E0,6.900650024E-2,6.544241180E0,7.859777444E0
4.163047500E-1,4.594545593E0,1.496887207E-1,6.384373627E0,7.867177545E0
4.263607500E-1,5.263504486E0,2.656974792E-1,6.502627716E0,8.370139894E0
4.364167500E-1,5.703289948E0,3.375480652E-1,6.471791840E0,8.632817879E0
4.464737500E-1,6.027066650E0,2.906954956E-1,6.251150665E0,8.688320949E0
4.565297500E-1,6.214177551E0,1.216969299E-1,5.912105713E0,8.578100416E0
4.665867500E-1,6.168672180E0,-1.718426514E-1,5.949677582E0,8.572088992E0
4.766427500E-1,5.727539520E0,-3.622467041E-1,6.086493073E0,8.365484418E0
4.866997500E-1,5.719456329E0,-5.803431702E-1,6.589896240E0,8.745039243E0
4.967557500E-1,8.019423523E0,-1.266665955E0,7.652237091E0,1.115671676E1
5.068127500E-1,7.780370636E0,-1.135688324E0,6.920109558E0,1.047434349E1
5.168687500E-1,2.291734314E0,-1.966909790E-1,7.195985870E0,7.554663868E0
5.269257500E-1,1.327589264E0,-4.210743713E-1,8.741970978E0,8.852223080E0
5.369817500E-1,4.656217346E0,-1.619482269E0,9.196425934E0,1.043443016E1
5.470377500E-1,4.631818085E0,-6.177653503E-1,6.766528931E0,8.223216315E0
5.570947500E-1,3.928879852E0,3.457809448E-2,9.275311890E0,1.007316749E1
5.671507500E-1,3.579955444E0,2.513273621E-1,1.099014587E1,1.156125221E1
5.772077500E-1,3.214415588E0,4.049079895E-1,1.050440598E1,1.099267770E1
5.872637500E-1,1.599573669E0,1.472937012E-1,1.065619034E1,1.077658220E1
5.973207500E-1,4.894821167E-1,-2.790197754E-1,1.075408676E1,1.076883591E1
6.073767500E-1,6.650669861E-1,-5.786965942E-1,1.059826080E1,1.063486417E1
6.174337500E-1,1.019978943E0,-2.481838989E-1,9.932595062E0,9.987912543E0
6.274897500E-1,1.135089569E0,1.812730408E-1,9.234746246E0,9.306010234E0
6.375467500E-1,1.224154358E0,3.869453430E-1,8.872200165E0,8.964609102E0
6.476027500E-1,7.650590515E-1,6.713539124E-1,8.873846741E0,8.932031539E0
6.576597500E-1,-5.665718079E-1,1.077908478E0,9.364526367E0,9.443370393E0
6.677157500E-1,-1.848655701E0,1.692081299E0,1.007629623E1,1.038327563E1
6.777717500E-1,-2.012265472E0,2.357747040E0,1.059975769E1,1.104368809E1
6.878287500E-1,-1.838776245E0,2.712509308E0,1.060095520E1,1.109590267E1
6.978847500E-1,-2.175875244E0,2.905458069E0,1.053314621E1,1.114106318E1
7.079417500E-1,-2.195484467E0,2.757415924E0,9.846823425E0,1.045865317E1
7.179977500E-1,-1.343007202E0,2.490670624E0,9.714797974E0,1.011851808E1
7.280547500E-1,-2.269281006E-1,1.977388000E0,9.869576111E0,1.006827156E1
7.381107500E-1,-6.346801758E-2,1.559307404E0,9.108558655E0,9.241282840E0
7.481677500E-1,-1.794767761E-1,1.480571136E0,8.594078522E0,8.722527641E0
7.582237500E-1,-6.219566345E-1,1.409618683E0,8.555758209E0,8.693379862E0
7.682807500E-1,-2.224224701E0,1.292711792E0,8.150700531E0,8.547057882E0
7.783367500E-1,-2.928659821E0,1.259181519E0,7.738008728E0,8.368952474E0
7.883927500E-1,-2.141596527E0,1.467548218E0,7.884404297E0,8.300841197E0
7.984497500E-1,-1.125958557E0,1.762135620E0,7.941286011E0,8.211999033E0
8.085057500E-1,-2.868035889E-1,1.905836792E0,7.667205963E0,7.905726877E0
8.185627500E-1,-3.275189209E-1,1.854942627E0,7.341932373E0,7.579713172E0
8.286187500E-1,-1.343755646E0,1.820065155E0,7.134912872E0,7.485004883E0
8.386757500E-1,-2.648442535E0,2.121837616E0,6.750512238E0,7.555518394E0
8.487317500E-1,-3.658092957E0,2.641706543E0,6.112538910E0,7.597591030E0
8.587887500E-1,-4.547693024E0,3.261268158E0,5.460195465E0,7.818639035E0
8.688447500E-1,-5.031786346E0,3.774850159E0,5.063520355E0,8.075122658E0
8.789017500E-1,-5.023104401E0,3.877686310E0,4.667593689E0,7.877465315E0
8.889577500E-1,-4.978048096E0,3.504811707E0,3.967050476E0,7.266509301E0
8.990137500E-1,-5.352419586E0,2.854114838E0,3.203638000E0,6.859858845E0
9.090707500E-1,-5.603746948E0,2.186952209E0,2.772534485E0,6.623570585E0
9.191267500E-1,-5.422773285E0,1.729653168E0,2.649190979E0,6.278246811E0
9.291837500E-1,-5.543572083E0,1.719174957E0,2.774330750E0,6.433013685E0
9.392397500E-1,-5.879024506E0,1.769320679E0,3.178789673E0,6.913619066E0
9.492967500E-1,-6.276298370E0,1.634002075E0,3.747457123E0,7.490348383E0
9.593527500E-1,-6.752757568E0,1.347348175E0,4.137994995E0,8.033559887E0
9.694097500E-1,-7.317084045E0,1.136885834E0,3.967649231E0,8.400861191E0
9.794657500E-1,-8.483757935E0,2.726130981E0,3.788920898E0,9.683070814E0
9.895227500E-1,-7.797884216E0,2.361489258E0,3.478765869E0,8.859200965E0
9.995787500E-1,-8.342451782E0,1.715432739E0,3.408262482E0,9.173628746E0
1.009635750E0,-8.568332062E0,1.262324982E0,3.022215271E0,9.172980095E0
1.019691750E0,-7.983947296E0,7.177574158E-1,2.368374939E0,8.358695472E0
1.029747750E0,-8.208929443E0,7.852670288E-1,2.141297150E0,8.519877957E0
1.039804750E0,-8.923393707E0,1.319206696E0,2.206711121E0,9.286379032E0
1.049860750E0,-9.695637817E0,2.102827148E0,2.083068237E0,1.013737875E1
1.059917750E0,-1.064750839E1,2.833308105E0,1.453327789E0,1.111347072E1
1.069973750E0,-1.151330795E1,3.447181549E0,2.450404358E-1,1.202078889E1
1.080030375E0,-1.158845169E1,3.680097198E0,-1.798659668E0,1.229107418E1
1.090086375E0,-1.115016312E1,3.766617279E0,-3.958218842E0,1.241696580E1
1.100143375E0,-1.040216858E1,4.060905304E0,-5.986201630E0,1.267006997E1
1.110199375E0,-9.729018402E0,5.047952728E0,-7.970325623E0,1.355218493E1
1.120256375E0,-9.495354309E0,6.368356934E0,-9.773925018E0,1.504152033E1
1.130312375E0,-1.041219772E1,7.012766876E0,-1.052925430E1,1.638468666E1
1.140368375E0,-1.193932205E1,7.241640930E0,-9.956245880E0,1.714979902E1
1.150425375E0,-1.302740936E1,7.005881195E0,-9.057215424E0,1.734442035E1
1.160481375E0,-1.303010376E1,6.488556976E0,-8.088130646E0,1.665241223E1
1.170538375E0,-1.225681183E1,6.473737793E0,-6.706503754E0,1.539856843E1
1.180594375E0,-1.119162689E1,6.419101410E0,-5.071154480E0,1.386268312E1
1.190651375E0,-1.011865814E1,6.217171326E0,-3.903432770E0,1.250108992E1
1.200707375E0,-9.208999786E0,5.864055634E0,-3.066373444E0,1.133999434E1
1.210764375E0,-8.939260712E0,5.259911957E0,-2.110461273E0,1.058447460E1
1.220820375E0,-9.175469513E0,4.246669006E0,-1.181942139E0,1.017941185E1
1.230877375E0,-9.258397064E0,3.088527374E0,-6.460565186E-1,9.781324377E0
1.240933375E0,-9.370663605E0,2.188000031E0,-4.204756165E-1,9.631899100E0
1.250990375E0,-9.211694183E0,1.427132263E0,-3.820056152E-1,9.329412871E0
1.261046375E0,-8.828790436E0,7.963439941E-1,-5.840853882E-1,8.883853897E0
1.271102375E0,-8.476722565E0,1.553768921E-1,-7.779322815E-1,8.513762156E0
1.281159375E0,-8.127648468E0,-2.189945984E-1,-1.072220306E0,8.200992906E0
1.291215375E0,-7.760162659E0,-4.258644104E-1,-1.724563751E0,7.960879670E0
1.301272375E0,-7.406747589E0,-7.128176880E-1,-2.631827087E0,7.892688561E0
1.311328375E0,-7.099586334E0,-9.792636108E-1,-3.581003265E0,8.011658238E0
1.321385375E0,-7.172634430E0,-1.235081635E0,-4.271217957E0,8.438922570E0
1.331441375E0,-7.312294006E0,-1.293609924E0,-4.762496338E0,8.821816232E0
1.341498375E0,-7.774682465E0,-1.099463654E0,-5.096152496E0,9.360837463E0
1.351554375E0,-8.533753967E0,-7.885601807E-1,-4.940775604E0,9.892322655E0
1.361611375E0,-8.891510010E0,-6.093827820E-1,-4.733307037E0,1.009130780E1
1.371667375E0,-9.827513580E0,-1.838177490E-1,-4.492906952E0,1.080740603E1
1.381723375E0,-1.088716003E1,4.101470947E-1,-4.424798584E0,1.175913759E1
1.391780375E0,-1.082668579E1,5.495072937E-1,-4.464915161E0,1.172410128E1
1.401836375E0,-1.042297531E1,8.723858643E-1,-4.638105011E0,1.144165589E1
1.411893375E0,-9.873917084E0,1.709295502E0,-4.956642609E0,1.117963486E1
1.421949375E0,-9.138346710E0,2.164349213E0,-5.142556000E0,1.070699166E1
1.432006375E0,-8.369695129E0,2.363584900E0,-5.573060760E0,1.032944027E1
1.442062375E0,-8.358318787E0,2.763253784E0,-6.248156891E0,1.079520861E1
1.452119375E0,-8.539591827E0,3.297492828E0,-6.822961578E0,1.141713152E1
1.462175375E0,-8.338110809E0,3.541335754E0,-7.213798828E0,1.158033006E1
1.472232375E0,-8.078251190E0,3.692371674E0,-7.946974182E0,1.191831152E1
1.482288375E0,-7.908354492E0,3.670217743E0,-8.742420044E0,1.234675979E1
1.492345375E0,-7.645501099E0,3.772155762E0,-9.512418823E0,1.277376053E1
1.502401375E0,-7.339387665E0,3.943100281E0,-1.051293823E1,1.341404195E1
1.512457375E0,-6.675667877E0,4.026027832E0,-1.120060822E1,1.364650381E1
1.522514375E0,-6.280639343E0,4.022135925E0,-1.141421402E1,1.363481902E1
1.532570375E0,-6.118676147E0,3.668271790E0,-1.178424454E1,1.377544319E1
1.542627375E0,-5.261857910E0,2.826272736E0,-1.216235825E1,1.354983116E1
1.552683375E0,-3.995790710E0,1.601968689E0,-1.221714432E1,1.295342666E1
1.562740375E0,-3.053649902E0,-2.809657288E-1,-1.221310272E1,1.259220384E1
1.572796375E0,-3.491938477E0,-2.692600708E0,-1.128413452E1,1.211509079E1
1.582853375E0,-5.736820221E0,-4.459825745E0,-8.332422638E0,1.105578667E1
1.592909375E0,-6.547983398E0,-2.794538727E0,-5.852978668E0,9.216446852E0
1.602966375E0,-6.087540894E0,9.716294861E-1,-5.323529663E0,8.145071274E0
1.613022375E0,-6.416407013E0,2.398013306E0,-6.018085327E0,9.118009529E0
1.623079375E0,-7.080426178E0,2.295925598E0,-6.577472076E0,9.933118751E0
1.633135375E0,-7.078031158E0,2.836152191E0,-6.231691132E0,9.847652446E0
1.643191375E0,-7.457492065E0,3.304977264E0,-5.672304382E0,9.935396300E0
1.653248375E0,-7.582931213E0,3.298840027E0,-5.716911621E0,1.005317213E1
1.663304375E0,-7.286397858E0,3.573518829E0,-5.698948975E0,9.916635013E0
1.673361375E0,-7.006479950E0,4.031716003E0,-5.828280029E0,9.965658198E0
1.683417375E0,-6.484665070E0,4.228556671E0,-6.598428497E0,1.017206131E1
1.693474375E0,-6.250851288E0,4.657714233E0,-6.822063446E0,1.035895716E1
1.703530375E0,-6.516848145E0,5.663323059E0,-6.576573944E0,1.085328810E1
1.713587375E0,-6.530170441E0,6.298003235E0,-6.317163391E0,1.105506780E1
1.723643375E0,-5.744454346E0,6.077362061E0,-6.540049896E0,1.061627703E1
1.733700375E0,-6.048921204E0,5.827681274E0,-5.638325043E0,1.011642358E1
1.743756375E0,-6.643035736E0,5.925727386E0,-3.856879578E0,9.701530236E0
1.753813375E0,-7.029232635E0,4.968767395E0,-2.556683350E0,8.979721077E0
1.763869375E0,-8.055348816E0,4.752616882E0,-2.434088287E0,9.664408806E0
1.773925375E0,-9.464967499E0,4.456831970E0,-2.614014130E0,1.078341462E1
1.783982375E0,-9.386380920E0,2.804867249E0,-4.870421906E0,1.094040386E1
1.794038375E0,-8.184380493E0,2.389181671E0,-5.498964844E0,1.014548606E1
1.804095375E0,-6.732848969E0,1.694027252E0,-6.334377594E0,9.398155301E0
1.814151375E0,-6.431824951E0,1.478475494E0,-6.250701599E0,9.089858771E0
1.824208375E0,-6.727759552E0,7.188052368E-1,-5.447022858E0,8.686166448E0
1.834264375E0,-7.272925873E0,5.966592407E-1,-3.974534912E0,8.309535533E0
1.844321375E0,-7.315736847E0,-7.113208008E-1,-4.141288147E0,8.436601828E0
1.854377375E0,-6.890620880E0,-9.101074219E-1,-4.252506866E0,8.148175641E0
1.864434375E0,-6.744075623E0,-4.174818420E-1,-4.068240051E0,7.887168326E0
1.874490375E0,-6.997348938E0,1.338217163E-1,-3.672014008E0,7.903447810E0
1.884546375E0,-7.360344086E0,2.829116821E-2,-3.077600098E0,7.977912497E0
1.894603375E0,-8.881331177E0,-8.592132568E-1,-2.245330811E0,9.200967413E0
1.904659375E0,-1.030696655E1,-1.821262665E0,-1.326691132E0,1.055038703E1
1.914716375E0,-1.020368134E1,-2.078278198E0,-7.104226685E-1,1.043738729E1
1.924772375E0,-9.030720520E0,-2.319127350E0,-6.279441833E-1,9.344869109E0
1.934829375E0,-8.820856934E0,-2.746488647E0,-1.046473846E0,9.297624667E0
1.944885375E0,-6.208788757E0,-2.674188995E0,-7.146139526E-1,6.797868616E0
1.954942375E0,-5.959557037E0,-2.223176880E0,-2.559527435E0,6.856385069E0
1.964998375E0,-7.262148285E0,-2.779420166E0,-3.661835175E0,8.594941013E0
1.975055375E0,-8.289461975E0,-3.233725433E0,-3.042572937E0,9.403691301E0
1.985111375E0,-8.335566101E0,-3.551215210E0,-3.031495972E0,9.554201145E0
1.995168375E0,-8.307723999E0,-3.838318176E0,-2.899021454E0,9.599754677E0
2.005224375E0,-9.727671204E0,-4.059408417E0,-1.868414612E0,1.070501550E1
2.015281375E0,-1.177601166E1,-4.308640137E0,-3.333567810E-1,1.254392112E1
2.025337375E0,-1.284179535E1,-4.276457062E0,1.465452576E-1,1.353592510E1
2.035393375E0,-1.364906662E1,-3.081492004E0,-1.169817352E0,1.404140610E1
2.045450375E0,-1.589619370E1,-1.237326965E0,-1.817071381E0,1.604748268E1
2.055506375E0,-1.719474335E1,-1.104104004E0,-1.497935028E0,1.729514538E1
2.065563375E0,-1.588511673E1,-2.090702362E0,-2.731070709E0,1.625320636E1
2.075618750E0,-1.401834869E1,-2.657274170E0,-2.700085144E0,1.452121434E1
2.085675750E0,-1.291409500E1,-3.195105743E0,-9.541159058E-1,1.333764925E1
2.095731750E0,-1.359203522E1,-3.854035492E0,3.017724609E-1,1.413110320E1
2.105788750E0,-1.354802673E1,-4.257446594E0,-4.797523499E-1,1.420932941E1
2.115844750E0,-1.333232529E1,-4.361779633E0,-5.234614563E-1,1.403745102E1
2.125901750E0,-1.193543015E1,-4.332590332E0,-1.354084167E0,1.276947045E1
2.135957750E0,-1.081486038E1,-4.425097961E0,-2.515369263E0,1.195281471E1
2.146014750E0,-9.805509338E0,-4.677622833E0,-1.932780762E0,1.103466403E1
2.156070750E0,-9.689500580E0,-4.569397888E0,-1.478026428E0,1.081435993E1
2.166126750E0,-8.058342590E0,-3.948339386E0,-2.255210266E0,9.252688396E0
2.176183750E0,-7.687264252E0,-3.928580475E0,-1.879491577E0,8.835172031E0
2.186239750E0,-8.271948395E0,-3.730991364E0,-5.486091614E-1,9.091006480E0
2.196296750E0,-8.969198456E0,-2.914589081E0,2.950364685E-1,9.435486048E0
2.206352750E0,-8.417146454E0,-2.290686493E0,-1.496887207E0,8.850777951E0
2.216409750E0,-7.931705933E0,-1.905238037E0,-2.574196930E0,8.553851812E0
2.226465750E0,-7.493267670E0,-2.204166412E0,-1.381776581E0,7.932005828E0
2.236522750E0,-9.072633362E0,-2.696342926E0,-4.872367859E-1,9.477359388E0
2.246578750E0,-8.954678650E0,-2.152374115E0,8.301736450E-1,9.247062903E0
2.256635750E0,-8.082143097E0,-1.363813934E0,4.822970581E-1,8.210580731E0
2.266691750E0,-6.067781982E0,-1.812880096E0,-1.370400238E0,6.479391117E0
2.276748750E0,-5.634882202E0,-1.781295776E0,-1.800306244E0,6.177864894E0
2.286804750E0,-5.939648438E0,-1.906585236E0,-1.418899384E0,6.397481245E0
2.296860750E0,-5.618266754E0,-2.208058319E0,-1.400337982E0,6.196885454E0
2.306917750E0,-5.621709595E0,-2.356399841E0,-1.115330658E0,6.196789609E0
2.316973750E0,-6.322252808E0,-1.848955078E0,-6.891668701E-1,6.623025473E0
2.327030750E0,-6.658154297E0,-1.235680389E0,-7.831713867E-1,6.816984824E0
2.337086750E0,-7.014263763E0,-1.110390930E0,-1.050665131E0,7.178910877E0
2.347143750E0,-7.059619446E0,-1.035845947E0,-1.416803741E0,7.274512794E0
2.357199750E0,-7.095544739E0,-1.602717133E0,-1.956581268E0,7.532839279E0
2.367256750E0,-5.918991394E0,-1.688189392E0,-2.126777344E0,6.512113667E0
2.377312750E0,-6.342909851E0,-1.515747986E0,-1.817071381E0,6.769914751E0
2.387369750E0,-7.771688690E0,-1.454076233E0,-1.365610199E0,8.023613525E0
2.397425750E0,-7.701634369E0,-2.346221008E0,1.011895752E-1,8.051718096E0
2.407482750E0,-8.523874512E0,-2.797682190E0,1.261875916E-1,8.972144985E0
2.417538750E0,-7.320826263E0,-2.868934021E0,3.794609070E-1,7.872056286E0
2.427595750E0,-6.318510590E0,-1.773661652E0,2.489323425E-1,6.567451487E0
2.437651750E0,-8.438851318E0,-1.888323212E0,-2.312990112E0,8.951530561E0
2.447707750E0,-9.536518707E0,-3.376079407E0,-2.329455872E0,1.038120734E1
2.457764750E0,-1.000429596E1,-3.874093781E0,-1.701062622E0,1.086223524E1
2.467820750E0,-1.037178177E1,-4.073329468E0,-2.171534271E0,1.135259579E1
2.477877750E0,-9.454489288E0,-3.827241211E0,-1.369202728E0,1.029125158E1
2.487933750E0,-7.767198029E0,-4.042493591E0,-1.962568817E0,8.973449505E0
2.497990750E0,-7.129224701E0,-4.901257782E0,-2.128872986E0,8.909560756E0
2.508046750E0,-7.201075287E0,-5.407205658E0,-1.035396881E0,9.064513501E0
2.518103750E0,-8.477920074E0,-6.243366852E0,-8.584648132E-1,1.056369823E1
2.528159750E0,-1.082563797E1,-7.743846588E0,-2.942580872E0,1.363159490E1
2.538216750E0,-1.637145538E1,-1.084734283E1,-5.901926880E0,2.050663646E1
2.548272750E0,-1.665316956E1,-1.349249222E1,-5.384452972E0,2.209904379E1
2.558329750E0,-1.063448547E1,-1.250364853E1,-2.338287506E0,1.658014162E1
2.568385750E0,-6.294859772E0,-1.086770050E1,-9.199868774E-1,1.259279753E1
2.578441750E0,-4.697232056E0,-9.970615997E0,-1.030157776E0,1.106970629E1
2.588498750E0,-4.953798523E0,-9.241482239E0,-2.028431854E0,1.067987123E1
2.598554750E0,-4.825515289E0,-8.318052521E0,-3.081192627E0,1.009798710E1
2.608611750E0,-4.984484711E0,-7.387587433E0,-2.982098694E0,9.397576737E0
2.618667750E0,-4.499642944E0,-6.492448883E0,-2.623743896E0,8.323623680E0
2.628724750E0,-3.975433044E0,-5.971532135E0,-2.297422485E0,7.532689693E0
2.638780750E0,-4.212390289E0,-5.868695984E0,-2.283202057E0,7.576201960E0
2.648837750E0,-3.877386932E0,-5.631589050E0,-2.082020416E0,7.147288554E0
2.658893750E0,-4.505780182E0,-5.061424713E0,-1.434916077E0,6.926691802E0
2.668950750E0,-4.383933563E0,-5.122797089E0,-1.315314789E0,6.869641657E0
2.679006750E0,-3.796105957E0,-5.807323608E0,-7.173083496E-1,6.974952272E0
2.689063750E0,-4.117337952E0,-6.034551086E0,-5.111869812E-1,7.323222703E0
2.699119750E0,-4.544250183E0,-6.418352966E0,-8.159532166E-1,7.906405263E0
2.709175750E0,-4.453389130E0,-6.457870789E0,-1.323397980E0,7.955385099E0
2.719232750E0,-4.820575562E0,-7.158863068E0,-1.781595154E0,8.812567756E0
2.729288750E0,-4.336631927E0,-7.770940247E0,-1.777553558E0,9.074887627E0
2.739345750E0,-4.750521240E0,-8.234825592E0,-1.838476868E0,9.682964514E0
2.749401750E0,-3.206931152E0,-4.956193542E0,-2.210752716E0,6.303625101E0
2.759458750E0,-2.152972870E0,-3.658991089E0,-1.919308777E0,4.659104436E0
2.769514750E0,-2.127525787E0,-3.876788177E0,-1.906884613E0,4.815813688E0
2.779571750E0,-2.506238251E0,-3.798201599E0,-1.724713440E0,4.866436274E0
2.789627750E0,-2.666255493E0,-4.902155914E0,-9.731263733E-1,5.664541102E0
2.799684750E0,-2.982847137E0,-5.974825287E0,-1.084195404E0,6.765455929E0
2.809740750E0,-5.379812622E-1,-5.062771912E0,-1.180295563E0,5.226297053E0
2.819797750E0,8.734336853E-1,-5.766608276E0,-3.556604004E-1,5.843214161E0
2.829853750E0,-4.456233215E-1,-4.764292603E0,-6.635700989E-1,4.830878742E0
2.839909750E0,-5.619314575E-1,-3.890260162E0,-7.800279236E-1,4.007285198E0
2.849966750E0,7.512876892E-1,-4.330345001E0,-6.526428223E-1,4.443226719E0
2.860022750E0,9.684860229E-2,-3.610791321E0,-1.143472137E0,3.788762614E0
2.870079750E0,1.176553345E-1,-3.819906464E0,-1.174158325E0,3.998021503E0
2.880135750E0,7.123686218E-1,-5.344785461E0,-1.409468994E0,5.573222006E0
2.890192750E0,2.784659271E0,-1.862277374E1,-3.219954071E0,1.910314459E1
2.900248750E0,2.311642914E0,-3.218561966E1,-4.257745972E0,3.254821357E1
2.910305750E0,-4.156107330E0,-3.129003204E1,1.495689697E0,3.160025983E1
2.920361750E0,-8.577163696E-1,-2.847049530E1,4.633614349E0,2.885784403E1
2.930418750E0,-5.809419250E-1,-2.310699875E1,3.861370239E0,2.343461254E1
2.940474750E0,-6.909631348E-1,-1.853460709E1,7.156617737E-1,1.856128394E1
2.950531750E0,1.910028076E0,-1.448911972E1,-8.729846191E-1,1.464052252E1
2.960587750E0,4.416865082E0,-1.138532410E1,-1.610051880E0,1.231773392E1
2.970644750E0,5.033881989E0,-9.457183685E0,-2.386337585E0,1.097601468E1
2.980700750E0,5.159171448E0,-8.232729950E0,-2.655926971E0,1.007218152E1
2.990756750E0,5.343288574E0,-7.232809296E0,-2.581531677E0,9.355670414E0
3.000813750E0,5.093757477E0,-6.805597687E0,-2.557581482E0,8.877147523E0
3.010869750E0,4.928351440E0,-6.817572784E0,-2.432591400E0,8.757022754E0
3.020926750E0,5.046755219E0,-7.099736023E0,-1.989363098E0,8.934962527E0
3.030982750E0,5.242398376E0,-7.644153900E0,-1.404529266E0,9.374888375E0
3.041039750E0,5.599405975E0,-8.189918976E0,-9.487271118E-1,9.966353558E0
3.051095750E0,5.829327850E0,-8.682095490E0,-1.042282562E0,1.050933862E1
3.061152750E0,5.808072052E0,-8.801397400E0,-1.182391205E0,1.061114255E1
3.071208750E0,5.414989471E0,-8.545279999E0,-1.067280579E0,1.017265988E1
3.081266625E0,5.081782379E0,-8.219557343E0,-8.173004150E-1,9.698124304E0
3.091322625E0,4.832400970E0,-8.248147888E0,-6.345304871E-1,9.580536084E0
3.101379625E0,4.461023254E0,-8.493338013E0,-5.090913391E-1,9.607116793E0
3.111435625E0,4.223018188E0,-8.641679535E0,-4.204756165E-1,9.627528631E0
3.121492625E0,4.167034607E0,-8.843609619E0,-3.014730835E-1,9.780822794E0
3.131548625E0,4.046385498E0,-9.003926239E0,-1.390608215E-1,9.872348314E0
3.141604625E0,3.677552490E0,-9.104367371E0,-1.392105103E-2,9.819067743E0
3.151661625E0,3.227887573E0,-9.096882935E0,1.139131165E-1,9.653264397E0
3.161717625E0,3.200644226E0,-9.090296631E0,1.924996948E-1,9.639225717E0
3.171774625E0,3.112926636E0,-9.071435852E0,2.200424194E-1,9.593210064E0
3.181830625E0,3.061882782E0,-9.005423126E0,1.880090332E-1,9.513575524E0
3.191887625E0,3.253933411E0,-9.038504333E0,9.639953613E-2,9.606869214E0
3.201943625E0,3.431913300E0,-9.131610718E0,-1.751358032E-2,9.755237051E0
3.212000625E0,3.282823334E0,-9.146280212E0,-1.163081360E-1,9.718276511E0
3.222056625E0,3.363206177E0,-9.149723053E0,-1.860630798E-1,9.750036267E0
3.232113625E0,3.353326721E0,-9.185199280E0,-2.501298523E-1,9.781372647E0
3.242169625E0,3.332220612E0,-9.231602783E0,-2.477348328E-1,9.817716471E0
3.252226625E0,3.249742126E0,-9.269623718E0,-2.095642090E-1,9.825002032E0
3.262282625E0,3.179089050E0,-9.275311890E0,-1.787283325E-1,9.806628455E0
3.272339625E0,3.113226013E0,-9.253607025E0,-1.561253357E-1,9.764517106E0
3.282395625E0,3.033142548E0,-9.182055817E0,-1.630110168E-1,9.671436053E0
3.292451625E0,2.954106903E0,-9.094487915E0,-1.453477478E-1,9.563345858E0
3.302508625E0,2.955454102E0,-9.040599976E0,-1.052311707E-1,9.512004545E0
3.312564625E0,2.957100677E0,-9.073082428E0,-7.244934082E-2,9.543087449E0
3.322621625E0,2.958148499E0,-9.157656555E0,-1.631607056E-2,9.623595084E0
3.332677625E0,2.981050873E0,-9.196725311E0,2.290237427E-2,9.667830433E0
3.342734625E0,3.059487762E0,-9.225914612E0,5.149291992E-2,9.720114059E0
3.352790625E0,3.108136597E0,-9.246272278E0,8.412506104E-2,9.755057210E0
3.362847625E0,3.062182159E0,-9.259744263E0,9.699829102E-2,9.753421556E0
3.372903625E0,3.101250916E0,-9.277407532E0,9.370513916E-2,9.782475576E0
3.382960625E0,3.098706207E0,-9.313332825E0,1.103205872E-1,9.815921714E0
3.393016625E0,3.062032471E0,-9.298363953E0,1.338217163E-1,9.790481260E0
3.403073625E0,3.094215546E0,-9.261390839E0,1.678010559E-1,9.766047681E0
3.413129625E0,3.197949829E0,-9.229656830E0,2.436932373E-1,9.771020146E0
3.423185625E0,3.186124420E0,-9.187893677E0,3.230282593E-1,9.730011629E0
3.433242625E0,3.205134888E0,-9.155710602E0,4.299060059E-1,9.710033236E0
3.443298625E0,3.324736176E0,-9.098828888E0,4.896318054E-1,9.699602934E0
3.453355625E0,3.319646759E0,-9.045390015E0,5.284011841E-1,9.649784606E0
3.463411625E0,3.356170807E0,-9.033714294E0,5.623805237E-1,9.653400867E0
3.473468625E0,3.477867737E0,-9.123677216E0,5.535488892E-1,9.779747763E0
3.483524625E0,3.540737000E0,-9.290580139E0,5.719606018E-1,9.958857201E0
3.493581625E0,3.597169647E0,-9.497899017E0,5.619314575E-1,1.017179837E1
3.503637625E0,3.597469025E0,-9.621990967E0,4.355941772E-1,1.028174284E1
3.513694625E0,3.421435089E0,-9.641001434E0,3.104544067E-1,1.023481845E1
3.523750625E0,3.057242432E0,-9.621242523E0,2.932402039E-1,1.009955587E1
3.533807625E0,2.802322540E0,-9.576635284E0,3.799099731E-1,9.985453749E0
3.543863625E0,2.697540436E0,-9.436676331E0,3.673361206E-1,9.821533505E0
3.553920625E0,2.683469696E0,-9.345366211E0,3.312611389E-1,9.728649093E0
3.563976625E0,2.593506775E0,-9.329349518E0,2.674937439E-1,9.686825730E0
3.574032625E0,2.454745331E0,-9.363927612E0,2.707868958E-1,9.684123115E0
3.584089625E0,2.363435211E0,-9.445807343E0,2.302212524E-1,9.739717869E0
3.594145625E0,2.331401825E0,-9.570647736E0,1.523831177E-1,9.851697984E0
3.604202625E0,2.264191589E0,-9.704319763E0,2.038760376E-1,9.967043246E0
3.614258625E0,2.058968353E0,-9.879605255E0,3.146456909E-1,1.009677932E1
3.624315625E0,1.873204651E0,-1.002330643E1,3.851490784E-1,1.020411227E1
3.634371625E0,1.665736084E0,-1.013991394E1,4.995112610E-1,1.028795621E1
3.644428625E0,1.319356384E0,-1.031011002E1,8.047265625E-1,1.042528919E1
3.654484625E0,1.192270660E0,-1.053374496E1,1.307231598E0,1.068129893E1
3.664541625E0,1.154848480E0,-1.049497559E1,1.835932159E0,1.071675485E1
3.674597625E0,8.081694031E-1,-1.045006897E1,2.304308167E0,1.073158494E1
3.684654625E0,2.047741699E-1,-1.037103333E1,2.572101288E0,1.068718718E1
3.694710625E0,-1.281335449E-1,-1.044408142E1,2.719993744E0,1.079322106E1
3.704767625E0,-4.363426208E-1,-1.078177917E1,2.839894409E0,1.115805347E1
3.714823625E0,-7.864645386E-1,-1.111214218E1,2.944077759E0,1.152240531E1
3.724879625E0,-1.195713501E0,-1.140972336E1,3.149001617E0,1.189654274E1
3.734936625E0,-1.537901917E0,-1.168260590E1,3.499273224E0,1.229200293E1
3.744992625E0,-2.227517853E0,-1.157722504E1,3.577859802E0,1.232051363E1
3.755049625E0,-2.726130981E0,-1.122216339E1,3.069217529E0,1.194942834E1
3.765105625E0,-2.742596741E0,-1.075618240E1,2.483036499E0,1.137465459E1
3.775162625E0,-2.677931213E0,-1.026086243E1,2.214644623E0,1.083334040E1
3.785218625E0,-2.628833313E0,-9.864786072E0,1.949845276E0,1.039358771E1
3.795275625E0,-2.712209930E0,-9.580377502E0,1.596130829E0,1.008401455E1
3.805331625E0,-3.082240448E0,-9.290729828E0,1.198856964E0,9.861801303E0
3.815388625E0,-3.492836609E0,-8.906478882E0,5.867797852E-1,9.584862240E0
3.825444625E0,-3.629652100E0,-8.442294159E0,-1.032852173E-1,9.190069253E0
3.835501625E0,-3.595523071E0,-8.158933411E0,-5.821394348E-1,8.935035919E0
3.845557625E0,-3.530408478E0,-8.108787689E0,-9.348060608E-1,8.893260605E0
3.855614625E0,-3.302731934E0,-8.137976990E0,-1.147513733E0,8.857284882E0
3.865670625E0,-2.891537018E0,-8.182733917E0,-1.181493073E0,8.758655523E0
3.875726625E0,-2.490371246E0,-8.290210419E0,-1.082399139E0,8.723595912E0
3.885783625E0,-2.154320068E0,-8.540789337E0,-9.737251282E-1,8.861959043E0
3.895839625E0,-2.127525787E0,-8.890013123E0,-8.878038025E-1,9.184056559E0
3.905896625E0,-2.186802521E0,-9.203161926E0,-7.234455872E-1,9.487026311E0
3.915952625E0,-2.207459564E0,-9.323960724E0,-6.581813049E-1,9.604286748E0
3.926009625E0,-2.176623688E0,-9.345815277E0,-7.444020081E-1,9.624764320E0
3.936065625E0,-2.192640381E0,-9.494156799E0,-8.560697937E-1,9.781591929E0
3.946122625E0,-2.138153687E0,-9.498797150E0,-8.854087830E-1,9.776645498E0
3.956178625E0,-2.135459290E0,-9.502539368E0,-9.015751648E-1,9.781169592E0
3.966235625E0,-2.168839874E0,-9.532177734E0,-8.518785095E-1,9.812847485E0
3.976291625E0,-2.282154236E0,-9.656419373E0,-7.313790894E-1,9.949350654E0
3.986348625E0,-2.501298523E0,-9.755962372E0,-6.059399414E-1,1.008972048E1
3.996404625E0,-2.511028290E0,-9.754465485E0,-4.629872131E-1,1.008311545E1
4.006461625E0,-2.520907745E0,-9.735455017E0,-3.640429688E-1,1.006313011E1
4.016517625E0,-2.659369812E0,-9.734257507E0,-2.573149109E-1,1.009426708E1
4.026574625E0,-2.730921021E0,-9.670639801E0,-2.784210205E-2,1.004887949E1
4.036630625E0,-2.704575806E0,-9.629774780E0,1.839674377E-1,1.000405601E1
4.046686625E0,-2.562521210E0,-9.531279602E0,3.351530457E-1,9.875430794E0
4.056743625E0,-2.409838715E0,-9.421408081E0,4.135899353E-1,9.733514755E0
4.066799625E0,-2.369871826E0,-9.427844696E0,3.514691162E-1,9.727490870E0
4.076856000E0,-2.415526886E0,-9.557774506E0,3.385958862E-1,9.864100101E0
4.086912000E0,-2.357148285E0,-9.680369568E0,3.772155762E-1,9.970355791E0
4.096969000E0,-2.288590851E0,-9.779164124E0,3.483256531E-1,1.004942933E1
4.107025000E0,-2.270328827E0,-9.783654785E0,3.068618774E-1,1.004830623E1
4.117082000E0,-2.373314667E0,-9.703571320E0,2.734812927E-1,9.993333322E0
4.127138000E0,-2.461181946E0,-9.513316956E0,2.700384521E-1,9.830235848E0
4.137195000E0,-2.581381989E0,-9.341174927E0,2.772235107E-1,9.695253213E0
4.147251000E0,-2.685565338E0,-9.221873016E0,3.158432007E-1,9.610148804E0
4.157308000E0,-2.860701141E0,-9.156159668E0,3.845503235E-1,9.600351548E0
4.167364000E0,-3.043321381E0,-9.137298889E0,5.346881104E-1,9.645617004E0
4.177421000E0,-3.205134888E0,-9.201515350E0,7.870632935E-1,9.775491958E0
4.187477000E0,-3.310515747E0,-9.358389130E0,1.029708710E0,9.979942968E0
4.197533000E0,-3.412304077E0,-9.551038513E0,1.241069183E0,1.021794542E1
4.207590000E0,-3.584296417E0,-9.711504822E0,1.455124054E0,1.045360668E1
4.217646000E0,-3.664828949E0,-9.768536224E0,1.588796082E0,1.055365075E1
4.227703000E0,-3.699556732E0,-9.741741943E0,1.639839935E0,1.054880709E1
4.237759000E0,-3.706442413E0,-9.648785248E0,1.650018768E0,1.046705948E1
4.247816000E0,-3.698359222E0,-9.452693024E0,1.622775421E0,1.027933200E1
4.257872000E0,-3.686982880E0,-9.237290955E0,1.535656586E0,1.006377802E1
4.267929000E0,-3.638483734E0,-9.022038574E0,1.438957672E0,9.833938331E0
4.277985000E0,-3.539988556E0,-8.827443237E0,1.358874207E0,9.607383213E0
4.288042000E0,-3.532803497E0,-8.742120667E0,1.348246307E0,9.524869679E0
4.298098000E0,-3.540287933E0,-8.720266113E0,1.420845337E0,9.518165853E0
4.308155000E0,-3.561543732E0,-8.702004089E0,1.505718842E0,9.522429215E0
4.318211000E0,-3.626358948E0,-8.713081055E0,1.557211761E0,9.565206174E0
4.328268000E0,-3.669020233E0,-8.688681793E0,1.573527832E0,9.561950147E0
4.338324000E0,-3.697161713E0,-8.662785645E0,1.566043396E0,9.548054868E0
4.348380000E0,-3.688479767E0,-8.579109650E0,1.488804016E0,9.456349336E0
4.358437000E0,-3.669469299E0,-8.532257080E0,1.366358643E0,9.387829981E0
4.368493000E0,-3.580404510E0,-8.638386383E0,1.211430817E0,9.429134657E0
4.378550000E0,-3.450474701E0,-8.876241760E0,1.032103729E0,9.579075193E0
4.388606000E0,-3.326532440E0,-9.217232666E0,9.490264893E-1,9.844990979E0
4.398663000E0,-3.184178467E0,-9.577982483E0,8.457412720E-1,1.012877185E1
4.408719000E0,-3.006647644E0,-9.842781830E0,7.586224365E-1,1.031967985E1
4.418776000E0,-2.735860748E0,-9.828860779E0,6.514453125E-1,1.022329787E1
4.428832000E0,-2.372865601E0,-9.418713684E0,4.986131287E-1,9.725804526E0
4.438889000E0,-2.021845551E0,-8.863218842E0,3.393443298E-1,9.097233768E0
4.448945000E0,-1.682501221E0,-8.376880188E0,2.089654541E-1,8.546730287E0
4.459002000E0,-1.464255066E0,-8.149503021E0,8.876541138E-2,8.280478349E0
4.469058000E0,-1.294957123E0,-8.246800690E0,-2.544708252E-3,8.347852541E0
4.479115000E0,-1.154998169E0,-8.632847900E0,-9.475296021E-2,8.710284827E0
4.489171000E0,-1.051712952E0,-9.279802551E0,-1.266366577E-1,9.340068114E0
4.499228000E0,-9.903405762E-1,-1.012554382E1,-1.137634277E-1,1.017449528E1
4.509284000E0,-9.039701843E-1,-1.099568436E1,-1.128652954E-1,1.103335738E1
4.519340000E0,-8.193960571E-1,-1.170565796E1,-1.100212097E-1,1.173481755E1
4.529397000E0,-6.728507996E-1,-1.215307755E1,-1.074765015E-1,1.217216387E1
4.539453000E0,-4.688250732E-1,-1.235395981E1,-9.385482788E-2,1.236320867E1
4.549510000E0,-4.101470947E-2,-1.227103226E1,-2.859054565E-2,1.227113411E1
4.559566000E0,4.025129700E-1,-1.198542618E1,1.017883301E-2,1.199218750E1
4.569623000E0,7.149133301E-1,-1.158216476E1,-1.565744019E-1,1.160526420E1
4.579679000E0,1.137035522E0,-1.117546051E1,-3.553610229E-1,1.123877435E1
4.589736000E0,1.563199310E0,-1.083656525E1,-5.643264771E-1,1.096326606E1
4.599792000E0,1.537901917E0,-1.051907547E1,-1.045575714E0,1.068219639E1
4.609849000E0,1.234033813E0,-1.020607635E1,-1.532213745E0,1.039396522E1
4.619905000E0,1.083147583E0,-1.001537292E1,-1.818268890E0,1.023655241E1
4.629962000E0,1.073717194E0,-9.819131012E0,-2.065704346E0,1.009134961E1
4.640018000E0,1.020727386E0,-9.591005402E0,-2.269430695E0,9.908561182E0
4.650075000E0,9.204359436E-1,-9.417665863E0,-2.260449371E0,9.728785330E0
4.660131000E0,7.685018921E-1,-9.346563721E0,-2.054777069E0,9.600570678E0
4.670187000E0,5.894741821E-1,-9.296417999E0,-1.840572510E0,9.495186917E0
4.680244000E0,2.770738220E-1,-9.234746246E0,-1.761087799E0,9.405250575E0
4.690300000E0,1.266366577E-1,-9.147627411E0,-1.789229279E0,9.321827369E0
4.700357000E0,1.299298096E-1,-9.029822388E0,-1.794318695E0,9.207288075E0
4.710413000E0,1.419049072E-1,-8.925639038E0,-1.829645233E0,9.112341681E0
4.720470000E0,-2.142045593E-1,-8.919950867E0,-2.073937225E0,9.160383326E0
4.730526000E0,-6.230044556E-1,-9.076974335E0,-2.372715912E0,9.402626145E0
4.740583000E0,-9.062155151E-1,-9.166637878E0,-2.558479614E0,9.560036323E0
4.750639000E0,-1.220861206E0,-9.349108429E0,-2.757266235E0,9.823382696E0
4.760696000E0,-1.384021912E0,-9.576635284E0,-2.918031921E0,1.010655086E1
4.770752000E0,-1.351689148E0,-9.694889374E0,-2.763852539E0,1.017137279E1
4.780809000E0,-1.406475220E0,-9.698481903E0,-2.450404358E0,1.010164369E1
4.790865000E0,-1.459015961E0,-9.633067932E0,-2.092348938E0,9.965071472E0
4.800922000E0,-1.395697632E0,-9.485025787E0,-1.732946320E0,9.742524776E0
4.810978000E0,-1.342408447E0,-9.357640686E0,-1.391356659E0,9.555279849E0
4.821034000E0,-1.493144989E0,-9.251511383E0,-1.293310547E0,9.460052695E0
4.831091000E0,-1.513652344E0,-9.154962158E0,-1.181193695E0,9.354127115E0
4.841147000E0,-1.447489929E0,-9.107061768E0,-1.058898010E0,9.281975336E0
4.851204000E0,-1.583856354E0,-9.153016205E0,-1.081950073E0,9.351840597E0
4.861260000E0,-1.632654877E0,-9.261540527E0,-1.173409882E0,9.477266781E0
4.871317000E0,-1.692530365E0,-9.353449402E0,-1.189127197E0,9.579441437E0
4.881373000E0,-1.841021576E0,-9.417516174E0,-1.268013153E0,9.679195664E0
4.891430000E0,-1.816472626E0,-9.389225006E0,-1.441053314E0,9.671285006E0
4.901486000E0,-1.821112976E0,-9.371861115E0,-1.643582153E0,9.687600091E0
4.911543000E0,-2.016157379E0,-9.418414307E0,-1.691482544E0,9.779188710E0
4.921599000E0,-2.148931274E0,-9.474846954E0,-1.759441223E0,9.873513247E0
4.931656000E0,-2.324665833E0,-9.467961273E0,-1.992057495E0,9.950610784E0
4.941712000E0,-2.483186188E0,-9.421108704E0,-2.193089447E0,9.986648295E0
4.951769000E0,-2.631976776E0,-9.317524109E0,-2.376607819E0,9.969544723E0
4.961825000E0,-2.801873474E0,-9.239386597E0,-2.636168060E0,1.000830364E1
4.971882000E0,-2.957400055E0,-9.223818970E0,-2.993325348E0,1.013829611E1
4.981938000E0,-3.202141113E0,-9.336384888E0,-3.215014343E0,1.038066027E1
4.991995000E0,-3.467988281E0,-9.769434357E0,-3.236270142E0,1.086012131E1
5.002051000E0,-3.716770935E0,-1.051159103E1,-3.281625824E0,1.162226313E1
5.012107000E0,-3.639980621E0,-1.174951675E1,-3.288810883E0,1.273251271E1
5.022164000E0,-3.036136322E0,-1.301663177E1,-2.866688690E0,1.366999380E1
5.032220000E0,-2.800975342E0,-1.337513626E1,-2.100581818E0,1.382577943E1
5.042277000E0,-2.696342926E0,-1.294253586E1,-1.485810242E0,1.330365107E1
5.052333000E0,-2.096091156E0,-1.208856171E1,-1.050964508E0,1.231387220E1
5.062390000E0,-1.498533783E0,-1.092113937E1,-9.189390564E-1,1.106170591E1
5.072446000E0,-1.331032104E0,-9.901160431E0,-9.132508850E-1,1.003188175E1
5.082503125E0,-1.313219147E0,-9.161997528E0,-9.355545044E-1,9.302795572E0
5.092559125E0,-1.375938721E0,-8.566386108E0,-8.851094055E-1,8.721215339E0
5.102616125E0,-1.529669037E0,-8.156239014E0,-7.649093628E-1,8.333619174E0
5.112672125E0,-1.626517639E0,-7.992928619E0,-6.346801758E-1,8.181398809E0
5.122729125E0,-1.829794922E0,-8.112978973E0,-4.381388855E-1,8.328297723E0
5.132785125E0,-2.038460999E0,-8.520880737E0,-1.432521057E-1,8.762491252E0
5.142842125E0,-2.177372131E0,-8.984466705E0,1.245410156E-1,9.245382731E0
5.152898125E0,-2.380799103E0,-9.259744263E0,3.040177917E-1,9.565745919E0
5.162954125E0,-2.355202332E0,-9.292675781E0,4.137396240E-1,9.595414617E0
5.173011125E0,-2.260000305E0,-9.120533752E0,5.119354248E-1,9.410303671E0
5.183067125E0,-2.101479950E0,-8.986262970E0,5.906716919E-1,9.247596076E0
5.193124125E0,-1.863474884E0,-9.000184021E0,6.855743408E-1,9.216608011E0
5.203180125E0,-1.598525848E0,-9.070537720E0,7.773335266E-1,9.243061550E0
5.213237125E0,-1.435514832E0,-9.211843872E0,7.758366394E-1,9.355249481E0
5.223293125E0,-1.363963623E0,-9.389674072E0,6.750961304E-1,9.512209561E0
5.233350125E0,-1.273401947E0,-9.535021820E0,5.644761658E-1,9.636224726E0
5.243406125E0,-1.074615326E0,-9.577383728E0,3.565585327E-1,9.644076480E0
5.253463125E0,-9.014254761E-1,-9.455686798E0,1.895059204E-1,9.500447000E0
5.263519125E0,-7.310797119E-1,-9.220525818E0,8.966354370E-2,9.249898024E0
5.273576125E0,-5.983058167E-1,-9.002429352E0,-8.816665649E-2,9.022720069E0
5.283632125E0,-5.029541016E-1,-8.871751099E0,-2.960842896E-1,8.890927752E0
5.293689125E0,-5.381309509E-1,-8.836873627E0,-4.540058899E-1,8.864876861E0
5.303745125E0,-6.825805664E-1,-8.945098572E0,-5.310955811E-1,8.986810736E0
5.313802125E0,-7.831713867E-1,-9.114097137E0,-5.044509888E-1,9.161582552E0
5.323858125E0,-9.478289795E-1,-9.357041931E0,-4.623884583E-1,9.416284647E0
5.333914125E0,-1.219214630E0,-9.599387970E0,-4.474195862E-1,9.686842520E0
5.343971125E0,-1.459165649E0,-9.776918793E0,-4.085005188E-1,9.893643320E0
5.354027125E0,-1.577270050E0,-9.856104126E0,-4.074526978E-1,9.989824175E0
5.364084125E0,-1.697919159E0,-9.820927277E0,-4.887336731E-1,9.978597228E0
5.374140125E0,-1.841021576E0,-9.682914276E0,-5.786965942E-1,9.873351967E0
5.384197125E0,-1.988764343E0,-9.473050690E0,-6.903643799E-1,9.704147359E0
5.394253125E0,-2.157313843E0,-9.392817535E0,-7.658074951E-1,9.667754930E0
5.404310125E0,-2.322420502E0,-9.379046173E0,-8.123606873E-1,9.696394897E0
5.414366125E0,-2.516566772E0,-9.344019012E0,-9.134005737E-1,9.719984580E0
5.424423125E0,-2.683469696E0,-9.261241150E0,-1.068328400E0,9.701181516E0
5.434479125E0,-2.808160400E0,-9.119036865E0,-1.258732452E0,9.624292471E0
5.444536125E0,-2.884202271E0,-8.975036316E0,-1.434616699E0,9.535618736E0
5.454592125E0,-3.035687256E0,-8.880133667E0,-1.505718842E0,9.504702009E0
5.464649125E0,-3.354973297E0,-8.877289581E0,-1.609303436E0,9.625589524E0
5.474705125E0,-3.803740082E0,-9.042246552E0,-1.759441223E0,9.966257810E0
5.484762125E0,-4.348756714E0,-9.660610657E0,-1.835183716E0,1.075206875E1
5.494818125E0,-4.910089417E0,-1.092548035E1,-1.914219360E0,1.213010036E1
5.504874125E0,-5.349725189E0,-1.265722916E1,-2.052082672E0,1.389374150E1
5.514931125E0,-5.331762543E0,-1.405921371E1,-2.224973145E0,1.519998972E1
5.524987125E0,-4.418361969E0,-1.387225250E1,-2.267634430E0,1.473443171E1
5.535044125E0,-3.023263092E0,-1.197434921E1,-2.076631622E0,1.252348025E1
5.545100125E0,-2.040856018E0,-9.914183350E0,-1.756297760E0,1.027330067E1
5.555157125E0,-1.465901642E0,-8.839717712E0,-1.341061249E0,9.060238525E0
5.565213125E0,-9.430389404E-1,-8.659941559E0,-8.319699097E-1,8.750776204E0
5.575270125E0,-6.390211487E-1,-8.788075104E0,-5.153782654E-1,8.826337112E0
5.585326125E0,-4.367916870E-1,-9.104666748E0,-3.727249146E-1,9.122755474E0
5.595383125E0,-2.415975952E-1,-9.395661621E0,-5.278024292E-1,9.413575415E0
5.605439125E0,8.247848511E-2,-9.824220428E0,-9.026229858E-1,9.865943340E0
5.615496125E0,1.281335449E-1,-1.027059219E1,-9.407936096E-1,1.031438679E1
5.625552125E0,5.551954651E-1,-1.110465775E1,-2.358046417E0,1.136582811E1
5.635609125E0,-7.738906860E-2,-1.186462738E1,-4.769382019E0,1.278758682E1
5.645665125E0,-1.368454285E0,-1.139744888E1,-4.766388245E0,1.242951991E1
5.655721125E0,-1.253343658E0,-1.041773621E1,-3.644022217E0,1.110760982E1
5.665778125E0,-8.966354370E-1,-9.438622284E0,-2.552192688E0,9.818616666E0
5.675834125E0,-8.547225952E-1,-8.796457672E0,-1.746418304E0,9.008784335E0
5.685891125E0,-1.064436493E0,-8.578061829E0,-1.215023346E0,8.728828760E0
5.695947125E0,-1.913171539E0,-8.531209259E0,-9.352551270E-1,8.792977818E0
5.706004125E0,-2.104773102E0,-8.546178131E0,-9.077124023E-1,8.848229894E0
5.716060125E0,-2.086660767E0,-8.474477234E0,-1.000968475E0,8.784808218E0
5.726117125E0,-2.245181122E0,-8.288414154E0,-1.275048523E0,8.681266969E0
5.736173125E0,-2.044747925E0,-7.992778931E0,-1.549577637E0,8.394444589E0
5.746230125E0,-1.852098541E0,-7.682773590E0,-1.547781372E0,8.053006036E0
5.756286125E0,-1.906734924E0,-7.495213623E0,-1.322050781E0,7.846125387E0
5.766343125E0,-2.253713379E0,-7.465126190E0,-1.232536926E0,7.894712174E0
5.776399125E0,-2.329156494E0,-7.546706543E0,-1.110839996E0,7.975695275E0
5.786456125E0,-2.347867584E0,-7.577692108E0,-1.073268127E0,8.005360976E0
5.796512125E0,-2.434088287E0,-7.623496857E0,-1.083147583E0,8.075623741E0
5.806569125E0,-2.465522919E0,-7.712861023E0,-1.105301514E0,8.172436592E0
5.816625125E0,-2.451601868E0,-7.793393555E0,-1.124012604E0,8.246862382E0
5.826682125E0,-2.262095947E0,-7.907606049E0,-1.181642761E0,8.309247325E0
5.836738125E0,-1.987866211E0,-7.928263092E0,-1.311422882E0,8.278212229E0
5.846794125E0,-1.889221344E0,-8.017178192E0,-1.492396545E0,8.370875157E0
5.856851125E0,-1.905687103E0,-8.339757385E0,-1.581760712E0,8.699722037E0
5.866907125E0,-1.948348389E0,-8.761580200E0,-1.595831451E0,9.116360407E0
5.876964125E0,-2.020947418E0,-9.213340759E0,-1.474583588E0,9.546950988E0
5.887020125E0,-2.138453064E0,-9.526040497E0,-1.407373352E0,9.864032076E0
5.897077125E0,-2.125579834E0,-9.592202911E0,-1.609752502E0,9.955890188E0
5.907133125E0,-2.132016449E0,-9.554780731E0,-1.985471191E0,9.989065262E0
5.917190125E0,-2.129022675E0,-9.442214813E0,-2.377356262E0,9.966944413E0
5.927246125E0,-2.165696411E0,-9.368567963E0,-2.736160126E0,9.997343590E0
5.937303125E0,-2.242486725E0,-9.330097961E0,-3.118315430E0,1.008976540E1
5.947359125E0,-2.336042175E0,-9.284891968E0,-3.539389801E0,1.020752625E1
5.957416125E0,-2.503543854E0,-9.329648895E0,-3.825145569E0,1.038950523E1
5.967472125E0,-2.528541870E0,-9.527238007E0,-3.869303741E0,1.058930118E1
5.977529125E0,-2.118843842E0,-9.875713348E0,-3.813020782E0,1.079621882E1
5.987585125E0,-1.266366577E0,-1.042566971E1,-3.991000671E0,1.123505049E1
5.997642125E0,-4.959187317E-1,-1.086066513E1,-4.806355133E0,1.188701107E1
6.007698125E0,3.525169373E-1,-1.119072876E1,-5.791606293E0,1.260552981E1
6.017754125E0,9.569599915E-1,-1.166015259E1,-6.401288452E0,1.333609480E1
6.027811125E0,1.187181244E0,-1.220217545E1,-6.333329773E0,1.379904167E1
6.037867125E0,1.210981750E0,-1.284598663E1,-5.648503876E0,1.408514982E1
6.047924125E0,1.046473846E0,-1.324655365E1,-4.581672363E0,1.405553317E1
6.057980125E0,1.043180695E0,-1.306557999E1,-4.113296356E0,1.373742382E1
6.068037125E0,8.806187439E-1,-1.249272125E1,-3.761527863E0,1.307641639E1
6.078092917E0,4.778063965E-1,-1.145238464E1,-3.563489685E0,1.200349415E1
6.088149917E0,-1.791773987E-1,-1.023182281E1,-3.140918427E0,1.070456310E1
6.098205917E0,-1.238973541E0,-9.421408081E0,-2.190544739E0,9.751741994E0
6.108262917E0,-1.665436707E0,-8.932973785E0,-1.340163116E0,9.185191193E0
6.118318917E0,-1.644031219E0,-8.578361206E0,-8.403524780E-1,8.774811218E0
6.128375917E0,-2.014959869E0,-8.312064972E0,-6.245013428E-1,8.575575159E0
6.138431917E0,-2.684517517E0,-8.003706207E0,-5.557942200E-1,8.460192348E0
6.148488917E0,-3.423680420E0,-7.934550018E0,-5.134323120E-1,8.656921182E0
6.158544917E0,-4.162094879E0,-8.054899750E0,-3.790118408E-1,9.074585045E0
6.168601917E0,-4.793032837E0,-8.301886139E0,-3.023712158E-1,9.590928297E0
6.178657917E0,-5.470673676E0,-8.658294983E0,-5.617817688E-1,1.025718973E1
6.188713917E0,-6.118376770E0,-8.888216858E0,-1.047821045E0,1.084125741E1
6.198770917E0,-6.929839325E0,-8.559949493E0,-1.434017944E0,1.110638626E1
6.208826917E0,-6.285878448E0,-8.545429688E0,-1.446442108E0,1.070648547E1
6.218883917E0,-5.327870636E0,-8.512647858E0,-5.707630920E-1,1.005868528E1
6.228939917E0,-4.797822876E0,-8.343050537E0,4.375401306E-1,9.634159952E0
6.238996917E0,-4.441414032E0,-8.712482300E0,1.164278870E0,9.848301971E0
6.249052917E0,-4.412973175E0,-9.144334259E0,1.524130554E0,1.026723698E1
6.259109917E0,-4.370311890E0,-9.319769440E0,1.292861481E0,1.037445031E1
6.269165917E0,-3.986360321E0,-9.072184296E0,9.125024414E-1,9.951294248E0
6.279222917E0,-3.382516022E0,-8.667575684E0,6.057902527E-1,9.323908231E0
6.289278917E0,-2.860701141E0,-8.371042328E0,3.086581421E-1,8.851736018E0
6.299335917E0,-2.584375763E0,-8.258476410E0,1.751358032E-1,8.655177829E0
6.309391917E0,-2.655028839E0,-8.142317963E0,6.870712280E-2,8.564533882E0
6.319448917E0,-2.722538452E0,-8.226742401E0,-1.402583313E-1,8.666670558E0
6.329504917E0,-2.574795685E0,-8.372239838E0,-3.995191956E-1,8.768328707E0
6.339561917E0,-2.344724121E0,-8.476273499E0,-6.156697083E-1,8.816121189E0
6.349617917E0,-2.294428711E0,-8.504864044E0,-7.496411133E-1,8.840762259E0
6.359673917E0,-2.301613770E0,-8.498427429E0,-7.954458618E-1,8.840442796E0
6.369730917E0,-2.259401550E0,-8.544681244E0,-8.264314270E-1,8.876906096E0
6.379786917E0,-2.219883728E0,-8.691974945E0,-8.655001831E-1,9.012624633E0
6.389843917E0,-2.178569641E0,-8.835227051E0,-9.128018188E-1,9.145524035E0
6.399899917E0,-2.171085205E0,-9.045839081E0,-9.454339600E-1,9.350650299E0
6.409956917E0,-2.193388824E0,-9.311386871E0,-9.732760620E-1,9.615619912E0
6.420012917E0,-2.186503143E0,-9.564360809E0,-1.006656647E0,9.862613816E0
6.430069917E0,-2.142644348E0,-9.736652527E0,-1.031205597E0,1.002280960E1
6.440125917E0,-2.154020691E0,-9.885592804E0,-9.910890198E-1,1.016597303E1
6.450182917E0,-2.176473999E0,-1.001746857E1,-9.225315857E-1,1.029260803E1
6.460238917E0,-2.137704620E0,-1.002794678E1,-8.901988220E-1,1.029183908E1
6.470295917E0,-2.052980804E0,-9.852511597E0,-9.032217407E-1,1.010457938E1
6.480351917E0,-2.060165863E0,-9.629475403E0,-9.809101868E-1,9.896123722E0
6.490408917E0,-2.158361664E0,-9.403894501E0,-1.106349335E0,9.711630435E0
6.500464917E0,-2.329306183E0,-9.191785583E0,-1.233734436E0,9.562253404E0
6.510521917E0,-2.586621094E0,-9.050180054E0,-1.342558136E0,9.507829933E0
6.520577917E0,-2.863395538E0,-9.054970093E0,-1.473236389E0,9.610512101E0
6.530634917E0,-3.175945587E0,-9.213041382E0,-1.633702698E0,9.881080223E0
6.540690917E0,-3.531156921E0,-9.371412048E0,-1.808988190E0,1.017668272E1
6.550746917E0,-3.930227051E0,-9.458979950E0,-1.975292358E0,1.043171924E1
6.560803917E0,-4.222718811E0,-9.482780457E0,-2.137704620E0,1.059831404E1
6.570859917E0,-4.553680573E0,-9.550888824E0,-2.341730347E0,1.083693615E1
6.580916917E0,-4.872966614E0,-9.818083191E0,-2.539618835E0,1.125123215E1
6.590972917E0,-5.225034485E0,-1.039782761E1,-2.746788025E0,1.195661527E1
6.601029917E0,-5.513185272E0,-1.101918549E1,-2.946323090E0,1.266879948E1
6.611085917E0,-5.687572632E0,-1.123578506E1,-2.985541534E0,1.294236480E1
6.621142917E0,-5.560486908E0,-1.087428680E1,-2.899320831E0,1.255289566E1
6.631198917E0,-5.064418488E0,-1.011910721E1,-2.748135223E0,1.164460873E1
6.641255917E0,-4.118535461E0,-9.234446869E0,-2.555336151E0,1.042914599E1
6.651311917E0,-3.108885040E0,-8.887917480E0,-2.208357697E0,9.671457338E0
6.661368917E0,-2.233804779E0,-8.902137909E0,-2.014660492E0,9.396637699E0
6.671424917E0,-1.611997833E0,-8.954828339E0,-1.850002899E0,9.284933942E0
6.681481917E0,-1.266516266E0,-8.894503784E0,-1.567390594E0,9.119921836E0
6.691537917E0,-1.012195129E0,-8.834927673E0,-1.307680664E0,8.988354393E0
6.701594917E0,-8.770262146E-1,-8.966054993E0,-1.206940155E0,9.089335600E0
6.711650917E0,-7.818241882E-1,-9.378297729E0,-1.628164215E0,9.550635375E0
6.721706917E0,-1.282682648E0,-1.009919861E1,-2.324067078E0,1.044223995E1
6.731763917E0,-1.897005157E0,-1.052206924E1,-2.395019531E0,1.095667323E1
6.741819917E0,-2.096989288E0,-1.047401917E1,-2.090402985E0,1.088449476E1
6.751876917E0,-1.960024109E0,-1.018646713E1,-1.471290436E0,1.047714191E1
6.761932917E0,-1.685794373E0,-1.010922775E1,-8.258326721E-1,1.028204202E1
6.771989917E0,-1.933978271E0,-1.019290375E1,-2.621049500E-1,1.037806619E1
6.782045917E0,-2.449356537E0,-1.027433441E1,1.691482544E-1,1.056361236E1
6.792102917E0,-2.641556854E0,-1.026924500E1,4.704716492E-1,1.061397941E1
6.802158917E0,-2.640059967E0,-1.017898270E1,4.739144897E-1,1.052645241E1
6.812215917E0,-2.665956116E0,-1.004575974E1,2.246827698E-1,1.039591713E1
6.822271917E0,-2.609523468E0,-9.766590271E0,3.742218018E-3,1.010919939E1
6.832328917E0,-2.471660156E0,-9.449100494E0,-2.103126526E-1,9.769280193E0
6.842384917E0,-2.301464081E0,-9.128018188E0,-1.854643250E-1,9.415511137E0
6.852441917E0,-2.313139801E0,-8.826545105E0,-2.475851440E-1,9.127968702E0
6.862497917E0,-2.397115173E0,-8.581804047E0,-3.647914124E-1,8.917768478E0
6.872554917E0,-2.450404358E0,-8.367000732E0,-4.936734009E-1,8.732404949E0
6.882610917E0,-2.474504242E0,-8.132288818E0,-7.644602966E-1,8.534734455E0
6.892667917E0,-2.321522369E0,-7.843688965E0,-8.292755127E-1,8.221959655E0
6.902723917E0,-2.436034241E0,-7.708969116E0,-6.855743408E-1,8.113721701E0
6.912779917E0,-2.677182770E0,-7.704628143E0,-4.568499756E-1,8.169290931E0
6.922836917E0,-2.883304138E0,-7.768694916E0,-3.097059631E-1,8.292284440E0
6.932892917E0,-3.032693481E0,-7.819439392E0,-3.415896606E-1,8.393899312E0
6.942949917E0,-3.091072083E0,-7.854466553E0,-3.962260437E-1,8.450110445E0
6.953005917E0,-3.171754303E0,-7.866291962E0,-4.700225830E-1,8.494674556E0
6.963062917E0,-3.273542633E0,-7.892188110E0,-6.174659729E-1,8.566444932E0
6.973118917E0,-3.331023102E0,-7.933053131E0,-8.252339172E-1,8.643498013E0
6.983175917E0,-3.358715515E0,-8.003257141E0,-1.100661163E0,8.748974213E0
6.993231917E0,-3.369493103E0,-8.061036987E0,-1.437760162E0,8.854431397E0
7.003288917E0,-3.434308319E0,-8.139024811E0,-1.888023834E0,9.033428613E0
7.013344917E0,-3.547023926E0,-8.250692596E0,-2.550246735E0,9.335901963E0
7.023401917E0,-3.786675568E0,-8.431965637E0,-3.480861511E0,9.876910105E0
7.033457917E0,-4.264781342E0,-8.693771210E0,-4.561913452E0,1.070425486E1
7.043514917E0,-4.767286377E0,-8.978479156E0,-5.907914429E0,1.175770217E1
7.053570917E0,-5.007686462E0,-9.386530609E0,-6.657555542E0,1.255017635E1
7.063627917E0,-4.516857147E0,-9.638307037E0,-6.227200470E0,1.233194983E1
7.073683917E0,-3.728296967E0,-9.634115753E0,-5.491929474E0,1.169947323E1
7.083739500E0,-3.125799866E0,-9.977950745E0,-4.796176300E0,1.150362695E1
7.093796500E0,-2.706222382E0,-1.077234879E1,-3.673361206E0,1.169874867E1
7.103852500E0,-2.846630402E0,-1.177107193E1,-2.207459564E0,1.230992757E1
7.113909500E0,-3.379222870E0,-1.269285507E1,-1.282383270E0,1.319743248E1
7.123965500E0,-3.864663391E0,-1.316362610E1,-9.229806519E-1,1.375022067E1
7.134022500E0,-3.970643005E0,-1.273027725E1,-5.953120422E-1,1.334842168E1
7.144078500E0,-3.571273499E0,-1.136481674E1,-1.948947144E-1,1.191432071E1
7.154135500E0,-3.413501587E0,-9.799821167E0,1.760339355E-1,1.037879935E1
7.164191500E0,-3.540287933E0,-8.760382690E0,4.441264343E-1,9.459132720E0
7.174248500E0,-3.918551331E0,-8.357270966E0,5.743556213E-1,9.248183979E0
7.184304500E0,-4.494703217E0,-8.400980072E0,6.945556641E-1,9.553074413E0
7.194361500E0,-5.014272766E0,-8.676107941E0,8.038284302E-1,1.005305528E1
7.204417500E0,-5.350174255E0,-8.976982269E0,7.685018921E-1,1.047860536E1
7.214474500E0,-5.602549438E0,-9.156159668E0,7.189549255E-1,1.075828594E1
7.224530500E0,-5.687872009E0,-9.081315308E0,6.444099426E-1,1.073487028E1
7.234587500E0,-5.397775269E0,-8.848699036E0,4.754113770E-1,1.037600446E1
7.244643500E0,-4.937781830E0,-8.662635956E0,2.347119141E-1,9.973867895E0
7.254699500E0,-4.450095978E0,-8.527766418E0,9.669891357E-2,9.619537670E0
7.264756500E0,-4.118535461E0,-8.452023926E0,1.210981750E-1,9.402856351E0
7.274812500E0,-3.865860901E0,-8.496481476E0,1.727407837E-1,9.336215366E0
7.284869500E0,-3.683689728E0,-8.620723114E0,1.695973206E-1,9.376310589E0
7.294925500E0,-3.387006683E0,-8.704249420E0,1.267863464E-1,9.340869714E0
7.304982500E0,-2.909948730E0,-8.773405609E0,1.588197327E-1,9.244764535E0
7.315038500E0,-2.450554047E0,-8.822054443E0,2.183958435E-1,9.158687487E0
7.325095500E0,-2.097138977E0,-8.891510010E0,2.008822632E-1,9.137685474E0
7.335151500E0,-1.887874146E0,-9.003028107E0,7.005432129E-2,9.199102754E0
7.345208500E0,-1.629511414E0,-9.145531769E0,-3.188369751E-2,9.289621916E0
7.355264500E0,-1.428629150E0,-9.267677765E0,-6.466552734E-2,9.377367116E0
7.365321500E0,-1.275347900E0,-9.399104462E0,-2.387535095E-1,9.488239046E0
7.375377500E0,-1.077160034E0,-9.510472870E0,-4.162843323E-1,9.580326748E0
7.385434500E0,-9.608518982E-1,-9.523046722E0,-5.469625854E-1,9.587013264E0
7.395490500E0,-8.408015442E-1,-9.448352051E0,-6.349795532E-1,9.506918678E0
7.405547500E0,-8.878038025E-1,-9.358838196E0,-6.677613831E-1,9.424539948E0
7.415603500E0,-9.982740784E-1,-9.272318115E0,-6.292913818E-1,9.347108751E0
7.425660500E0,-1.003662872E0,-9.244775391E0,-5.816903687E-1,9.317272931E0
7.435716500E0,-1.038091278E0,-9.242080994E0,-5.611830139E-1,9.317114412E0
7.445772500E0,-1.113235016E0,-9.283544769E0,-5.893244934E-1,9.368607103E0
7.455829500E0,-1.256187744E0,-9.321865082E0,-6.415658569E-1,9.427978734E0
7.465885500E0,-1.339714050E0,-9.317374420E0,-7.030879211E-1,9.439419074E0
7.475942500E0,-1.430575104E0,-9.267827454E0,-7.297325134E-1,9.405938570E0
7.485998500E0,-1.666634216E0,-9.291178894E0,-6.747967529E-1,9.463563045E0
7.496055500E0,-1.887724457E0,-9.353599091E0,-6.741979980E-1,9.565974206E0
7.506111500E0,-2.103575592E0,-9.451944580E0,-7.200027466E-1,9.709927424E0
7.516168500E0,-2.347867584E0,-9.591005402E0,-7.807763672E-1,9.905022895E0
7.526224500E0,-2.652633820E0,-9.754764862E0,-8.735833740E-1,1.014667688E1
7.536281500E0,-3.053500214E0,-9.868228912E0,-1.062490540E0,1.038434839E1
7.546337500E0,-3.482508087E0,-9.884844360E0,-1.332978058E0,1.056479253E1
7.556394500E0,-3.933669891E0,-9.730964355E0,-1.630708923E0,1.062189426E1
7.566450500E0,-4.396806793E0,-9.412426758E0,-1.894610138E0,1.056007742E1
7.576507500E0,-4.835245056E0,-9.206305389E0,-1.999242554E0,1.058926931E1
7.586563500E0,-5.395679626E0,-9.277108154E0,-2.130968628E0,1.094162335E1
7.596620500E0,-6.030958557E0,-9.707463226E0,-2.437980194E0,1.168550602E1
7.606676500E0,-6.717730408E0,-1.050380722E1,-2.728825378E0,1.276339907E1
7.616733500E0,-7.248676300E0,-1.136781052E1,-3.062930603E0,1.382577187E1
7.626789500E0,-7.347919922E0,-1.190459427E1,-3.268303528E0,1.436638785E1
7.636845500E0,-6.489604797E0,-1.163186142E1,-3.391647034E0,1.374476046E1
7.646902500E0,-4.753365326E0,-1.062385757E1,-3.320395203E0,1.210313414E1
7.656958500E0,-3.049308929E0,-9.400152283E0,-3.168161774E0,1.037778381E1
7.667015500E0,-1.982776794E0,-8.481063538E0,-3.299289093E0,9.313707697E0
7.677071500E0,-1.167572021E0,-8.072712708E0,-3.804638214E0,9.000399259E0
7.687128500E0,-4.641847229E-1,-8.032147064E0,-4.670138397E0,9.302744034E0
7.697184500E0,-2.200424194E-2,-8.372688904E0,-5.306016083E0,9.912427066E0
7.707241500E0,-2.987786865E-1,-9.045839081E0,-4.613705750E0,1.015887563E1
7.717297500E0,-1.160237274E0,-9.481582947E0,-3.576961670E0,1.020005983E1
7.727354500E0,-1.603914642E0,-9.661658478E0,-2.520907745E0,1.011311834E1
7.737410500E0,-1.925595703E0,-1.003318588E1,-1.656455383E0,1.034971411E1
7.747467500E0,-2.295177155E0,-1.042522064E1,-8.744815063E-1,1.071063871E1
7.757523500E0,-2.613265686E0,-1.059481796E1,-2.160008240E-1,1.091448494E1
7.767580500E0,-2.675835571E0,-1.062086380E1,2.145039368E-1,1.095485535E1
7.777636500E0,-2.713407440E0,-1.056757462E1,4.233197021E-1,1.091858108E1
7.787693500E0,-2.653531952E0,-1.043539948E1,3.459306335E-1,1.077304330E1
7.797749500E0,-2.694995728E0,-1.010443771E1,1.011895752E-1,1.045815007E1
7.807805500E0,-2.943179626E0,-9.715696106E0,-2.142045593E-1,1.015396182E1
7.817862500E0,-2.709515533E0,-9.440119171E0,-2.754272461E-1,9.825130257E0
7.827918500E0,-2.387235718E0,-9.190139008E0,-1.227447510E-2,9.495140863E0
7.837975500E0,-2.187850342E0,-8.901239777E0,2.649490356E-1,9.170003090E0
7.848031500E0,-2.085912323E0,-8.596623230E0,3.755690002E-1,8.854039375E0
7.858088500E0,-2.051932983E0,-8.328530731E0,3.070115662E-1,8.583071083E0
7.868144500E0,-2.282603302E0,-8.014483795E0,2.139051819E-1,8.335945283E0
7.878201500E0,-2.136357422E0,-7.754923553E0,1.344204712E-1,8.044932021E0
7.888257500E0,-1.928739166E0,-7.663463745E0,-2.263293457E-1,7.905690123E0
7.898314500E0,-2.008672943E0,-7.706873474E0,-6.158193970E-1,7.988109868E0
7.908370500E0,-2.243534546E0,-7.892487488E0,-8.990304565E-1,8.254275363E0
7.918427500E0,-2.423909454E0,-8.114775238E0,-1.089584198E0,8.538858702E0
7.928483500E0,-2.466421051E0,-8.318501587E0,-1.029109955E0,8.737263230E0
7.938540500E0,-2.478096771E0,-8.465046844E0,-8.699908447E-1,8.863118286E0
7.948596500E0,-2.395767975E0,-8.387807465E0,-8.803193665E-1,8.767552705E0
7.958653500E0,-2.075733490E0,-8.263266449E0,-1.220861206E0,8.607017138E0
7.968709500E0,-1.737736359E0,-8.453071747E0,-1.663640442E0,8.788734217E0
7.978766500E0,-1.762434998E0,-8.808582458E0,-1.900298309E0,9.181962520E0
7.988822500E0,-1.953138428E0,-9.040300598E0,-2.079625397E0,9.479800969E0
7.998878500E0,-2.131567383E0,-9.038504333E0,-2.428400116E0,9.598711748E0
8.008935500E0,-2.339634705E0,-8.880882111E0,-2.993924103E0,9.659582763E0
8.018991500E0,-2.599793701E0,-8.674611053E0,-3.712579651E0,9.787290324E0
8.029048500E0,-2.952160950E0,-8.537945251E0,-4.524341583E0,1.010353553E1
8.039104500E0,-3.382665710E0,-8.502169647E0,-5.274132385E0,1.056152396E1
8.049161500E0,-3.790567474E0,-8.512947235E0,-5.730682983E0,1.093980804E1
8.059217500E0,-3.886667633E0,-8.548124084E0,-5.750890961E0,1.101132860E1
8.069274500E0,-3.805686035E0,-8.655750275E0,-5.360203400E0,1.086908642E1
8.079331500E0,-3.746109924E0,-8.988358612E0,-4.618495789E0,1.077749662E1
8.089388500E0,-3.832031250E0,-9.840386810E0,-4.028422852E0,1.130247171E1
8.099444500E0,-4.084855499E0,-1.115540222E1,-4.125570831E0,1.257574562E1
8.109501500E0,-4.258943481E0,-1.263821869E1,-5.018464050E0,1.424949657E1
8.119557500E0,-3.677552490E0,-1.387120468E1,-4.925207977E0,1.517209232E1
8.129614500E0,-2.816243591E0,-1.448926941E1,-3.226240997E0,1.510889761E1
8.139670500E0,-2.385888519E0,-1.412777115E1,-1.961520996E0,1.446146418E1
8.149727500E0,-1.989063721E0,-1.274344986E1,-1.410816193E0,1.297467885E1
8.159783500E0,-1.613494720E0,-1.091006241E1,-1.062640228E0,1.107980285E1
8.169840500E0,-1.406924286E0,-9.414223022E0,-7.140151978E-1,9.545514589E0
8.179896500E0,-1.499282227E0,-8.315507812E0,-2.900967407E-1,8.454565246E0
8.189952500E0,-1.656305695E0,-7.623646545E0,2.514770508E-2,7.801536234E0
8.200009500E0,-1.880389709E0,-7.434589691E0,2.127076721E-1,7.671651314E0
8.210065500E0,-2.179617462E0,-7.726333008E0,4.535568237E-1,8.040688268E0
8.220122500E0,-2.443368988E0,-8.378676453E0,7.488926697E-1,8.759743794E0
8.230178500E0,-2.725681915E0,-9.225016479E0,8.833131409E-1,9.659736697E0
8.240235500E0,-3.126248932E0,-9.893376617E0,9.494755554E-1,1.041891727E1
8.250291500E0,-3.430566101E0,-1.025322830E1,9.538165283E-1,1.085390438E1
8.260348500E0,-3.399879913E0,-1.027553192E1,7.601193237E-1,1.085004705E1
8.270404500E0,-2.973716125E0,-9.983489227E0,4.230203247E-1,1.042554511E1
8.280461500E0,-2.478246460E0,-9.572893066E0,1.419049072E-1,9.889495648E0
8.290517500E0,-2.206561432E0,-9.303902435E0,-4.580474854E-2,9.562092446E0
8.300574500E0,-1.977088623E0,-9.200766907E0,-1.236428833E-1,9.411603405E0
8.310630500E0,-1.742975464E0,-9.186845856E0,-1.917512512E-1,9.352693130E0
8.320687500E0,-1.545835419E0,-9.194479980E0,-1.805245972E-1,9.325269883E0
8.330743500E0,-1.370699615E0,-9.129814453E0,-1.733395386E-1,9.233762829E0
8.340800500E0,-1.159788208E0,-9.012757874E0,-2.059716797E-1,9.089407984E0
8.350856500E0,-8.988807678E-1,-8.901239777E0,-3.588038635E-1,8.953702944E0
8.360912500E0,-7.482939148E-1,-8.741072845E0,-3.454815674E-1,8.779843722E0
8.370969500E0,-9.153465271E-1,-8.616681519E0,-2.725831604E-1,8.669449881E0
8.381025500E0,-8.384065247E-1,-8.641380157E0,-5.129832458E-1,8.697098846E0
8.391082500E0,-7.896080017E-1,-8.653055878E0,-9.268725586E-1,8.738303586E0
8.401138500E0,-5.990542603E-1,-8.635542297E0,-1.194515991E0,8.738325081E0
8.411195500E0,-6.553372192E-1,-8.557554474E0,-1.262624359E0,8.674988514E0
8.421251500E0,-7.848179626E-1,-8.574618988E0,-1.284179535E0,8.705696245E0
8.431308500E0,-9.590556335E-1,-8.687035217E0,-1.277443542E0,8.832679694E0
8.441364500E0,-1.010698242E0,-8.826395416E0,-1.288370819E0,8.977007650E0
8.451421500E0,-1.077459412E0,-8.974587250E0,-1.296753387E0,9.131577325E0
8.461477500E0,-1.353485413E0,-9.020242310E0,-1.206790466E0,9.200708522E0
8.471534500E0,-1.729204102E0,-9.073381805E0,-1.010997620E0,9.291852366E0
8.481590500E0,-2.180665283E0,-9.167985077E0,-8.044271851E-1,9.458031219E0
8.491647500E0,-2.638712769E0,-9.312285004E0,-6.954537964E-1,9.703871034E0
8.501703500E0,-3.145858154E0,-9.478888550E0,-7.089257812E-1,1.001240867E1
8.511760500E0,-3.826193390E0,-9.595945129E0,-7.670050049E-1,1.035906441E1
8.521816500E0,-4.484674072E0,-9.629475403E0,-9.316625977E-1,1.066335282E1
8.531873500E0,-4.995861053E0,-9.486372986E0,-1.187480621E0,1.078702973E1
8.541929500E0,-5.423072662E0,-9.194330292E0,-1.404080200E0,1.076646961E1
8.551986500E0,-5.803880768E0,-8.855435028E0,-1.420845337E0,1.068281625E1
8.562042500E0,-6.143823853E0,-8.452772369E0,-1.381926270E0,1.054066660E1
8.572098500E0,-6.519392853E0,-8.203091583E0,-1.591041412E0,1.059833041E1
8.582155500E0,-6.832391968E0,-8.451574860E0,-1.830543365E0,1.102096124E1
8.592211500E0,-7.041058044E0,-9.360185394E0,-2.121388550E0,1.190335492E1
8.602268500E0,-6.960375824E0,-1.076636124E1,-2.545606384E0,1.307063418E1
8.612324500E0,-6.521039429E0,-1.190983337E1,-2.847977600E0,1.387368237E1
8.622381500E0,-5.499713287E0,-1.185714294E1,-2.617756348E0,1.333009127E1
8.632437500E0,-4.483925629E0,-1.059272232E1,-2.080373840E0,1.168928186E1
8.642494500E0,-3.880231018E0,-9.096433868E0,-1.886676636E0,1.006781260E1
8.652550500E0,-3.358565826E0,-8.671018524E0,-2.071841583E0,9.526754652E0
8.662607500E0,-2.935994568E0,-8.788075104E0,-2.545007629E0,9.608714376E0
8.672663500E0,-2.062860260E0,-9.315129089E0,-3.532504120E0,1.017377058E1
8.682720500E0,-1.179098053E0,-9.890532532E0,-4.315076752E0,1.085508145E1
8.692776500E0,-4.619393921E-1,-1.045216461E1,-5.040917358E0,1.161343967E1
8.702833500E0,-5.703140259E-2,-1.118623810E1,-6.030210114E0,1.270821031E1
8.712889500E0,-4.529580688E-1,-1.153291718E1,-5.173391876E0,1.264821462E1
8.722946500E0,-8.178991699E-1,-1.153905441E1,-3.792663116E0,1.217386665E1
8.733002500E0,-1.032403107E0,-1.145013931E1,-2.929408264E0,1.186393608E1
8.743059500E0,-1.433568878E0,-1.085886887E1,-1.955982513E0,1.112636600E1
8.753115500E0,-1.686692505E0,-1.008587631E1,-9.502239990E-1,1.026999310E1
8.763171500E0,-1.657503204E0,-9.662855988E0,-6.773414612E-1,9.827354383E0
8.773228500E0,-1.741328888E0,-9.164691925E0,-7.655081177E-1,9.360011061E0
8.783284500E0,-1.853296051E0,-8.809929657E0,-8.758287048E-1,9.045255261E0
8.793341500E0,-1.779349823E0,-8.626860352E0,-1.080004120E0,8.874413458E0
8.803397500E0,-1.410516815E0,-8.432265015E0,-1.213227081E0,8.635077933E0
8.813454500E0,-1.063688049E0,-8.341703339E0,-1.153351593E0,8.487971887E0
8.823510500E0,-8.213420105E-1,-8.281678162E0,-1.053808594E0,8.388760840E0
8.833567500E0,-5.929170227E-1,-8.280330963E0,-1.092727661E0,8.373140701E0
8.843623500E0,-4.626878357E-1,-8.246950378E0,-1.114731903E0,8.334800405E0
8.853680500E0,-3.695814514E-1,-8.229885864E0,-9.550140381E-1,8.293350565E0
8.863736500E0,-4.052073669E-1,-8.229436798E0,-8.872050476E-1,8.287035406E0
8.873793500E0,-6.521937561E-1,-8.416996765E0,-8.827143860E-1,8.488249285E0
8.883849500E0,-9.623487854E-1,-8.760532379E0,-9.053173828E-1,8.859607345E0
8.893906500E0,-1.229692841E0,-9.046886902E0,-9.195378113E-1,9.176265955E0
8.903962500E0,-1.390308838E0,-9.202114105E0,-1.033600616E0,9.363770229E0
8.914019500E0,-1.452130280E0,-9.199270020E0,-1.289568329E0,9.402033701E0
8.924075500E0,-1.629960480E0,-9.160650330E0,-1.576970673E0,9.437220042E0
8.934132500E0,-1.564097443E0,-8.944799194E0,-1.981130219E0,9.294122357E0
8.944188500E0,-1.327140198E0,-8.630452881E0,-2.289339294E0,9.027020131E0
8.954244500E0,-1.464853821E0,-8.707243195E0,-2.371368713E0,9.142498036E0
8.964301500E0,-1.707499237E0,-9.073531494E0,-2.553689575E0,9.579449768E0
8.974357500E0,-1.929786987E0,-9.315578156E0,-2.951412506E0,9.960668149E0
8.984414500E0,-1.994602203E0,-9.362730103E0,-3.511248322E0,1.019647085E1
8.994470500E0,-1.982926483E0,-9.306447144E0,-4.206103363E0,1.040352159E1
9.004527500E0,-1.971250763E0,-9.258397064E0,-4.995861053E0,1.070338140E1
9.014583500E0,-2.088307343E0,-9.148226166E0,-5.883066101E0,1.107526687E1
9.024640500E0,-2.465672607E0,-9.009015656E0,-6.657854919E0,1.147035033E1
9.034696500E0,-3.205583954E0,-8.936566315E0,-6.801107025E0,1.167874320E1
9.044753500E0,-3.889062653E0,-8.806636505E0,-6.619085541E0,1.168306245E1
9.054809500E0,-4.312082977E0,-8.671916656E0,-5.957162018E0,1.137031123E1
9.064866500E0,-4.170926514E0,-8.596772919E0,-4.773273926E0,1.068107095E1
9.074922500E0,-3.394640808E0,-8.886869659E0,-3.444038086E0,1.011738291E1
9.084978875E0,-2.571652222E0,-9.956994324E0,-2.587369537E0,1.060422615E1
9.095034875E0,-2.034569092E0,-1.130598907E1,-2.898422699E0,1.184760374E1
9.105091875E0,-1.590592346E0,-1.247266296E1,-4.193080444E0,1.325440414E1
9.115147875E0,-1.230441284E0,-1.315389633E1,-4.631219330E0,1.399954167E1
9.125203875E0,-1.291963348E0,-1.293939240E1,-3.709136810E0,1.352237926E1
9.135260875E0,-1.638043671E0,-1.219798416E1,-2.578238525E0,1.257462996E1
9.145316875E0,-1.934127960E0,-1.125823837E1,-1.552272034E0,1.152815383E1
9.155373875E0,-2.084714813E0,-1.036115387E1,-8.869056702E-1,1.060594866E1
9.165429875E0,-2.165397034E0,-9.566755829E0,-6.168672180E-1,9.828137492E0
9.175486875E0,-2.291434937E0,-8.812624054E0,-4.550537109E-1,9.117022028E0
9.185542875E0,-2.503543854E0,-8.177943878E0,-2.793191528E-1,8.557132527E0
9.195599875E0,-2.808310089E0,-7.775730286E0,-1.781295776E-1,8.269239214E0
9.205655875E0,-3.151845703E0,-7.713459778E0,-9.445358276E-2,8.333097537E0
9.215712875E0,-3.549718323E0,-8.030949554E0,2.035766602E-2,8.780493457E0
9.225768875E0,-3.951033783E0,-8.561745758E0,1.431024170E-1,9.430516247E0
9.235825875E0,-4.333189087E0,-9.141789551E0,2.215393066E-1,1.011918591E1
9.245881875E0,-4.652325439E0,-9.621092834E0,1.829196167E-1,1.068845260E1
9.255938875E0,-4.900659027E0,-9.843979340E0,1.454974365E-1,1.099734321E1
9.265994875E0,-4.831802216E0,-9.725276184E0,5.583389282E-2,1.085957766E1
9.276051875E0,-4.563110962E0,-9.410480804E0,-3.367996216E-2,1.045850204E1
9.286107875E0,-4.248315582E0,-9.088051300E0,-2.098635864E-1,1.003418679E1
9.296164875E0,-3.823049927E0,-8.705446930E0,-3.483256531E-1,9.514297018E0
9.306220875E0,-3.385958862E0,-8.472082214E0,-4.248165894E-1,9.133529635E0
9.316276875E0,-3.031795349E0,-8.451874237E0,-4.713697815E-1,8.991559966E0
9.326333875E0,-2.929108887E0,-8.533304901E0,-5.432203674E-1,9.038365990E0
9.336389875E0,-2.933300171E0,-8.584348755E0,-6.810836792E-1,9.097206627E0
9.346446875E0,-2.812800751E0,-8.547824707E0,-7.451504517E-1,9.029529582E0
9.356502875E0,-2.331701202E0,-8.548124084E0,-7.792794800E-1,8.894635033E0
9.366559875E0,-2.125430145E0,-8.490793304E0,-6.655160522E-1,8.778037130E0
9.376615875E0,-2.138902130E0,-8.425529022E0,-5.049000549E-1,8.707431636E0
9.386672875E0,-2.076182556E0,-8.395740967E0,-5.641767883E-1,8.667023470E0
9.396728875E0,-2.109114075E0,-8.397986298E0,-8.523275757E-1,8.700632065E0
9.406785875E0,-2.230811005E0,-8.476572876E0,-1.110390930E0,8.835257409E0
9.416841875E0,-2.436932373E0,-8.566685486E0,-1.162332916E0,8.982079793E0
9.426898875E0,-2.547252960E0,-8.657995605E0,-1.078956299E0,9.089198658E0
9.436954875E0,-2.615061951E0,-8.701105957E0,-1.102457428E0,9.152224116E0
9.447011875E0,-2.797682190E0,-8.760682068E0,-1.100361786E0,9.262147267E0
9.457067875E0,-3.011138306E0,-8.811875610E0,-1.069825287E0,9.373400227E0
9.467124875E0,-3.141068115E0,-8.901688843E0,-1.112486572E0,9.504946056E0
9.477180875E0,-3.225791931E0,-8.973090363E0,-1.191222839E0,9.609427459E0
9.487237875E0,-3.325334930E0,-8.999136200E0,-1.300794983E0,9.681651323E0
9.497293875E0,-3.486100616E0,-9.033863983E0,-1.337019653E0,9.775030308E0
9.507349875E0,-3.565136261E0,-9.032217407E0,-1.305135956E0,9.797679711E0
9.517406875E0,-3.617078247E0,-9.014254761E0,-1.356628876E0,9.807165026E0
9.527462875E0,-3.676654358E0,-8.921148376E0,-1.483415222E0,9.762438033E0
9.537519875E0,-3.755091248E0,-8.894054718E0,-1.688189392E0,9.800760329E0
9.547575875E0,-3.886068878E0,-8.943152618E0,-1.958527222E0,9.945719630E0
9.557632875E0,-4.091591492E0,-9.004225616E0,-2.185605011E0,1.012887304E1
9.567688875E0,-4.331991577E0,-9.024433594E0,-2.369422760E0,1.028691970E1
9.577745875E0,-4.586312714E0,-8.982371063E0,-2.555635529E0,1.040425524E1
9.587801875E0,-4.875511322E0,-8.868158569E0,-2.696342926E0,1.047306604E1
9.597858875E0,-5.157824249E0,-8.690478058E0,-2.743494873E0,1.047159606E1
9.607914875E0,-5.287155304E0,-8.468639374E0,-2.762505341E0,1.035873061E1
9.617971875E0,-5.301824799E0,-8.237370300E0,-3.086880798E0,1.027095170E1
9.628027875E0,-5.282814331E0,-8.046816559E0,-3.298989716E0,1.017559419E1
9.638084875E0,-5.209317169E0,-7.915988617E0,-3.458557892E0,1.008768972E1
9.648140875E0,-5.212161255E0,-7.942633209E0,-3.532504120E0,1.013561210E1
9.658197875E0,-5.369783478E0,-8.359067230E0,-3.591481476E0,1.056443651E1
9.668253875E0,-5.740562439E0,-9.234147491E0,-3.778442688E0,1.151087165E1
9.678309875E0,-6.280938721E0,-1.049108368E1,-4.097129974E0,1.289571642E1
9.688366875E0,-6.882837067E0,-1.191567123E1,-4.276906128E0,1.441001711E1
9.698422875E0,-6.923253021E0,-1.290286835E1,-4.055067444E0,1.519404541E1
9.708479875E0,-6.261030121E0,-1.293969177E1,-3.455264740E0,1.478428137E1
9.718535875E0,-5.278623047E0,-1.211026657E1,-2.671045532E0,1.347801550E1
9.728592875E0,-4.209546204E0,-1.071890991E1,-1.888921967E0,1.166976157E1
9.738648875E0,-3.315156097E0,-9.434281311E0,-1.312321014E0,1.008553966E1
9.748705875E0,-2.707270203E0,-8.493637390E0,-9.355545044E-1,8.963618148E0
9.758761875E0,-2.408641205E0,-7.826175385E0,-7.280859375E-1,8.220747091E0
9.768818875E0,-2.220332794E0,-7.458539886E0,-4.870870972E-1,7.797239819E0
9.778874875E0,-2.081421661E0,-7.330556030E0,-2.279759216E-1,7.623735362E0
9.788931875E0,-1.906734924E0,-7.527546387E0,1.511856079E-2,7.765295954E0
9.798987875E0,-1.813179474E0,-8.068371735E0,2.381547546E-1,8.273026045E0
9.809044875E0,-2.130070496E0,-8.782835999E0,4.567002869E-1,9.048976939E0
9.819100875E0,-2.531236267E0,-9.706565094E0,5.782475281E-1,1.004783226E1
9.829157875E0,-2.934198303E0,-1.057984909E1,8.961863708E-1,1.101571044E1
9.839213875E0,-3.347189484E0,-1.119297409E1,1.200802917E0,1.174428687E1
9.849270875E0,-3.694766693E0,-1.135748199E1,1.300046539E0,1.201390108E1
9.859326875E0,-3.722309418E0,-1.112546448E1,1.226549377E0,1.179559115E1
9.869383875E0,-3.460653534E0,-1.072848999E1,1.052461395E0,1.132185035E1
9.879439875E0,-3.121009827E0,-1.026146118E1,7.867639160E-1,1.075440772E1
9.889495875E0,-2.868035889E0,-9.909992065E0,5.508544922E-1,1.033136067E1
9.899552875E0,-2.838247833E0,-9.544452209E0,3.607498169E-1,9.964053351E0
9.909608875E0,-2.890339508E0,-9.156608734E0,1.118174744E-1,9.602606372E0
9.919665875E0,-2.978955231E0,-8.747509460E0,-4.745132446E-2,9.240960321E0
9.929721875E0,-3.254532166E0,-8.358019409E0,-6.137237549E-2,8.969516967E0
9.939778875E0,-3.641776886E0,-7.991581421E0,-4.355941772E-2,8.782357879E0
9.949834875E0,-3.749403076E0,-7.649243317E0,-2.444416809E-1,8.522247267E0
9.959891875E0,-3.783532104E0,-7.345075836E0,-6.483018494E-1,8.287674554E0
9.969947875E0,-3.935915222E0,-7.083120575E0,-8.545729065E-1,8.148148291E0
9.980004875E0,-4.139641571E0,-6.936425629E0,-9.174421692E-1,8.129719120E0
9.990060875E0,-4.271517334E0,-6.892417145E0,-9.075627136E-1,8.159347064E0
1.000011787E1,-4.398303680E0,-6.987469482E0,-9.196875000E-1,8.307564633E0
1.001017388E1,-4.540058899E0,-7.205416260E0,-9.948312378E-1,8.574371550E0
1.002023088E1,-4.578379211E0,-7.472910004E0,-1.177451477E0,8.842642824E0
1.003028688E1,-4.174369354E0,-7.718848572E0,-1.303938446E0,8.871653637E0
1.004034388E1,-3.510050812E0,-7.977510681E0,-1.316661987E0,8.814461535E0
1.005039987E1,-3.471131744E0,-8.428522797E0,-1.322948914E0,9.210805934E0
1.006045688E1,-3.648812256E0,-8.935069427E0,-1.355281677E0,9.746080493E0
1.007051287E1,-3.534001007E0,-9.231004028E0,-1.589544525E0,1.001135607E1
1.008056867E1,-3.201991425E0,-9.260792084E0,-1.956581268E0,9.992158393E0
1.009062567E1,-2.998115387E0,-9.216783600E0,-2.433788910E0,9.993053800E0
1.010068167E1,-2.946173401E0,-9.243278503E0,-3.034190369E0,1.016486332E1
1.011073867E1,-3.094664612E0,-9.347162476E0,-3.449576569E0,1.043292739E1
1.012079467E1,-3.211721191E0,-9.461973724E0,-3.536396027E0,1.059953757E1
1.013085167E1,-3.347189484E0,-9.604327698E0,-3.442690887E0,1.073773293E1
1.014090767E1,-3.179388428E0,-9.651928711E0,-3.081941071E0,1.061916190E1
1.015096467E1,-2.775228882E0,-9.550888824E0,-2.738704834E0,1.031609795E1
1.016102067E1,-2.601889343E0,-9.378148041E0,-2.708318024E0,1.010220151E1
1.017107767E1,-2.442321167E0,-9.421557770E0,-2.591261444E0,1.007200672E1
1.018113367E1,-2.334245911E0,-9.599537659E0,-1.916464691E0,1.006343203E1
1.019119067E1,-2.468217316E0,-9.965676270E0,-1.050365753E0,1.032037153E1
1.020124667E1,-2.741548920E0,-1.044542862E1,-3.818559265E-1,1.080596518E1
1.021130367E1,-2.864293671E0,-1.080767532E1,-3.712280273E-2,1.118084980E1
1.022135967E1,-2.952460327E0,-1.092742630E1,-9.131011963E-3,1.131926459E1
1.023141667E1,-3.064277802E0,-1.077594131E1,-1.059796143E-1,1.120365750E1
1.024147267E1,-3.279380493E0,-1.046952850E1,-1.309776306E-1,1.097189677E1
1.025152967E1,-3.553759918E0,-1.014425491E1,-3.053649902E-2,1.074876969E1
1.026158567E1,-3.940854950E0,-9.900262299E0,1.752854919E-1,1.065721616E1
1.027164167E1,-4.264481964E0,-9.650731201E0,3.635939026E-1,1.055720700E1
1.028169867E1,-4.537663879E0,-9.419162750E0,6.776408386E-1,1.047712830E1
1.029175467E1,-4.837041321E0,-9.234895935E0,9.090596008E-1,1.046454304E1
1.030181167E1,-5.082381134E0,-9.019493866E0,1.089883575E0,1.041007751E1
1.031186767E1,-5.242847443E0,-8.766220551E0,1.208137665E0,1.028560492E1
1.032192467E1,-5.226381683E0,-8.493936768E0,1.196162567E0,1.004454241E1
1.033198067E1,-5.055137787E0,-8.248896332E0,1.059796143E0,9.732516458E0
1.034203767E1,-4.900808716E0,-8.102800140E0,8.863069153E-1,9.510985024E0
1.035209367E1,-4.977149963E0,-8.108937378E0,7.737409973E-1,9.545970998E0
1.036215067E1,-5.174888763E0,-8.259524231E0,6.120771790E-1,9.765953753E0
1.037220667E1,-5.180876312E0,-8.498577118E0,4.855902100E-1,9.965093589E0
1.038226367E1,-5.165158997E0,-8.782536621E0,2.980302429E-1,1.019316629E1
1.039231967E1,-5.090763702E0,-9.034612427E0,-3.113525391E-2,1.037020087E1
1.040237667E1,-4.967569885E0,-9.161099396E0,-4.432283020E-1,1.043067323E1
1.041243267E1,-4.857099609E0,-9.161099396E0,-7.819738770E-1,1.039849229E1
1.042248967E1,-4.532574463E0,-8.978179779E0,-1.095272369E0,1.011689503E1
1.043254567E1,-4.492757263E0,-8.725355530E0,-1.515598297E0,9.930444861E0
1.044260267E1,-4.666096802E0,-8.566086731E0,-1.963916016E0,9.950239563E0
1.045265867E1,-4.674629059E0,-8.444240112E0,-2.183808746E0,9.895775288E0
1.046271467E1,-4.655019836E0,-8.438851318E0,-2.201022949E0,9.885743436E0
1.047277167E1,-4.698579254E0,-8.474028168E0,-2.011367340E0,9.896029455E0
1.048282767E1,-4.821473694E0,-8.552764435E0,-1.719474335E0,9.967596503E0
1.049288467E1,-4.866829376E0,-8.600215759E0,-1.472038879E0,9.990827681E0
1.050294067E1,-4.957391052E0,-8.598419495E0,-1.208137665E0,9.998406896E0
1.051299767E1,-5.080584869E0,-8.589138794E0,-9.593550110E-1,1.002526857E1
1.052305367E1,-5.112318878E0,-8.611442413E0,-7.475454712E-1,1.004248819E1
1.053311067E1,-5.162464600E0,-8.575367432E0,-5.490582275E-1,1.002444174E1
1.054316667E1,-5.267246704E0,-8.428672485E0,-3.713777161E-1,9.946071039E0
1.055322367E1,-5.310207367E0,-8.303981781E0,-2.128573608E-1,9.858992035E0
1.056327967E1,-5.286107483E0,-8.241411896E0,-5.718109131E-2,9.791173169E0
1.057333667E1,-5.224435730E0,-8.235574036E0,2.065704346E-2,9.752939819E0
1.058339267E1,-5.186265106E0,-8.329428864E0,-1.032852173E-2,9.812076112E0
1.059344967E1,-5.119653625E0,-8.504115601E0,-1.715432739E-1,9.927752137E0
1.060350567E1,-5.034181366E0,-8.641080780E0,-3.888912964E-1,1.000812148E1
1.061356267E1,-5.030888214E0,-8.710386658E0,-5.204676819E-1,1.007231644E1
1.062361867E1,-5.095104675E0,-8.709039459E0,-6.641688538E-1,1.011180400E1
1.063367567E1,-5.187312927E0,-8.639434204E0,-7.614665222E-1,1.010583347E1
1.064373167E1,-5.257217560E0,-8.507259064E0,-8.005352783E-1,1.003257943E1
1.065378767E1,-5.287155304E0,-8.346942444E0,-8.147557068E-1,9.914095331E0
1.066384467E1,-5.353168030E0,-8.200097809E0,-8.532257080E-1,9.829852803E0
1.067390067E1,-5.397326202E0,-8.122259674E0,-8.379574585E-1,9.787972469E0
1.068395767E1,-5.497018890E0,-8.025111694E0,-8.237370300E-1,9.762078523E0
1.069401367E1,-5.644911346E0,-7.945776672E0,-8.461903381E-1,9.783477353E0
1.070407067E1,-5.828130341E0,-7.827672272E0,-8.725355530E-1,9.798003611E0
1.071412667E1,-5.949527893E0,-7.699089661E0,-8.978329468E-1,9.771333980E0
1.072418367E1,-5.989644470E0,-7.568112030E0,-8.611592102E-1,9.689879038E0
1.073423967E1,-6.014792175E0,-7.454049225E0,-8.446934509E-1,9.615304560E0
1.074429667E1,-6.017935638E0,-7.376809845E0,-8.541238403E-1,9.558368081E0
1.075435267E1,-6.021977234E0,-7.375163269E0,-8.565188599E-1,9.559857091E0
1.076440967E1,-6.113437042E0,-7.555538177E0,-8.792715454E-1,9.758759556E0
1.077446567E1,-6.330635376E0,-7.930658112E0,-8.915460205E-1,1.018661556E1
1.078452267E1,-6.522087250E0,-8.382268982E0,-8.840615845E-1,1.065746782E1
1.079457867E1,-6.686146088E0,-8.868008881E0,-9.601034546E-1,1.114755263E1
1.080463567E1,-6.765331421E0,-9.337582397E0,-9.782157898E-1,1.157225390E1
1.081469167E1,-6.721023560E0,-9.644144897E0,-9.584568787E-1,1.179408021E1
1.082474867E1,-6.411018219E0,-9.597292328E0,-8.919950867E-1,1.157604552E1
1.083480467E1,-5.967340851E0,-9.254804535E0,-8.631051636E-1,1.104561064E1
1.084486167E1,-5.456004181E0,-8.851992188E0,-8.250842285E-1,1.043103596E1
1.085491767E1,-5.059778137E0,-8.529113617E0,-7.668553162E-1,9.946617564E0
1.086497367E1,-4.773872681E0,-8.306227112E0,-6.968009949E-1,9.605665038E0
1.087503067E1,-4.533921661E0,-8.145012360E0,-5.818400574E-1,9.340032646E0
1.088508667E1,-4.268373871E0,-7.989186401E0,-4.707710266E-1,9.070156571E0
1.089514367E1,-4.019142151E0,-7.887847137E0,-3.333567810E-1,8.859049771E0
1.090519967E1,-3.810326385E0,-7.884853363E0,-1.998344421E-1,8.759533865E0
1.091525667E1,-3.669918365E0,-7.976163483E0,-6.451583862E-2,8.780184907E0
1.092531267E1,-3.585194550E0,-8.189320221E0,4.984634399E-2,8.939858517E0
1.093536967E1,-3.575464783E0,-8.541088715E0,1.127156067E-1,9.259959484E0
1.094542567E1,-3.657793579E0,-8.969497833E0,1.251397705E-1,9.687466398E0
1.095548267E1,-3.769611053E0,-9.439071350E0,1.188528442E-1,1.016465255E1
1.096553867E1,-3.963907013E0,-9.956096191E0,1.089733887E-1,1.071672923E1
1.097559567E1,-4.179309082E0,-1.040261765E1,1.351689148E-1,1.121157210E1
1.098565167E1,-4.323758698E0,-1.063238983E1,1.163081360E-1,1.147850732E1
1.099570867E1,-4.303251343E0,-1.055859329E1,1.576222229E-1,1.140292547E1
1.100576467E1,-4.097279663E0,-1.024574387E1,1.459465027E-1,1.103559098E1
1.101582167E1,-3.758683777E0,-9.885892181E0,-1.273851013E-1,1.057708821E1
1.102587767E1,-3.728746033E0,-9.628577271E0,-8.461903381E-1,1.035997516E1
1.103593467E1,-3.905079346E0,-9.339228973E0,-1.809886322E0,1.028331323E1
1.104599067E1,-3.764072571E0,-8.990454254E0,-2.088007965E0,9.967762401E0
1.105604667E1,-3.873345337E0,-8.815917206E0,-2.406395874E0,9.925418952E0
1.106610367E1,-4.113745422E0,-8.731492767E0,-2.826871490E0,1.005748824E1
1.107615967E1,-4.092639313E0,-8.555458832E0,-2.823728027E0,9.895403597E0
1.108621713E1,-3.748804321E0,-8.358917542E0,-2.473157043E0,9.489022187E0
1.109627312E1,-3.379372559E0,-8.193062439E0,-1.862127686E0,9.056155395E0
1.110633013E1,-3.318299561E0,-8.180787964E0,-1.485959930E0,8.952344978E0
1.111638612E1,-3.307521973E0,-8.301586761E0,-1.367406464E0,9.040234775E0
1.112644313E1,-3.382516022E0,-8.383915558E0,-1.554667053E0,9.173246119E0
1.113649912E1,-3.283571777E0,-8.400830383E0,-1.737736359E0,9.185614971E0
1.114655613E1,-3.126997375E0,-8.352031860E0,-1.804497528E0,9.098942802E0
1.115661212E1,-2.826572113E0,-8.192763062E0,-1.686842194E0,8.829287235E0
1.116666913E1,-2.518812103E0,-8.051007843E0,-1.388063507E0,8.549260904E0
1.117672512E1,-2.410587158E0,-8.117769012E0,-7.917036438E-1,8.505051372E0
1.118678212E1,-2.500250702E0,-8.477620697E0,-1.950444031E-1,8.840777600E0
1.119683813E1,-2.951861572E0,-8.968599701E0,1.115180969E-1,9.442547518E0
1.120689512E1,-3.451522522E0,-9.299262085E0,1.019380188E-1,9.919661002E0
1.121695113E1,-3.602109375E0,-9.302555237E0,-1.445993042E-1,9.976654491E0
1.122700812E1,-3.418141937E0,-9.148675232E0,-6.273454285E-1,9.786496569E0
1.123706413E1,-3.182831268E0,-9.057065735E0,-1.073417816E0,9.659869586E0
1.124712012E1,-3.184477844E0,-8.988059235E0,-1.303938446E0,9.624259110E0
1.125717713E1,-3.314257965E0,-8.893156586E0,-1.539398804E0,9.614691290E0
1.126723312E1,-3.512296143E0,-8.788673859E0,-1.923500061E0,9.657994868E0
1.127729013E1,-3.718716888E0,-8.686735840E0,-2.430346069E0,9.756783121E0
1.128734612E1,-3.870201874E0,-8.603059845E0,-3.101699982E0,9.930339572E0
1.129740312E1,-4.088747406E0,-8.527317352E0,-3.936963043E0,1.024366510E1
1.130745913E1,-4.321812744E0,-8.427624664E0,-4.734654236E0,1.058866723E1
1.131751612E1,-4.428091736E0,-8.377928009E0,-5.158722382E0,1.078935080E1
1.132757213E1,-4.136049042E0,-8.286468201E0,-5.319787445E0,1.068047730E1
1.133762912E1,-3.530258789E0,-8.111182709E0,-5.184019775E0,1.025319819E1
1.134768513E1,-3.068169708E0,-8.133785706E0,-4.737947388E0,9.900519214E0
1.135774212E1,-2.926115112E0,-8.566236420E0,-4.244423676E0,9.997884195E0
1.136779813E1,-2.870730286E0,-9.348958740E0,-4.137845306E0,1.061912829E1
1.137785512E1,-3.189716949E0,-1.042043060E1,-3.976480865E0,1.160052017E1
1.138791113E1,-4.121529236E0,-1.165835632E1,-3.403622131E0,1.282532335E1
1.139796813E1,-5.202431488E0,-1.276036469E1,-2.858605499E0,1.407351504E1
1.140802412E1,-5.942941589E0,-1.332499054E1,-2.760409698E0,1.484903328E1
1.141808113E1,-6.073619843E0,-1.290705963E1,-2.606380005E0,1.450083663E1
1.142813712E1,-6.001020813E0,-1.193453201E1,-2.390977936E0,1.357063302E1
1.143819313E1,-5.949976959E0,-1.090033264E1,-2.185904388E0,1.260942725E1
1.144825012E1,-5.645659790E0,-9.738299103E0,-1.865121460E0,1.140993523E1
1.145830613E1,-5.140160980E0,-8.563841400E0,-1.481618958E0,1.009731792E1
1.146836312E1,-4.520299988E0,-7.578889618E0,-9.725276184E-1,8.877977798E0
1.147841913E1,-4.336332550E0,-6.790179749E0,-7.583230591E-1,8.092303434E0
1.148847612E1,-4.376299438E0,-6.342011719E0,-6.316864014E-1,7.731244216E0
1.149853213E1,-4.504882050E0,-6.185587006E0,-4.312532043E-1,7.664295676E0
1.150858913E1,-4.801864471E0,-6.228996735E0,-8.711883545E-2,7.865487424E0
1.151864512E1,-5.180127869E0,-6.274352417E0,2.130070496E-1,8.139201127E0
1.152870213E1,-5.482199707E0,-6.388115845E0,4.382885742E-1,8.429391114E0
1.153875812E1,-5.641318817E0,-6.516997833E0,6.248007202E-1,8.642112861E0
1.154881513E1,-5.725443878E0,-6.652316437E0,7.454498291E-1,8.808502542E0
1.155887112E1,-5.781277771E0,-6.860084381E0,7.129673767E-1,8.999569593E0
1.156892813E1,-5.782774658E0,-7.073540497E0,5.607339478E-1,9.153681252E0
1.157898412E1,-5.644462280E0,-7.298971710E0,3.857478333E-1,9.234919807E0
1.158904113E1,-5.467380524E0,-7.566016388E0,2.415975952E-1,9.337838249E0
1.159909712E1,-5.402714996E0,-7.874524841E0,8.681945801E-2,9.550131330E0
1.160915412E1,-5.327122192E0,-8.157286835E0,-7.559280396E-2,9.742960209E0
1.161921013E1,-5.076842651E0,-8.318202209E0,-1.538800049E-1,9.746306909E0
1.162926612E1,-4.821922760E0,-8.437504120E0,-1.739382935E-1,9.719705212E0
1.163932313E1,-4.613855438E0,-8.528664551E0,-2.344125366E-1,9.699522167E0
1.164937912E1,-4.406536560E0,-8.612789612E0,-3.308120728E-1,9.680245140E0
1.165943613E1,-4.333488464E0,-8.645721130E0,-3.811074829E-1,9.678474004E0
1.166949212E1,-4.284689941E0,-8.638236694E0,-3.788621521E-1,9.649934591E0
1.167954913E1,-4.251758423E0,-8.654702454E0,-4.472698975E-1,9.653050016E0
1.168960512E1,-4.174069977E0,-8.691076813E0,-5.340893555E-1,9.656237765E0
1.169966213E1,-4.185446320E0,-8.738677826E0,-6.116281128E-1,9.708580740E0
1.170971812E1,-4.246818695E0,-8.836873627E0,-6.929090881E-1,9.828831443E0
1.171977512E1,-4.335135040E0,-8.910221100E0,-8.047265625E-1,9.941479805E0
1.172983113E1,-4.405937805E0,-8.914412384E0,-9.128018188E-1,9.985601797E0
1.173988812E1,-4.432732086E0,-8.882378998E0,-9.996212769E-1,9.977224720E0
1.174994413E1,-4.446054382E0,-8.825796661E0,-1.083297272E0,9.941610496E0
1.176000112E1,-4.501588898E0,-8.732540588E0,-1.141226807E0,9.890599899E0
1.177005713E1,-4.511168976E0,-8.640931091E0,-1.182091827E0,9.819046631E0
1.178011412E1,-4.455185394E0,-8.565338287E0,-1.202599182E0,9.729334081E0
1.179017013E1,-4.415817261E0,-8.519683228E0,-1.237776031E0,9.675563750E0
1.180022713E1,-4.338128815E0,-8.503816223E0,-1.264720001E0,9.629837416E0
1.181028313E1,-4.243824921E0,-8.526868286E0,-1.340013428E0,9.618376615E0
1.182034013E1,-4.156855774E0,-8.606652374E0,-1.451082458E0,9.667448232E0
1.183039612E1,-4.106260986E0,-8.672216034E0,-1.585652618E0,9.725379399E0
1.184045213E1,-4.081861725E0,-8.731642456E0,-1.772314453E0,9.800218041E0
1.185050912E1,-4.070335693E0,-8.754844208E0,-1.973945160E0,9.854511112E0
1.186056513E1,-4.075125732E0,-8.712482300E0,-2.182611237E0,9.862950338E0
1.187062212E1,-4.100872192E0,-8.647367706E0,-2.461481323E0,9.881953820E0
1.188067813E1,-4.165837097E0,-8.597371674E0,-2.763104095E0,9.945036081E0
1.189073512E1,-4.274211731E0,-8.549770660E0,-3.099155273E0,1.004849380E1
1.190079113E1,-4.342170410E0,-8.539891205E0,-3.226540375E0,1.010914183E1
1.191084813E1,-4.331542511E0,-8.535699921E0,-3.187770996E0,1.008872230E1
1.192090413E1,-4.618495789E0,-8.825796661E0,-3.215164032E0,1.046720927E1
1.193096113E1,-5.422922974E0,-9.620943146E0,-3.427722015E0,1.156373291E1
1.194101712E1,-6.597530365E0,-1.076950470E1,-4.028572540E0,1.325666003E1
1.195107413E1,-7.360194397E0,-1.149489624E1,-4.252806244E0,1.429655420E1
1.196113012E1,-7.015910339E0,-1.146959885E1,-3.768563232E0,1.396340805E1
1.197118713E1,-6.199657745E0,-1.068014053E1,-3.158881073E0,1.274675204E1
1.198124312E1,-4.766987000E0,-9.579479370E0,-2.799179077E0,1.106010821E1
1.199130013E1,-3.481160889E0,-8.801846466E0,-2.366129608E0,9.756513295E0
1.200135612E1,-2.805615692E0,-8.387957153E0,-1.950444031E0,9.057236694E0
1.201141213E1,-2.601140900E0,-8.223748627E0,-1.558858337E0,8.765045052E0
1.202146913E1,-2.534828796E0,-8.240364075E0,-1.269659729E0,8.714412943E0
1.203152513E1,-2.529589691E0,-8.463100891E0,-1.099763031E0,8.901257182E0
1.204158213E1,-2.572849731E0,-8.896150360E0,-1.038240967E0,9.318744083E0
1.205163812E1,-2.764600983E0,-9.367520142E0,-1.154998169E0,9.835012606E0
1.206169513E1,-2.970422974E0,-9.734107819E0,-1.163380737E0,1.024352100E1
1.207175112E1,-3.173999634E0,-1.003049149E1,-1.103654938E0,1.057842556E1
1.208180800E1,-3.345692596E0,-1.028196854E1,-9.547146606E-1,1.085467715E1
1.209186400E1,-3.359913025E0,-1.029948212E1,-6.973997498E-1,1.085609109E1
1.210192100E1,-3.418441315E0,-1.006611740E1,-4.736151123E-1,1.064127680E1
1.211197700E1,-3.520229645E0,-9.674531708E0,-6.509962463E-1,1.031563748E1
1.212203400E1,-3.710783386E0,-9.360185394E0,-1.121318207E0,1.013115682E1
1.213209000E1,-3.932771759E0,-9.110803986E0,-1.565145264E0,1.004605010E1
1.214214700E1,-3.979923706E0,-8.953630829E0,-1.614243164E0,9.930411810E0
1.215220300E1,-4.136198730E0,-8.715775452E0,-1.613045654E0,9.781349495E0
1.216226000E1,-4.487667847E0,-8.385113068E0,-1.671723633E0,9.656290373E0
1.217231600E1,-4.663851471E0,-8.054001617E0,-1.697470093E0,9.460436423E0
1.218237300E1,-4.334236908E0,-7.769593048E0,-1.747466125E0,9.066742721E0
1.219242900E1,-4.067641296E0,-7.295079803E0,-1.940714264E0,8.574979120E0
1.220248600E1,-3.591182098E0,-6.806944885E0,-1.419647827E0,7.826013512E0
1.221254200E1,-3.296295319E0,-6.687044220E0,-8.671467590E-1,7.505602356E0
1.222259800E1,-3.491040344E0,-6.764133911E0,-6.481521606E-1,7.639435285E0
1.223265500E1,-4.294419708E0,-7.223678284E0,-6.683601379E-1,8.430318728E0
1.224271100E1,-4.746779022E0,-7.690856781E0,-8.128097534E-1,9.074240949E0
1.225276800E1,-4.457281036E0,-7.900870056E0,-5.388793945E-1,9.087435991E0
1.226282400E1,-4.258494415E0,-7.951913910E0,-1.148112488E-1,9.021135801E0
1.227288100E1,-4.267924805E0,-8.025411072E0,7.334747314E-2,9.089982666E0
1.228293700E1,-4.308041382E0,-8.174501038E0,1.552272034E-1,9.241524942E0
1.229299400E1,-4.001628571E0,-8.335266724E0,-1.880090332E-1,9.247975452E0
1.230305000E1,-3.611539764E0,-8.337512054E0,-1.059796143E0,9.147704335E0
1.231310700E1,-3.697910156E0,-8.560847626E0,-1.503473511E0,9.445797171E0
1.232316300E1,-3.928430786E0,-8.744515686E0,-1.661993866E0,9.729406284E0
1.233322000E1,-4.030967560E0,-8.797056427E0,-1.886526947E0,9.858797349E0
1.234327600E1,-3.924389191E0,-8.677604828E0,-2.401306458E0,9.821808834E0
1.235333300E1,-3.796105957E0,-8.504564667E0,-3.326682129E0,9.889633694E0
1.236338900E1,-3.769311676E0,-8.358019409E0,-4.283941498E0,1.012009653E1
1.237344600E1,-3.916006622E0,-8.239316254E0,-5.012775879E0,1.040909997E1
1.238350200E1,-4.234394531E0,-8.191415863E0,-5.518873444E0,1.074650431E1
1.239355900E1,-4.498595123E0,-8.149203644E0,-6.313570862E0,1.124757997E1
1.240361500E1,-4.297413483E0,-8.258775787E0,-6.600075073E0,1.141210459E1
1.241367100E1,-3.806284790E0,-8.268056488E0,-6.165079651E0,1.099348758E1
1.242372800E1,-3.418141937E0,-8.126001892E0,-5.275030518E0,1.027334162E1
1.243378400E1,-3.232527924E0,-8.473279724E0,-4.363126831E0,1.006392477E1
1.244384100E1,-3.414100342E0,-9.486073608E0,-3.758833466E0,1.075967019E1
1.245389700E1,-3.589535522E0,-1.073268127E1,-2.609972534E0,1.161409356E1
1.246395400E1,-4.427043915E0,-1.216595078E1,-2.114053802E0,1.311786185E1
1.247401000E1,-5.269641724E0,-1.319700668E1,-2.301015015E0,1.439530407E1
1.248406700E1,-5.270090790E0,-1.326885727E1,-2.641107788E0,1.451936226E1
1.249412300E1,-4.995711365E0,-1.231055008E1,-2.374961243E0,1.349619266E1
1.250418000E1,-4.593048706E0,-1.061143341E1,-1.505718842E0,1.166043759E1
1.251423600E1,-4.320465546E0,-9.098828888E0,-7.699987793E-1,1.010188140E1
1.252429300E1,-4.239034882E0,-8.170160065E0,-4.629872131E-1,9.216034362E0
1.253434900E1,-4.436623993E0,-7.760761414E0,-1.348695374E-1,8.940427281E0
1.254440600E1,-4.709207153E0,-7.674840088E0,3.338058472E-1,9.010617555E0
1.255446200E1,-4.947212219E0,-7.746091919E0,8.056246948E-1,9.226368728E0
1.256451900E1,-5.324427795E0,-7.886799316E0,9.593550110E-1,9.564073235E0
1.257457500E1,-5.553451538E0,-8.055498505E0,8.954379272E-1,9.825155939E0
1.258463200E1,-5.372477875E0,-8.200696564E0,7.364685059E-1,9.831445901E0
1.259468800E1,-5.061873779E0,-8.219257965E0,4.096980286E-1,9.661605463E0
1.260474400E1,-4.693040771E0,-8.213569794E0,8.816665649E-2,9.460186774E0
1.261480100E1,-4.392914886E0,-8.291258240E0,-1.806742859E-1,9.384844570E0
1.262485700E1,-4.092339935E0,-8.407117310E0,-3.300636292E-1,9.356057375E0
1.263491400E1,-3.721710663E0,-8.458310852E0,-3.589535522E-1,9.247864639E0
1.264497000E1,-3.385809174E0,-8.485853577E0,-4.040098572E-1,9.145306919E0
1.265502700E1,-3.178190918E0,-8.492739258E0,-3.119512939E-1,9.073303214E0
1.266508300E1,-2.899470520E0,-8.464897156E0,-1.573228455E-1,8.949087307E0
1.267514000E1,-2.678380280E0,-8.418194275E0,-2.589614868E-1,8.837803846E0
1.268519600E1,-2.488574982E0,-8.395890656E0,-3.466790771E-1,8.763798932E0
1.269525300E1,-2.408491516E0,-8.360564117E0,-4.718188477E-1,8.713350490E0
1.270530900E1,-2.184108124E0,-8.332722015E0,-6.466552734E-1,8.638445898E0
1.271536600E1,-2.007176056E0,-8.314759369E0,-8.068222046E-1,8.591562207E0
1.272542200E1,-2.001936951E0,-8.332422638E0,-9.551637268E-1,8.622607281E0
1.273547900E1,-1.970502319E0,-8.494535522E0,-1.042581940E0,8.782197347E0
1.274553500E1,-1.958377533E0,-8.742569733E0,-1.110690308E0,9.027812639E0
1.275559200E1,-2.051633606E0,-9.046138458E0,-1.160536652E0,9.348190562E0
1.276564800E1,-2.190245361E0,-9.368418274E0,-1.166075134E0,9.691448133E0
1.277570500E1,-2.383493500E0,-9.642947388E0,-1.077609100E0,9.991432178E0
1.278576100E1,-2.614612885E0,-9.851763153E0,-9.970765686E-1,1.024146471E1
1.279581800E1,-2.800376587E0,-9.979447632E0,-9.475296021E-1,1.040813607E1
1.280587400E1,-2.965333557E0,-9.935888214E0,-8.967851257E-1,1.040765590E1
1.281593000E1,-3.106490021E0,-9.830207977E0,-7.939489746E-1,1.033990445E1
1.282598700E1,-3.182382202E0,-9.719288635E0,-7.390132141E-1,1.025369536E1
1.283604300E1,-3.192411346E0,-9.581575012E0,-7.824229431E-1,1.012967204E1
1.284610000E1,-3.337609406E0,-9.469607849E0,-8.626560974E-1,1.007756344E1
1.285615600E1,-3.611390076E0,-9.442663879E0,-9.530680847E-1,1.015452501E1
1.286621300E1,-3.910168762E0,-9.445058899E0,-1.000220032E0,1.027127049E1
1.287626900E1,-4.335584106E0,-9.465715942E0,-1.011296997E0,1.046039146E1
1.288632600E1,-4.885540466E0,-9.490264893E0,-1.007854156E0,1.072144596E1
1.289638200E1,-5.445376282E0,-9.479636993E0,-1.087937622E0,1.098632098E1
1.290643900E1,-5.894891510E0,-9.357191620E0,-1.305585022E0,1.113603759E1
1.291649500E1,-6.256539459E0,-9.127120056E0,-1.536704407E0,1.117184259E1
1.292655200E1,-6.510710907E0,-8.774453430E0,-1.803599396E0,1.107399478E1
1.293660800E1,-6.673123169E0,-8.367898865E0,-1.996248779E0,1.088748426E1
1.294666500E1,-6.813830566E0,-7.880512390E0,-2.293231201E0,1.066722419E1
1.295672100E1,-6.895261230E0,-7.484286346E0,-2.433040466E0,1.046321439E1
1.296677800E1,-6.979086914E0,-7.528294830E0,-2.658920746E0,1.060437347E1
1.297683400E1,-7.633226624E0,-7.700586548E0,-3.045267334E0,1.126227486E1
1.298689100E1,-8.445886688E0,-8.092621307E0,-3.623664551E0,1.224558967E1
1.299694700E1,-8.836723938E0,-8.541238403E0,-4.147724762E0,1.297089296E1
1.300700300E1,-8.278834076E0,-8.846753082E0,-4.327351227E0,1.286585024E1
1.301706000E1,-6.760990448E0,-8.832532654E0,-3.782334595E0,1.174864588E1
1.302711600E1,-5.811065826E0,-8.794362030E0,-3.065325623E0,1.097750020E1
1.303717300E1,-5.034181366E0,-8.921447754E0,-2.777773590E0,1.061372876E1
1.304722900E1,-3.776347046E0,-9.047186279E0,-2.424059143E0,1.009893258E1
1.305728600E1,-2.765948181E0,-8.994346161E0,-2.121538239E0,9.646224997E0
1.306734200E1,-2.094743958E0,-8.840765533E0,-2.040556641E0,9.311871931E0
1.307739900E1,-1.429227905E0,-8.837771759E0,-2.324366455E0,9.249409791E0
1.308745538E1,-9.810598755E-1,-9.098230133E0,-2.556084595E0,9.501254574E0
1.309751237E1,-3.525169373E-1,-9.574240265E0,-3.539838867E0,1.021375563E1
1.310756838E1,1.486408997E-1,-1.026744873E1,-4.270619202E0,1.112118635E1
1.311762537E1,-5.867797852E-2,-1.076576248E1,-4.031416626E0,1.149597342E1
1.312768138E1,-7.093748474E-1,-1.084285217E1,-3.203787689E0,1.132849997E1
1.313773837E1,-1.276096344E0,-1.074465637E1,-2.064207458E0,1.101530821E1
1.314779438E1,-1.638193359E0,-1.057071808E1,-1.035995636E0,1.074695516E1
1.315785137E1,-1.666185150E0,-1.042117905E1,-2.888992310E-1,1.055749063E1
1.316790738E1,-1.906285858E0,-1.054916290E1,-1.782792664E-1,1.072149930E1
1.317796438E1,-2.140249329E0,-1.067041077E1,-4.218228149E-1,1.089110957E1
1.318802037E1,-2.240540771E0,-1.055979080E1,-7.005432129E-1,1.081757669E1
1.319807738E1,-2.430346069E0,-1.029573990E1,-8.147557068E-1,1.061002681E1
1.320813337E1,-2.256108398E0,-1.001133133E1,-5.932164001E-1,1.027952751E1
1.321818938E1,-1.804347839E0,-9.670789490E0,-2.055226135E-1,9.839821138E0
1.322824637E1,-1.502276001E0,-9.127120056E0,6.301895142E-2,9.250141896E0
1.323830238E1,-1.381926270E0,-8.552315369E0,1.850152588E-1,8.665220656E0
1.324835937E1,-1.467548218E0,-8.125852203E0,1.670526123E-1,8.258999841E0
1.325841538E1,-1.409918060E0,-7.937843170E0,-1.290316772E-1,8.063118026E0
1.326847237E1,-1.333127747E0,-7.896529083E0,-4.843927002E-1,8.022907044E0
1.327852838E1,-1.342258759E0,-7.896828461E0,-6.929090881E-1,8.040005057E0
1.328858538E1,-1.457668762E0,-8.043373718E0,-7.532336426E-1,8.209020643E0
1.329864137E1,-1.820364532E0,-8.172255707E0,-8.738827515E-1,8.418025982E0
1.330869838E1,-1.945055237E0,-8.272247772E0,-9.404942322E-1,8.549728211E0
1.331875437E1,-2.059417419E0,-8.394842834E0,-1.133592682E0,8.717776018E0
1.332881138E1,-2.312990112E0,-8.496780853E0,-1.375190277E0,8.912707581E0
1.333886737E1,-2.574196930E0,-8.531209259E0,-1.567689972E0,9.047965136E0
1.334892438E1,-2.726130981E0,-8.505462799E0,-1.674118652E0,9.087208637E0
1.335898037E1,-2.815195770E0,-8.456813965E0,-1.684896240E0,9.070937383E0
1.336903738E1,-2.816542969E0,-8.504414978E0,-1.729802856E0,9.124155103E0
1.337909337E1,-2.871478729E0,-8.661737823E0,-2.002984772E0,9.342539281E0
1.338915037E1,-2.941832428E0,-8.775351563E0,-2.382295990E0,9.557013512E0
1.339920638E1,-2.960693207E0,-8.770411835E0,-2.761906586E0,9.659914907E0
1.340926237E1,-2.989433441E0,-8.666976929E0,-3.172502747E0,9.701441906E0
1.341931938E1,-3.156486053E0,-8.504265289E0,-3.624712372E0,9.768545035E0
1.342937537E1,-3.414399719E0,-8.353379059E0,-4.079466705E0,9.903490079E0
1.343943238E1,-3.764222260E0,-8.300239563E0,-4.559967499E0,1.019100827E1
1.344948837E1,-4.243675232E0,-8.355774078E0,-5.088368683E0,1.066392216E1
1.345954538E1,-4.709506531E0,-8.468489685E0,-5.465733948E0,1.112515244E1
1.346960137E1,-4.897365875E0,-8.554111633E0,-5.569318542E0,1.132141013E1
1.347965838E1,-4.784650269E0,-8.457113342E0,-5.377716980E0,1.110565100E1
1.348971437E1,-4.582420807E0,-8.285869446E0,-4.914879456E0,1.066818883E1
1.349977137E1,-4.437372437E0,-8.159232788E0,-4.478536835E0,1.031119033E1
1.350982738E1,-4.145778809E0,-8.231831818E0,-4.425846405E0,1.022441458E1
1.351988437E1,-4.126169586E0,-8.703051910E0,-4.460274811E0,1.061425642E1
1.352994038E1,-4.078568573E0,-1.012734009E1,-5.066214752E0,1.203595741E1
1.353999737E1,-3.777245178E0,-1.240485397E1,-5.475912781E0,1.407599389E1
1.355005338E1,-3.883973236E0,-1.454570206E1,-5.290598145E0,1.595785465E1
1.356011037E1,-4.206402740E0,-1.556298660E1,-4.693340149E0,1.679070629E1
1.357016638E1,-3.675606537E0,-1.451576431E1,-3.637136536E0,1.540929133E1
1.358022338E1,-2.505489807E0,-1.188528442E1,-2.429447937E0,1.238707723E1
1.359027938E1,-1.679657135E0,-9.464817810E0,-1.593286743E0,9.743848671E0
1.360033537E1,-1.313368835E0,-7.990982666E0,-1.020577698E0,8.162249721E0
1.361039237E1,-1.449585571E0,-7.200326843E0,-4.427792358E-1,7.358128732E0
1.362044838E1,-1.705104218E0,-6.800358582E0,3.592529297E-3,7.010868002E0
1.363050537E1,-2.030826874E0,-6.905589752E0,4.701722717E-1,7.213354946E0
1.364056138E1,-2.420466614E0,-7.508535919E0,7.634124756E-1,7.925879692E0
1.365061837E1,-2.896327057E0,-8.352929993E0,9.204359436E-1,8.888608002E0
1.366067438E1,-3.384761353E0,-9.148525543E0,1.015637970E0,9.807326318E0
1.367073137E1,-3.472928009E0,-9.744586029E0,1.171912994E0,1.041112702E1
1.368078738E1,-3.291804657E0,-1.006222549E1,1.173709259E0,1.065185210E1
1.369084437E1,-3.122057648E0,-1.016341507E1,1.028660889E0,1.068177855E1
1.370090038E1,-2.910098419E0,-1.015623001E1,8.912466431E-1,1.060245261E1
1.371095738E1,-2.598745880E0,-9.995763702E0,7.216493225E-1,1.035323862E1
1.372101337E1,-2.213896179E0,-9.786199493E0,5.562432861E-1,1.004890260E1
1.373107038E1,-2.058668976E0,-9.659113770E0,4.058061218E-1,9.884395549E0
1.374112637E1,-1.998943176E0,-9.619895325E0,2.757266235E-1,9.829251500E0
1.375118338E1,-1.918111267E0,-9.555678864E0,9.415420532E-2,9.746743784E0
1.376123937E1,-1.937570801E0,-9.335786133E0,-2.306703186E-1,9.537520229E0
1.377129638E1,-1.943857727E0,-9.107061768E0,-5.760021973E-1,9.330001899E0
1.378135237E1,-2.050885162E0,-8.904383240E0,-8.803193665E-1,9.179822058E0
1.379140838E1,-2.197729797E0,-8.869805145E0,-1.258582764E0,9.224288057E0
1.380146537E1,-2.477048950E0,-8.770860901E0,-1.486558685E0,9.234372159E0
1.381152138E1,-2.614762573E0,-8.462053070E0,-1.294358368E0,8.950904371E0
1.382157838E1,-2.420765991E0,-8.433013458E0,-6.744973755E-1,8.799475591E0
1.383163437E1,-2.551893311E0,-8.477321320E0,-4.355941772E-1,8.863795943E0
1.384169138E1,-2.911744995E0,-8.589438171E0,-7.649093628E-1,9.101746720E0
1.385174737E1,-2.941083984E0,-8.623118134E0,-1.056203613E0,9.171897700E0
1.386180438E1,-3.024011536E0,-8.574319611E0,-1.335073700E0,9.189451797E0
1.387186037E1,-2.938239899E0,-8.528065796E0,-1.524280243E0,9.147928191E0
1.388191738E1,-3.103945312E0,-8.504864044E0,-1.622476044E0,9.197805033E0
1.389197337E1,-3.303779755E0,-8.473429413E0,-1.820214844E0,9.275082143E0
1.390203038E1,-3.662433929E0,-8.348888397E0,-2.102677460E0,9.356207151E0
1.391208637E1,-3.846401367E0,-8.384813690E0,-2.400857391E0,9.532262077E0
1.392214337E1,-4.030518494E0,-8.414901123E0,-2.665656738E0,9.703677967E0
1.393219938E1,-4.153712311E0,-8.442743225E0,-2.872975616E0,9.838050011E0
1.394225637E1,-4.292324066E0,-8.467142487E0,-2.997217255E0,9.954891212E0
1.395231238E1,-4.621190186E0,-8.502618713E0,-3.020269318E0,1.013765015E1
1.396236937E1,-4.911735992E0,-8.626710663E0,-3.041375427E0,1.038244922E1
1.397242538E1,-5.270090790E0,-8.730295258E0,-3.125500488E0,1.066586450E1
1.398248137E1,-5.479355621E0,-8.787626038E0,-3.108585663E0,1.081244719E1
1.399253838E1,-5.705984344E0,-8.799301758E0,-2.905158691E0,1.088236720E1
1.400259437E1,-5.763913879E0,-8.728199615E0,-2.602637787E0,1.077858503E1
1.401265138E1,-5.525310059E0,-8.673263855E0,-2.220931549E0,1.052079342E1
1.402270737E1,-5.490282898E0,-8.667875061E0,-1.846110992E0,1.042513262E1
1.403276437E1,-5.535638580E0,-8.595575409E0,-1.593436432E0,1.034728229E1
1.404282038E1,-5.650898895E0,-8.425229645E0,-1.543889465E0,1.026161525E1
1.405287737E1,-5.893544312E0,-8.341403961E0,-1.625320129E0,1.034188330E1
1.406293338E1,-6.085594940E0,-8.532257080E0,-1.704056396E0,1.061780038E1
1.407299037E1,-6.322402496E0,-9.234446869E0,-1.789378967E0,1.133356340E1
1.408304663E1,-6.731950836E0,-1.042596909E1,-1.938618622E0,1.256098068E1
1.409310362E1,-6.941664734E0,-1.173155411E1,-2.195185089E0,1.380706010E1
1.410315963E1,-6.928043060E0,-1.305285645E1,-2.461181946E0,1.498106333E1
1.411321663E1,-6.333928528E0,-1.378917526E1,-2.512525177E0,1.538092285E1
1.412327263E1,-5.096002808E0,-1.309057800E1,-2.242486725E0,1.422537254E1
1.413332963E1,-4.026925964E0,-1.161659317E1,-1.736538849E0,1.241680059E1
1.414338562E1,-3.213816833E0,-1.047776138E1,-1.185534668E0,1.102350192E1
1.415344263E1,-2.267933807E0,-9.688452759E0,-7.258406067E-1,9.976797342E0
1.416349862E1,-1.273851013E0,-8.967551880E0,-4.656816101E-1,9.069539265E0
1.417355463E1,-7.453001404E-1,-8.205187225E0,-2.803669739E-1,8.243735521E0
1.418361162E1,-4.667294312E-1,-7.584577789E0,-7.798782349E-2,7.599324885E0
1.419366763E1,-1.079255676E-1,-7.388036499E0,1.098715210E-1,7.389641601E0
1.420372462E1,1.616638184E-2,-7.483837280E0,2.278262329E-1,7.487321723E0
1.421378063E1,2.674937439E-1,-7.880961456E0,2.951861572E-1,7.891022826E0
1.422383763E1,5.269042969E-1,-8.509055328E0,1.769320679E-1,8.527189201E0
1.423389363E1,6.535409546E-1,-9.298064575E0,-1.486408997E-1,9.322189375E0
1.424395063E1,9.855505371E-1,-1.020996826E1,-9.608518982E-1,1.030232974E1
1.425400662E1,8.116122437E-1,-1.122380997E1,-2.862946472E0,1.161159279E1
1.426406363E1,-1.766326904E-1,-1.205383392E1,-5.107977905E0,1.309265251E1
1.427411962E1,-1.130000153E0,-1.184172501E1,-4.965324554E0,1.289022108E1
1.428417663E1,-7.110214233E-1,-1.113474518E1,-3.804638214E0,1.178827271E1
1.429423262E1,-2.535726929E-1,-1.057101746E1,-2.918780365E0,1.096950263E1
1.430428963E1,-2.924917603E-1,-9.985734558E0,-2.500699768E0,1.029824963E1
1.431434562E1,-6.682104492E-1,-9.413474579E0,-1.998793488E0,9.646511507E0
1.432440263E1,-1.063688049E0,-9.011560364E0,-1.651815033E0,9.223239418E0
1.433445863E1,-1.242715759E0,-8.669671326E0,-1.505269775E0,8.886696824E0
1.434451562E1,-1.279688873E0,-8.518036652E0,-1.547481995E0,8.751528583E0
1.435457163E1,-1.392554169E0,-8.361911316E0,-1.693428497E0,8.644562918E0
1.436462762E1,-1.300046539E0,-8.162975006E0,-1.668729858E0,8.432611772E0
1.437468463E1,-1.370549927E0,-8.030799866E0,-1.466799774E0,8.277901616E0
1.438474062E1,-1.514101410E0,-7.806865540E0,-1.489702148E0,8.090665308E0
1.439479763E1,-1.681902466E0,-7.581134949E0,-1.464704132E0,7.902389589E0
1.440485362E1,-1.975292358E0,-7.518415375E0,-1.481020203E0,7.913391845E0
1.441491063E1,-2.349514160E0,-7.539371796E0,-1.562301178E0,8.050039058E0
1.442496662E1,-2.414928131E0,-7.676786041E0,-1.603615265E0,8.205882263E0
1.443502363E1,-2.484533386E0,-7.832013245E0,-1.774559784E0,8.406093031E0
1.444507963E1,-2.600841522E0,-7.996820526E0,-1.899100800E0,8.620910567E0
1.445513662E1,-2.721790009E0,-8.224497070E0,-2.008223877E0,8.892887948E0
1.446519263E1,-2.860401764E0,-8.375682678E0,-2.259850616E0,9.134598151E0
1.447524962E1,-3.025209045E0,-8.417445831E0,-2.534529419E0,9.296726492E0
1.448530563E1,-3.149899750E0,-8.340805206E0,-2.827021179E0,9.353231991E0
1.449536262E1,-3.143313446E0,-8.192463684E0,-3.035387878E0,9.284958816E0
1.450541863E1,-3.096460876E0,-8.142767029E0,-3.141367493E0,9.260718901E0
1.451547562E1,-3.081042938E0,-8.257278900E0,-3.213517456E0,9.380947439E0
1.452553163E1,-3.092868347E0,-8.446036377E0,-3.378923492E0,9.608251093E0
1.453558863E1,-2.984493713E0,-8.599617004E0,-3.640429688E0,9.803741309E0
1.454564463E1,-2.649939423E0,-8.806337128E0,-3.969744873E0,1.001661754E1
1.455570063E1,-2.387385406E0,-9.090596008E0,-4.335135040E0,1.035045606E1
1.456575762E1,-2.312241669E0,-9.409432983E0,-4.669090576E0,1.075566350E1
1.457581363E1,-2.338437195E0,-9.689051514E0,-5.115013275E0,1.120309638E1
1.458587062E1,-2.490520935E0,-9.830657043E0,-5.746849365E0,1.165636264E1
1.459592663E1,-2.825973358E0,-9.834399261E0,-6.470893707E0,1.210677495E1
1.460598362E1,-3.234623566E0,-9.705517273E0,-7.098089447E0,1.245161552E1
1.461603963E1,-3.654500427E0,-9.464967499E0,-7.431446228E0,1.257646119E1
1.462609662E1,-3.841311951E0,-9.149573364E0,-7.112609253E0,1.220899589E1
1.463615263E1,-3.800746307E0,-8.806636505E0,-6.766528931E0,1.173833177E1
1.464620963E1,-3.393742676E0,-8.495283966E0,-6.692433014E0,1.133472535E1
1.465626563E1,-1.944306793E0,-8.504414978E0,-6.352040863E0,1.079137740E1
1.466632263E1,-1.293310547E0,-9.626331940E0,-5.411846008E0,1.111876774E1
1.467637862E1,-1.226399689E0,-1.119551880E1,-4.750371552E0,1.222332718E1
1.468643563E1,-1.311273193E0,-1.252250931E1,-4.567451935E0,1.339381551E1
1.469649162E1,-1.525926819E0,-1.343785583E1,-4.330794067E0,1.420071123E1
1.470654863E1,-1.971699829E0,-1.363843872E1,-3.334465942E0,1.417791501E1
1.471660462E1,-2.314337311E0,-1.304881485E1,-2.237247620E0,1.343997779E1
1.472666163E1,-2.603984985E0,-1.224004669E1,-1.413061523E0,1.259349926E1
1.473671762E1,-2.729873199E0,-1.110316086E1,-8.646020508E-1,1.146646962E1
1.474677462E1,-2.547851715E0,-9.867181091E0,-7.096742249E-1,1.021550041E1
1.475683063E1,-2.564018097E0,-8.908724213E0,-6.441105652E-1,9.292708664E0
1.476688663E1,-2.893033905E0,-8.182135162E0,-5.525010681E-1,8.696104784E0
1.477694363E1,-3.315605164E0,-7.836354218E0,-5.185217285E-1,8.524702329E0
1.478699962E1,-3.761677551E0,-7.872878265E0,-5.155279541E-1,8.740606344E0
1.479705663E1,-4.262685699E0,-8.039631500E0,-4.291575623E-1,9.109903416E0
1.480711262E1,-4.775968323E0,-8.287516022E0,-2.897973633E-1,9.569575630E0
1.481716963E1,-5.071004791E0,-8.743318176E0,-1.481918335E-1,1.010854407E1
1.482722562E1,-5.377417603E0,-9.106612701E0,5.508544922E-2,1.057591837E1
1.483728263E1,-5.583389282E0,-9.158554688E0,3.385958862E-1,1.073163580E1
1.484733862E1,-5.795647888E0,-9.057065735E0,5.010081482E-1,1.076433850E1
1.485739562E1,-5.717809753E0,-8.822952576E0,5.445675659E-1,1.052779152E1
1.486745163E1,-5.300627289E0,-8.510103149E0,3.631448364E-1,1.003246627E1
1.487750862E1,-4.818629608E0,-8.144862671E0,8.247848511E-2,9.463867176E0
1.488756463E1,-4.379891968E0,-7.833659821E0,-2.484832764E-2,8.974981742E0
1.489762162E1,-4.015998688E0,-7.593259735E0,-4.760101318E-2,8.590000275E0
1.490767763E1,-4.161795502E0,-7.376360779E0,-5.927673340E-1,8.490148011E0
1.491773462E1,-4.199217682E0,-7.586523743E0,-1.159937897E0,8.748384283E0
1.492779063E1,-3.936513977E0,-7.655829620E0,-1.505419464E0,8.739230929E0
1.493784762E1,-3.636986847E0,-7.589218140E0,-1.569635925E0,8.560821353E0
1.494790363E1,-3.249442749E0,-7.544610901E0,-1.554217987E0,8.360360362E0
1.495795962E1,-3.131637726E0,-7.587721252E0,-1.587748260E0,8.360718461E0
1.496801662E1,-3.256627808E0,-7.618257751E0,-1.645977173E0,8.447053729E0
1.497807263E1,-3.239712982E0,-7.656128998E0,-1.531914368E0,8.453331477E0
1.498812962E1,-3.123105469E0,-7.668852539E0,-1.516047363E0,8.418045298E0
1.499818563E1,-2.950514374E0,-7.670199738E0,-1.632505188E0,8.378697528E0
1.500824262E1,-2.789000244E0,-7.723488922E0,-1.740281067E0,8.394008678E0
1.501829863E1,-2.720592499E0,-7.789052582E0,-1.837578735E0,8.452671724E0
1.502835562E1,-2.615960083E0,-7.912096710E0,-1.946252747E0,8.557594362E0
1.503841163E1,-2.550097046E0,-8.154891815E0,-2.025438080E0,8.781096451E0
1.504846862E1,-2.557581482E0,-8.531508636E0,-2.005679169E0,9.129655611E0
1.505852463E1,-2.639311523E0,-8.806337128E0,-1.895508270E0,9.386718837E0
1.506858163E1,-2.740950165E0,-8.885073395E0,-1.779499512E0,9.466992952E0
1.507863762E1,-2.899320831E0,-8.806486816E0,-1.702409821E0,9.426477101E0
1.508869438E1,-3.016377411E0,-8.670270081E0,-1.657203827E0,9.328367514E0
1.509875037E1,-3.128194885E0,-8.551417236E0,-1.657952271E0,9.255330665E0
1.510880738E1,-3.285218353E0,-8.499774628E0,-1.697170715E0,9.269261933E0
1.511886337E1,-3.454366608E0,-8.514743500E0,-1.702709198E0,9.345197919E0
1.512892038E1,-3.670217743E0,-8.531059570E0,-1.719624023E0,9.444923634E0
1.513897637E1,-3.836372223E0,-8.529263306E0,-1.705403595E0,9.506549626E0
1.514903338E1,-4.030518494E0,-8.499175873E0,-1.751807098E0,9.568171087E0
1.515908937E1,-4.218677216E0,-8.487500153E0,-1.854792938E0,9.657906250E0
1.516914538E1,-4.386029205E0,-8.519683228E0,-2.005230103E0,9.789954150E0
1.517920238E1,-4.504432983E0,-8.597521362E0,-2.170187073E0,9.945702691E0
1.518925838E1,-4.607867889E0,-8.687184906E0,-2.223326569E0,1.008180585E1
1.519931538E1,-4.761598206E0,-8.841214600E0,-2.190993805E0,1.027814900E1
1.520937137E1,-4.828509064E0,-8.983867950E0,-2.129920807E0,1.041925841E1
1.521942838E1,-4.818330231E0,-9.134604492E0,-2.301164703E0,1.058076861E1
1.522948437E1,-4.634512482E0,-9.333241425E0,-2.672991486E0,1.075792661E1
1.523954138E1,-4.454586639E0,-9.388775940E0,-3.057990875E0,1.083253267E1
1.524959737E1,-4.521497498E0,-9.354796600E0,-3.418890381E0,1.093823434E1
1.525965438E1,-4.765490112E0,-9.362281036E0,-3.834875336E0,1.118340159E1
1.526971037E1,-5.024301910E0,-9.272168427E0,-4.296814728E0,1.138768343E1
1.527976738E1,-4.981191559E0,-8.978778534E0,-4.637805634E0,1.126676415E1
1.528982338E1,-4.810396729E0,-8.663833466E0,-4.744533691E0,1.098692527E1
1.529988037E1,-4.863236847E0,-8.268056488E0,-4.775369568E0,1.071522213E1
1.530993638E1,-5.113366699E0,-8.197852478E0,-4.612059174E0,1.070618485E1
1.531999337E1,-5.762866058E0,-8.814420319E0,-4.406536560E0,1.141587470E1
1.533004938E1,-6.859485626E0,-1.006132736E1,-4.132007446E0,1.285909549E1
1.534010537E1,-8.142767029E0,-1.163171173E1,-3.954177246E0,1.473895825E1
1.535016238E1,-8.942404175E0,-1.300166290E1,-3.672163696E0,1.620168562E1
1.536021837E1,-8.912316742E0,-1.366179016E1,-3.178340607E0,1.661853631E1
1.537027538E1,-7.887248383E0,-1.294223648E1,-2.487676849E0,1.535899438E1
1.538033137E1,-6.540349274E0,-1.157587784E1,-1.790277100E0,1.341574480E1
1.539038838E1,-5.669759674E0,-1.028945297E1,-1.287772064E0,1.181851827E1
1.540044438E1,-4.715194702E0,-9.405541077E0,-9.306147766E-1,1.056235333E1
1.541050137E1,-3.406915283E0,-8.669222260E0,-5.001100159E-1,9.328054264E0
1.542055738E1,-2.372266846E0,-8.114475861E0,-8.412506104E-2,8.454551763E0
1.543061437E1,-1.764081573E0,-7.733667755E0,2.384541321E-1,7.935896995E0
1.544067038E1,-1.424138489E0,-7.677833862E0,4.640350342E-1,7.822571941E0
1.545072737E1,-1.391955414E0,-8.007298737E0,6.060896301E-1,8.149951998E0
1.546078338E1,-1.512155457E0,-8.560697937E0,7.358697510E-1,8.724314734E0
1.547084037E1,-1.714384918E0,-9.066645813E0,1.073866882E0,9.289584061E0
1.548089638E1,-1.756148071E0,-9.594298553E0,1.512604523E0,9.870288406E0
1.549095338E1,-2.503094788E0,-9.719737701E0,1.979932709E0,1.023029413E1
1.550100938E1,-3.073708191E0,-9.870324554E0,2.239792328E0,1.057769628E1
1.551106638E1,-3.322490845E0,-1.018212616E1,2.329755249E0,1.096094878E1
1.552112237E1,-3.583847351E0,-1.031639694E1,2.279459839E0,1.115652028E1
1.553117938E1,-3.762425995E0,-1.010129425E1,2.267335052E0,1.101511703E1
1.554123537E1,-3.892954559E0,-9.602381744E0,2.190993805E0,1.059062247E1
1.555129138E1,-3.666176147E0,-9.126221924E0,1.910477142E0,1.001891696E1
1.556134837E1,-3.561543732E0,-8.777746582E0,1.236129456E0,9.553085619E0
1.557140438E1,-3.655248871E0,-8.497678986E0,7.794291687E-1,9.283259249E0
1.558146137E1,-3.725003815E0,-8.353229370E0,6.357279968E-1,9.168219261E0
1.559151738E1,-3.684587860E0,-8.219407654E0,5.668711853E-1,9.025308461E0
1.560157438E1,-3.677253113E0,-8.095166016E0,6.569837952E-1,8.915465831E0
1.561163038E1,-3.830234985E0,-8.000113678E0,7.875123596E-1,8.904644553E0
1.562168738E1,-3.978726196E0,-7.915838928E0,8.069718933E-1,8.896177366E0
1.563174337E1,-4.080065460E0,-7.808811493E0,7.911048889E-1,8.845920983E0
1.564180038E1,-4.184997253E0,-7.761360168E0,7.026388550E-1,8.845711675E0
1.565185637E1,-4.296215973E0,-7.751630402E0,6.518943787E-1,8.886518545E0
1.566191338E1,-4.580624542E0,-7.735164642E0,2.999761963E-1,8.994713945E0
1.567196937E1,-4.921166382E0,-7.700287170E0,-5.183720398E-1,9.153196744E0
1.568202638E1,-5.205724640E0,-7.549550629E0,-1.672921143E0,9.321692382E0
1.569208237E1,-5.598807220E0,-7.475754089E0,-2.799777832E0,9.750502418E0
1.570213937E1,-5.899082794E0,-7.469167786E0,-3.402723999E0,1.010772852E1
1.571219538E1,-5.629643097E0,-7.378007355E0,-3.267555084E0,9.838942532E0
1.572225237E1,-4.953798523E0,-7.131470032E0,-2.623743896E0,9.070943537E0
1.573230838E1,-4.438719635E0,-7.055278473E0,-1.966610413E0,8.564271297E0
1.574236537E1,-4.479285278E0,-7.174281006E0,-2.030527496E0,8.698123158E0
1.575242138E1,-4.706363068E0,-7.458240509E0,-2.688110046E0,9.219606306E0
1.576247737E1,-4.581223297E0,-7.666457520E0,-3.621568909E0,9.637320123E0
1.577253438E1,-4.181554413E0,-7.757468262E0,-4.251608734E0,9.784676181E0
1.578259037E1,-3.746409302E0,-7.738906860E0,-4.552632751E0,9.728963306E0
1.579264738E1,-3.426374817E0,-7.760761414E0,-4.729564819E0,9.712787730E0
1.580270337E1,-3.190166016E0,-7.911797333E0,-4.919370117E0,9.847532614E0
1.581276037E1,-2.980901184E0,-8.140521698E0,-5.188061371E0,1.010296225E1
1.582281638E1,-2.780168610E0,-8.415350189E0,-5.437592468E0,1.039782997E1
1.583287337E1,-2.627935181E0,-8.766070862E0,-5.569617920E0,1.071310811E1
1.584292938E1,-2.310295715E0,-9.407187653E0,-5.626349945E0,1.120216316E1
1.585298637E1,-1.810634766E0,-9.776020660E0,-5.651048584E0,1.143605388E1
1.586304238E1,-1.732197876E0,-9.422156525E0,-5.471871185E0,1.103262967E1
1.587309937E1,-1.639839935E0,-9.367969208E0,-4.810546417E0,1.065782712E1
1.588315538E1,-2.179318085E0,-1.045276337E1,-4.357738037E0,1.153254396E1
1.589321237E1,-3.447929993E0,-1.225456650E1,-4.008514252E0,1.334656539E1
1.590326838E1,-4.948409729E0,-1.395248566E1,-3.422632599E0,1.519450653E1
1.591332538E1,-6.172414398E0,-1.467188965E1,-2.541564789E0,1.611901352E1
1.592338137E1,-6.059399414E0,-1.365221008E1,-1.498084717E0,1.501144294E1
1.593343738E1,-5.185666351E0,-1.158949951E1,-7.021897888E-1,1.271615921E1
1.594349437E1,-4.764591980E0,-9.754315796E0,-4.058061218E-1,1.086336467E1
1.595355038E1,-4.854704590E0,-8.441994781E0,-3.038681030E-1,9.743088236E0
1.596360737E1,-4.911286926E0,-7.671097870E0,-4.520599365E-2,9.108706021E0
1.597366338E1,-4.906496887E0,-7.162754974E0,4.062551880E-1,8.691594434E0
1.598372037E1,-5.144951019E0,-6.948999481E0,7.815248108E-1,8.681583716E0
1.599377638E1,-5.569318542E0,-7.047344971E0,1.020428009E0,9.040113577E0
1.600383337E1,-6.135740662E0,-7.402256927E0,1.085243225E0,9.675664005E0
1.601388938E1,-6.559509430E0,-7.800428925E0,1.005010071E0,1.024128413E1
1.602394638E1,-6.600823517E0,-7.992180176E0,7.861651611E-1,1.039537737E1
1.603400238E1,-6.235732727E0,-7.954458618E0,5.179229736E-1,1.012057403E1
1.604405938E1,-5.880671082E0,-7.824528809E0,1.636097717E-1,9.789397918E0
1.605411537E1,-5.646707611E0,-7.852670288E0,-4.155358887E-1,9.681033394E0
1.606417238E1,-5.363795929E0,-7.979456635E0,-9.276210022E-1,9.659322734E0
1.607422837E1,-5.220992889E0,-7.938142548E0,-1.078956299E0,9.562270680E0
1.608428488E1,-5.296885071E0,-7.848628693E0,-1.087189178E0,9.530999114E0
1.609434087E1,-4.863536224E0,-8.020920410E0,-1.028062134E0,9.436422022E0
1.610439788E1,-4.248165894E0,-8.351283417E0,-8.596623230E-1,9.409031166E0
1.611445387E1,-3.827091522E0,-8.466992798E0,-9.657916260E-1,9.341806572E0
1.612451088E1,-3.377276917E0,-8.433462524E0,-1.226699066E0,9.167010424E0
1.613456688E1,-3.266806641E0,-8.343200226E0,-1.496587830E0,9.084095484E0
1.614462387E1,-3.554658051E0,-8.272547150E0,-1.689536591E0,9.161067847E0
1.615467988E1,-3.799099731E0,-8.149353333E0,-1.672172699E0,9.145560674E0
1.616473587E1,-3.910318451E0,-8.039332123E0,-1.423240356E0,9.052461791E0
1.617479288E1,-4.032763824E0,-7.966134338E0,-1.119072876E0,8.998600139E0
1.618484887E1,-4.172273712E0,-7.913743286E0,-9.517208862E-1,8.996720145E0
1.619490588E1,-4.326153717E0,-7.968379669E0,-8.515791321E-1,9.106913174E0
1.620496187E1,-4.467459869E0,-8.045918427E0,-8.577163696E-1,9.242871761E0
1.621501888E1,-4.541855164E0,-8.098908234E0,-9.331594849E-1,9.332285333E0
1.622507487E1,-4.541406097E0,-8.096363525E0,-1.023421783E0,9.339318167E0
1.623513188E1,-4.491260376E0,-8.056546326E0,-1.125509491E0,9.292261839E0
1.624518787E1,-4.372706909E0,-8.070467377E0,-1.256038055E0,9.264482770E0
1.625524487E1,-4.335434418E0,-8.114026794E0,-1.380130005E0,9.302590029E0
1.626530088E1,-4.334835663E0,-8.163424072E0,-1.464105377E0,9.358199472E0
1.627535787E1,-4.320016479E0,-8.220455475E0,-1.503922577E0,9.407455220E0
1.628541388E1,-4.330045624E0,-8.274044037E0,-1.481319580E0,9.455337515E0
1.629547087E1,-4.336781616E0,-8.310418396E0,-1.473835144E0,9.489094727E0
1.630552688E1,-4.312232666E0,-8.361611938E0,-1.528172150E0,9.531380535E0
1.631558387E1,-4.305646362E0,-8.403375092E0,-1.616488495E0,9.579579249E0
1.632563988E1,-4.320615234E0,-8.501271515E0,-1.744322662E0,9.694431129E0
1.633569688E1,-4.314927063E0,-8.612041168E0,-1.900747375E0,9.818283416E0
1.634575288E1,-4.337979126E0,-8.695118408E0,-2.066901855E0,9.934547313E0
1.635580887E1,-4.352199554E0,-8.763226776E0,-2.245779877E0,1.003888997E1
1.636586587E1,-4.319866791E0,-8.797355804E0,-2.422113190E0,1.009561046E1
1.637592188E1,-4.320465546E0,-8.807085571E0,-2.614313507E0,1.015213347E1
1.638597887E1,-4.339476013E0,-8.839418335E0,-2.732118530E0,1.021914088E1
1.639603488E1,-4.399201813E0,-9.005572815E0,-2.855012970E0,1.042134432E1
1.640609187E1,-4.678221588E0,-9.374555511E0,-2.963237915E0,1.088801301E1
1.641614788E1,-5.040318604E0,-1.003558090E1,-2.949316864E0,1.161103637E1
1.642620487E1,-5.515879669E0,-1.093476105E1,-2.841840363E0,1.257258861E1
1.643626088E1,-5.986800385E0,-1.181298477E1,-2.724634094E0,1.352079950E1
1.644631788E1,-6.347400513E0,-1.239781860E1,-2.579885101E0,1.416514054E1
1.645637388E1,-6.396348724E0,-1.237940689E1,-2.203118591E0,1.410732872E1
1.646643088E1,-5.960305481E0,-1.168904251E1,-1.636097717E0,1.322254786E1
1.647648687E1,-5.462590485E0,-1.079016174E1,-1.210682373E0,1.215455623E1
