"Time (s)","Acceleration x (m/s^2)","Acceleration y (m/s^2)","Acceleration z (m/s^2)","Absolute acceleration (m/s^2)"
6.574583240E-4,-1.546284485E-1,6.632108459E0,7.234006805E0,9.815275189E0
1.071345835E-2,-3.101550293E-1,6.753506012E0,7.286248169E0,9.939590131E0
2.076945832E-2,-1.764830017E-1,6.859934692E0,7.058871002E0,9.844669119E0
3.082445834E-2,2.035766602E-1,6.834936676E0,6.758146362E0,9.614070162E0
4.088045837E-2,3.727249146E-1,6.851402435E0,6.615343323E0,9.531180749E0
5.093645834E-2,5.821394348E-1,6.756948853E0,6.299200745E0,9.256088490E0
6.099245837E-2,4.263134766E-1,6.789880371E0,6.075715485E0,9.121323220E0
7.104745833E-2,1.197509766E-2,6.515800323E0,6.101012878E0,8.926262118E0
8.110345836E-2,-1.255888367E-1,5.903573456E0,6.245612183E0,8.595092998E0
9.115945833E-2,4.806504822E-1,6.597081299E0,6.459367676E0,9.245319752E0
1.012154584E-1,8.723858643E-1,6.833589478E0,6.569388885E0,9.519236974E0
1.112704583E-1,9.848020935E-1,6.455475769E0,6.735842743E0,9.381608605E0
1.213264583E-1,1.294208679E0,6.073619843E0,6.967261505E0,9.333089894E0
1.313824583E-1,1.855691071E0,5.368735657E0,6.960824890E0,8.984430703E0
1.414384583E-1,2.261347504E0,4.773573303E0,6.549330597E0,8.413942351E0
1.514934584E-1,2.471510468E0,4.668192444E0,6.347699890E0,8.257946390E0
1.615494583E-1,2.336341553E0,4.581223297E0,6.337970123E0,8.161860329E0
1.716054584E-1,2.182910614E0,4.264931030E0,6.870263214E0,8.375873213E0
1.816603334E-1,2.014361115E0,3.526366882E0,7.978259125E0,8.952403741E0
1.917163333E-1,1.882635040E0,2.913241882E0,8.921597443E0,9.572157222E0
2.017723334E-1,2.199825439E0,3.713627472E0,8.773704987E0,9.777942532E0
2.118283333E-1,2.282752991E0,4.405788116E0,8.923693085E0,1.021049599E1
2.218833333E-1,2.352957001E0,4.533472595E0,9.880204010E0,1.112237437E1
2.319393334E-1,2.448009338E0,4.253404999E0,9.898915100E0,1.104865259E1
2.419953333E-1,2.503992920E0,4.026925964E0,8.743916931E0,9.946969215E0
2.520513334E-1,2.481838989E0,4.220623169E0,7.981851654E0,9.363927623E0
2.621063333E-1,2.148332520E0,4.460274811E0,7.271578674E0,8.796888110E0
2.721623334E-1,1.757046204E0,4.516857147E0,6.813980255E0,8.361790285E0
2.822183333E-1,1.415007477E0,3.823948059E0,6.000272369E0,7.254522274E0
2.922743334E-1,5.028044128E-1,3.725303192E0,6.796466675E0,7.766766085E0
3.023293333E-1,-3.800596619E-1,4.015998688E0,8.260422363E0,9.192783497E0
3.123853334E-1,-2.483335876E-1,3.951183472E0,8.917406158E0,9.756723476E0
3.224413333E-1,-2.282752991E-1,3.322490845E0,9.448950806E0,1.001866889E1
3.324973334E-1,-6.864724731E-1,2.727927246E0,1.045635590E1,1.082812127E1
3.425523334E-1,-7.212002563E-1,2.680775299E0,1.203302719E1,1.234910642E1
3.526083333E-1,-7.274871826E-1,2.564467163E0,1.292038193E1,1.319249781E1
3.626643334E-1,-9.949809265E-1,2.327958984E0,1.287607407E1,1.312260124E1
3.727193333E-1,-1.279090118E0,2.833457794E0,1.215771790E1,1.254889075E1
3.827753334E-1,-1.301543427E0,3.222349091E0,1.129161896E1,1.181432214E1
3.928313333E-1,-1.326840820E0,3.109932861E0,1.021311172E1,1.075824521E1
4.028873334E-1,-1.450483704E0,3.113824768E0,9.287137299E0,9.902056699E0
4.129423333E-1,-1.558708649E0,3.077450409E0,8.805438995E0,9.457062418E0
4.229983333E-1,-1.658401337E0,2.786605225E0,8.375682678E0,8.981510118E0
4.330543333E-1,-2.312091980E0,2.234702911E0,7.675438843E0,8.321780330E0
4.431103333E-1,-2.501597900E0,2.328857117E0,7.382198639E0,8.135012248E0
4.531653334E-1,-1.655257874E0,2.868035889E0,8.031248932E0,8.687143828E0
4.632213333E-1,-8.038284302E-2,3.720662842E0,8.684789886E0,9.448564375E0
4.732773334E-1,-7.738906860E-2,3.965553589E0,8.498577118E0,9.378561583E0
4.833333333E-1,-3.986210632E-1,4.433630219E0,8.858279114E0,9.913883423E0
4.933883334E-1,-1.908680878E0,5.263803864E0,8.698710938E0,1.034496330E1
5.034443333E-1,-2.208058319E0,5.427563324E0,7.497159576E0,9.515322742E0
5.135003334E-1,-8.379574585E-1,5.270090790E0,6.709796906E0,8.573062705E0
5.235563333E-1,3.240760803E-1,5.267246704E0,6.665189667E0,8.501392030E0
5.336113333E-1,8.445437622E-1,5.350174255E0,7.325167236E0,9.110197241E0
5.436673334E-1,4.248165894E-1,5.142705688E0,8.029602356E0,9.544757982E0
5.537233333E-1,4.535568237E-2,4.487967224E0,8.021369476E0,9.191641595E0
5.637793334E-1,-2.809657288E-1,4.509073334E0,7.876021729E0,9.079779862E0
5.738343333E-1,-1.276844788E0,5.548661499E0,8.187224579E0,9.972393060E0
5.838903334E-1,-2.203417969E0,6.331683197E0,8.152347107E0,1.055490531E1
5.939463333E-1,-3.141666870E0,5.852978668E0,7.300618286E0,9.870484151E0
6.040013334E-1,-5.175337830E0,5.112917633E0,5.910010071E0,9.373060728E0
6.140573333E-1,-4.286186829E0,4.215234375E0,4.743934937E0,7.657970818E0
6.241133334E-1,-2.892584839E0,2.874322815E0,4.301904144E0,5.927491709E0
6.341693333E-1,-3.002456360E0,1.829345856E0,3.598516846E0,5.030961533E0
6.442243333E-1,-3.171754303E0,1.425186310E0,3.559298401E0,4.975920667E0
6.542803334E-1,-2.999163208E0,1.237326965E0,3.490441589E0,4.765410838E0
6.643363333E-1,-2.183659058E0,1.530716858E0,3.896397400E0,4.721585928E0
6.743923334E-1,-8.204438782E-1,1.929038544E0,5.362149353E0,5.757339971E0
6.844473333E-1,-1.586700439E-1,2.672093353E0,6.632407837E0,7.152208945E0
6.945033334E-1,-4.420307922E-1,1.948498077E0,5.410199432E0,5.767347213E0
7.045593333E-1,-1.043779449E0,1.137783966E0,4.198319550E0,4.473244341E0
7.146153334E-1,-2.245181122E0,7.729925537E-1,3.375480652E0,4.127011678E0
7.246703333E-1,-3.297492828E0,-8.846603394E-2,2.697241058E0,4.261032096E0
7.347263334E-1,-3.831881561E0,-9.740245056E-1,2.456541595E0,4.654743457E0
7.447823333E-1,-3.940405884E0,-1.279688873E0,1.851799164E0,4.538013033E0
7.548383333E-1,-3.237767029E0,-1.208586731E0,1.928290100E0,3.957539631E0
7.648933334E-1,-3.215613098E0,-8.328680420E-1,1.684297485E0,3.724338168E0
7.749493333E-1,-3.946992188E0,-6.465055847E-1,1.113384705E0,4.151667412E0
7.850053334E-1,-4.357738037E0,-4.956193542E-1,6.667135620E-1,4.436217569E0
7.950603333E-1,-4.704417114E0,-5.819897461E-1,4.373904419E-1,4.760416247E0
8.051163334E-1,-5.540727997E0,-1.242715759E0,6.282435608E-1,5.713028896E0
8.151723333E-1,-5.757028198E0,-2.014810181E0,1.280137939E0,6.232301893E0
8.252283334E-1,-5.496420135E0,-2.725232849E0,3.498973846E0,7.062601954E0
8.352833333E-1,-5.043312378E0,-3.260819092E0,5.488336945E0,8.135710375E0
8.453393333E-1,-5.890700226E0,-3.841012573E0,5.648653564E0,9.020034026E0
8.553953334E-1,-7.005881195E0,-4.552033997E0,4.606221313E0,9.540474811E0
8.654513333E-1,-7.604037323E0,-4.820126495E0,3.817511444E0,9.778977281E0
8.755063334E-1,-9.192683716E0,-4.891977081E0,3.479364624E0,1.097920087E1
8.855623333E-1,-1.122740250E1,-4.858446808E0,3.575464783E0,1.274531367E1
8.956183334E-1,-1.246502884E1,-4.494254150E0,3.924538879E0,1.381945258E1
9.056743333E-1,-1.204964264E1,-4.077520752E0,3.345542908E0,1.315342999E1
9.157293334E-1,-1.114537308E1,-3.927532654E0,2.714754639E0,1.212496377E1
9.257853333E-1,-1.043779449E1,-4.023183746E0,2.549348602E0,1.147313121E1
9.358413334E-1,-1.046623535E1,-4.056414642E0,2.800077209E0,1.156879486E1
9.458973333E-1,-1.137349869E1,-4.096531219E0,2.909649353E0,1.243398970E1
9.559523333E-1,-1.254765701E1,-4.225113831E0,2.966082001E0,1.356808483E1
9.660083334E-1,-1.303624100E1,-4.198918304E0,2.949316864E0,1.400974533E1
9.760643333E-1,-1.294807434E1,-4.021986237E0,2.840493164E0,1.385270385E1
9.861193334E-1,-1.307590851E1,-4.218527527E0,2.680026855E0,1.399849641E1
9.961753333E-1,-1.318128937E1,-4.930596771E0,2.901566162E0,1.436928182E1
1.006231333E0,-1.260453873E1,-5.162614288E0,3.496429138E0,1.406243221E1
1.016287333E0,-1.264121246E1,-5.295238495E0,3.434008942E0,1.412912668E1
1.026342333E0,-1.399170410E1,-5.650599518E0,3.452570343E0,1.547957689E1
1.036398333E0,-1.536330185E1,-5.386698303E0,3.770060120E0,1.671110157E1
1.046454333E0,-1.581655930E1,-5.466033325E0,4.759053497E0,1.739797857E1
1.056510333E0,-1.834285583E1,-5.903423767E0,5.892795868E0,2.015033041E1
1.066565333E0,-1.932077225E1,-6.603667603E0,5.184468842E0,2.106607185E1
1.076621333E0,-1.584544922E1,-6.829847260E0,4.230352936E0,1.776572432E1
1.086677333E0,-1.291828629E1,-6.687942352E0,3.666325836E0,1.500175452E1
1.096733333E0,-1.183483932E1,-6.451583862E0,4.297712860E0,1.414767444E1
1.106788333E0,-1.185968765E1,-6.047574005E0,5.962700500E0,1.458695101E1
1.116844333E0,-1.227821732E1,-5.590424652E0,6.809190216E0,1.511199986E1
1.126900333E0,-1.315015411E1,-5.116809540E0,6.532116394E0,1.554917482E1
1.136956333E0,-1.383527939E1,-4.684059448E0,6.011049957E0,1.579519200E1
1.147011333E0,-1.384770355E1,-4.460424500E0,5.830076294E0,1.567303640E1
1.157067333E0,-1.329864532E1,-4.281546478E0,5.699398041E0,1.508869596E1
1.167123333E0,-1.285796173E1,-4.565655670E0,5.446723480E0,1.469146651E1
1.177179958E0,-1.264121246E1,-4.955594788E0,4.838837585E0,1.441431654E1
1.187234958E0,-1.124117386E1,-5.092260590E0,5.060077515E0,1.333789684E1
1.197290958E0,-1.094299393E1,-5.463338928E0,6.099515991E0,1.366752661E1
1.207346958E0,-1.043300446E1,-5.021906891E0,5.338049469E0,1.274997659E1
1.217401958E0,-9.431586914E0,-4.871020660E0,4.821922760E0,1.165901424E1
1.227457958E0,-8.792416077E0,-4.944068756E0,4.573289795E0,1.107544021E1
1.237513958E0,-7.792944489E0,-5.512287140E0,4.801265717E0,1.068491674E1
1.247569958E0,-7.815248108E0,-6.172863464E0,5.035378876E0,1.115963202E1
1.257624958E0,-8.558153229E0,-6.902146912E0,5.822442169E0,1.244115957E1
1.267680958E0,-8.403075714E0,-7.240593109E0,5.838458862E0,1.253496996E1
1.277736958E0,-9.070687408E0,-7.099137268E0,5.196294250E0,1.263632043E1
1.287792958E0,-8.668922882E0,-7.240593109E0,5.121300201E0,1.240177924E1
1.297847958E0,-8.932973785E0,-7.072492676E0,5.278024292E0,1.255689905E1
1.307903958E0,-9.111552429E0,-6.203998718E0,4.536017303E0,1.191995976E1
1.317959958E0,-1.073896820E1,-5.460195465E0,3.960913239E0,1.268179822E1
1.328015958E0,-1.033780243E1,-5.784870300E0,4.917274475E0,1.282631949E1
1.338070958E0,-8.737180939E0,-5.429658966E0,4.371659088E0,1.117725058E1
1.348126958E0,-9.423653412E0,-5.830225983E0,5.593268738E0,1.241295427E1
1.358182958E0,-7.055727539E0,-6.957082672E0,7.432793427E0,1.238671500E1
1.368238958E0,-6.471193085E0,-7.958949280E0,7.909701691E0,1.295316928E1
1.378293958E0,-5.122797089E0,-9.128167877E0,8.820258179E0,1.368807704E1
1.388349958E0,-5.482648773E0,-9.039552155E0,8.427175598E0,1.351999369E1
1.398405958E0,-4.692442017E0,-7.951015778E0,7.798333282E0,1.208518374E1
1.408461958E0,-3.577261047E0,-7.222630463E0,6.135740662E0,1.012968414E1
1.418516958E0,-3.916904755E0,-8.021070099E0,4.731211395E0,1.010267636E1
1.428572958E0,-4.593647461E0,-1.018931122E1,6.094875641E0,1.273071754E1
1.438628958E0,-3.559897156E0,-1.255244705E1,1.180535065E1,1.759554201E1
1.448683958E0,-4.111500092E0,-1.032986893E1,9.932295685E0,1.490842455E1
1.458739958E0,-4.989125061E0,-9.324110413E0,5.985902252E0,1.215160194E1
1.468795958E0,-4.738546143E0,-7.456144867E0,2.550995178E0,9.195406039E0
1.478851958E0,-5.506748657E0,-6.088738403E0,2.798580322E0,8.673469199E0
1.488906958E0,-5.727988586E0,-6.679410095E0,4.608766022E0,9.933030590E0
1.498962958E0,-5.231620789E0,-8.374634857E0,6.926695862E0,1.206165331E1
1.509018958E0,-1.646725616E0,-1.133413055E1,1.124371857E1,1.604977968E1
1.519074958E0,-1.698517914E0,-1.279913406E1,1.072789124E1,1.678661509E1
1.529129958E0,-9.340576172E-2,-1.711930023E1,2.155562485E1,2.752678927E1
1.539185958E0,2.888992310E-1,-1.719878494E1,2.296674042E1,2.869412539E1
1.549241958E0,-4.752616882E-1,-1.181478104E1,1.194231583E1,1.680576782E1
1.559297958E0,1.902693329E0,-7.173382874E0,1.091245743E1,1.319694627E1
1.569352958E0,2.256108398E0,-4.781057739E0,8.344248047E0,9.878006564E0
1.579408958E0,1.102756805E0,-1.850901031E0,6.841522980E0,7.172750092E0
1.589464958E0,3.977229309E-1,-4.351451111E-1,6.931635590E0,6.956659165E0
1.599520958E0,2.565664673E-1,-1.405577087E-1,8.217162323E0,8.222368239E0
1.609575958E0,-1.045575714E0,7.559280396E-1,6.759493561E0,6.881526646E0
1.619631958E0,-2.344724121E0,2.504441986E0,4.182602234E0,5.409632364E0
1.629687958E0,-2.914439392E0,3.476071472E0,2.912643127E0,5.390781004E0
1.639743958E0,-4.021088104E0,4.043541412E0,1.539398804E0,5.906701734E0
1.649798958E0,-4.929099884E0,4.628075867E0,6.496490479E-2,6.761607230E0
1.659854958E0,-5.292693787E0,5.186564484E0,-2.117047577E0,7.706811864E0
1.669910958E0,-5.880521393E0,5.309907990E0,-3.234473877E0,8.557889691E0
1.679966958E0,-6.366410980E0,4.400249634E0,-3.607049103E0,8.538394980E0
1.690021958E0,-4.999752960E0,1.840871887E0,-2.506387939E0,5.887980933E0
1.700077958E0,-2.748883667E0,-1.496887207E0,-2.144290924E0,3.794076474E0
1.710133958E0,-2.921923828E-1,-3.717669067E0,-1.019829254E0,3.866069243E0
1.720188958E0,1.291663971E0,-4.544399872E0,1.379980316E0,4.921819956E0
1.730244958E0,1.320703583E0,-6.575226746E0,3.621718597E0,7.621988606E0
1.740300958E0,2.690505066E0,-9.444460144E0,4.432582397E0,1.077424854E1
1.750356958E0,4.543651428E0,-1.122066650E1,5.265899506E0,1.320143260E1
1.760411958E0,4.473896484E0,-1.210757217E1,5.642815704E0,1.408724326E1
1.770467958E0,3.321742401E0,-1.240485397E1,6.619235229E0,1.444744440E1
1.780523958E0,2.541564789E0,-1.319506073E1,8.564290466E0,1.593474978E1
1.790579958E0,2.311044159E0,-1.240096207E1,8.069120178E0,1.497449451E1
1.800634958E0,1.877246246E0,-1.116827545E1,6.265371094E0,1.294253858E1
1.810690958E0,1.079704742E0,-1.042581940E1,4.443809052E0,1.138467880E1
1.820746958E0,1.102607117E0,-9.780211945E0,5.057981873E0,1.106577918E1
1.830802958E0,1.813778229E0,-9.481283569E0,5.350174255E0,1.103670667E1
1.840857958E0,1.312770081E0,-9.094188538E0,5.225333862E0,1.057032376E1
1.850913958E0,4.031117249E-1,-8.687633972E0,5.145699463E0,1.010523162E1
1.860969958E0,2.685415649E-1,-8.681347046E0,5.749094696E0,1.041585287E1
1.871025958E0,1.388362885E0,-8.721912689E0,6.100264435E0,1.073371039E1
1.881080958E0,1.482816467E0,-8.450676727E0,5.835465088E0,1.037619076E1
1.891136958E0,1.096918945E0,-8.200546875E0,5.897735596E0,1.016048647E1
1.901192958E0,1.176104279E0,-8.125552826E0,5.256618805E0,9.748839483E0
1.911248958E0,5.834866333E-1,-7.759264526E0,4.271517334E0,8.876514123E0
1.921303958E0,1.661544800E-2,-7.416926422E0,4.001778259E0,8.427651088E0
1.931359958E0,-3.029699707E-1,-7.520810394E0,3.855682068E0,8.456989062E0
1.941415958E0,-2.612068176E-1,-7.898624725E0,3.617527313E0,8.691547930E0
1.951470958E0,-8.931925964E-1,-8.065228271E0,3.148253174E0,8.703861105E0
1.961526958E0,-9.472302246E-1,-6.404880981E0,2.384840698E0,6.899797870E0
1.971582958E0,-2.120789795E0,-4.830455017E0,-1.773212585E0,5.565548302E0
1.981638958E0,-6.253246307E0,-7.197931824E0,5.097350006E0,1.081185872E1
1.991693958E0,-6.166277161E0,-7.465874634E0,6.029611359E0,1.140694837E1
2.001749958E0,-8.984017639E0,-5.694308624E0,2.102677460E0,1.084246172E1
2.011805958E0,-7.551646271E0,-8.192912750E0,3.395089874E0,1.164808207E1
2.021861958E0,-5.582341461E0,-9.530381470E0,5.166206818E0,1.219345726E1
2.031916958E0,-4.558769989E0,-8.639733582E0,6.854545898E0,1.193365743E1
2.041972958E0,-1.497935028E0,-9.684560852E0,7.680378571E0,1.245081295E1
2.052028958E0,1.252595215E0,-1.047162415E1,6.364465027E0,1.231788627E1
2.062084958E0,-1.765728149E0,-1.014021332E1,5.035678253E0,1.145861150E1
2.072139958E0,-3.269051971E0,-8.672515411E0,5.450166321E0,1.075190854E1
2.082195958E0,-1.778002625E0,-7.692653046E0,5.571264496E0,9.663187481E0
2.092251958E0,-1.008303223E0,-7.846233673E0,5.796396332E0,9.807051987E0
2.102307958E0,-7.726931763E-1,-8.509803772E0,5.731431427E0,1.028898057E1
2.112362958E0,-3.932322693E-1,-9.557924194E0,5.113516388E0,1.084696254E1
2.122418958E0,3.303630066E-1,-9.960287476E0,4.084406433E0,1.077027587E1
2.132474958E0,-4.421804810E-1,-1.072534653E1,2.800675964E0,1.109379861E1
2.142530958E0,-1.606908417E0,-1.035097504E1,1.895657959E0,1.064510958E1
2.152585958E0,-2.881507874E0,-9.895921326E0,7.858657837E-1,1.033682405E1
2.162641958E0,-3.648063812E0,-9.017398224E0,3.011737061E-1,9.732037089E0
2.172697958E0,-3.548221436E0,-8.274642792E0,3.516188049E-1,9.010173387E0
2.182753917E0,-3.639681244E0,-7.971523132E0,1.187031555E-1,8.763934678E0
2.192808917E0,-4.018094330E0,-7.822133789E0,1.049168243E0,8.856162434E0
2.202864917E0,-4.211192780E0,-7.854765930E0,6.512956238E-1,8.936200447E0
2.212920917E0,-4.582720184E0,-8.459508362E0,1.035995636E0,9.676667452E0
2.222976917E0,-5.116510162E0,-9.377998352E0,2.279010773E0,1.092334287E1
2.233031917E0,-5.287454681E0,-9.713301086E0,3.619922333E0,1.163654728E1
2.243087917E0,-5.670208740E0,-1.041384430E1,4.091292114E0,1.254344815E1
2.253143917E0,-5.719007263E0,-1.047282166E1,4.562212830E0,1.277500777E1
2.263198917E0,-5.103337555E0,-9.483977966E0,5.043911133E0,1.189247375E1
2.273254917E0,-4.504432983E0,-8.624315643E0,4.236190796E0,1.061197669E1
2.283310917E0,-4.262236633E0,-7.862100677E0,3.577111359E0,9.631978709E0
2.293366917E0,-4.278403015E0,-7.429799652E0,2.778671722E0,9.012639556E0
2.303421917E0,-4.118535461E0,-6.919361115E0,2.603086853E0,8.462620974E0
2.313477917E0,-4.444258118E0,-6.668183441E0,2.257605286E0,8.325435859E0
2.323533917E0,-4.741988983E0,-7.087910614E0,1.830842743E0,8.722208524E0
2.333589917E0,-4.762196960E0,-7.720794525E0,1.368753662E0,9.174021723E0
2.343644917E0,-5.005141754E0,-8.098159790E0,1.248852997E0,9.601628496E0
2.353700917E0,-5.010380859E0,-8.478518829E0,1.319506073E0,9.936311900E0
2.363756917E0,-4.936135254E0,-9.316476288E0,1.716630249E0,1.068218054E1
2.373812917E0,-5.124144287E0,-1.024110352E1,2.277513885E0,1.167579228E1
2.383867917E0,-5.268144836E0,-1.113519424E1,2.746039581E0,1.262088088E1
2.393923917E0,-5.310806122E0,-1.187330933E1,3.205134888E0,1.339600783E1
2.403979917E0,-4.974305878E0,-1.215262848E1,3.746109924E0,1.365516157E1
2.414035917E0,-4.426145782E0,-1.223735229E1,3.841611328E0,1.356840209E1
2.424090917E0,-4.222868500E0,-1.207014999E1,4.081562347E0,1.342312521E1
2.434146917E0,-3.941753082E0,-1.191013275E1,4.645589447E0,1.337797372E1
2.444202917E0,-3.503165131E0,-1.196282318E1,5.147346039E0,1.348615867E1
2.454258917E0,-3.478765869E0,-1.182585800E1,5.864355011E0,1.365076515E1
2.464313917E0,-3.638184357E0,-1.164368683E1,6.549031219E0,1.384563607E1
2.474369917E0,-3.883524170E0,-1.139670044E1,6.177952881E0,1.353268793E1
2.484425917E0,-4.130809937E0,-1.069331314E1,5.052593079E0,1.252753900E1
2.494481917E0,-3.847000122E0,-9.684111786E0,4.148173828E0,1.121555960E1
2.504536917E0,-3.435805206E0,-8.723708954E0,3.193159790E0,9.904752636E0
2.514592917E0,-3.796255646E0,-8.527616730E0,3.017425232E0,9.810028494E0
2.524648917E0,-3.679648132E0,-7.939938812E0,3.498973846E0,9.424715205E0
2.534704917E0,-4.126768341E0,-7.496860199E0,3.492088165E0,9.242716567E0
2.544759917E0,-3.636837158E0,-8.120463409E0,4.244872742E0,9.858369799E0
2.554815917E0,-2.374661865E0,-8.465046844E0,3.958218842E0,9.641759873E0
2.564871917E0,-1.609602814E0,-8.299341431E0,3.310216370E0,9.078954886E0
2.574927917E0,-1.278641052E0,-8.329129486E0,3.969445496E0,9.314817147E0
2.584982917E0,-2.041903839E0,-8.269553375E0,4.598138123E0,9.679760251E0
2.595038917E0,-2.401905212E0,-7.998317413E0,4.791086884E0,9.627914812E0
2.605094917E0,-2.350112915E0,-7.523055725E0,3.306923218E0,8.547229921E0
2.615149917E0,-1.672023010E0,-7.097790070E0,2.030527496E0,7.569499768E0
2.625205917E0,-1.761536865E0,-7.128925323E0,3.180585938E0,8.002544302E0
2.635261917E0,-1.490001526E0,-7.167994080E0,2.875220947E0,7.865566678E0
2.645317917E0,-1.301543427E0,-8.049510956E0,2.983296204E0,8.682666535E0
2.655372917E0,-1.005758514E0,-9.100325775E0,4.869374084E0,1.037006670E1
2.665428917E0,-9.226812744E-1,-8.692424011E0,5.203179932E0,1.017264259E1
2.675484917E0,-9.618997192E-1,-7.961194611E0,5.118605804E0,9.513463937E0
2.685540917E0,-1.501826935E0,-7.172933807E0,4.997956696E0,8.870514905E0
2.695595917E0,-1.730251923E0,-6.011798401E0,4.261039124E0,7.569144347E0
2.705651917E0,-2.693349152E0,-4.844525757E0,2.817441101E0,6.217839964E0
2.715707917E0,-3.111130371E0,-4.711153107E0,3.462000732E0,6.622653913E0
2.725763917E0,-3.515589294E0,-5.040019226E0,3.772604828E0,7.210666340E0
2.735818917E0,-2.537373505E0,-5.833968201E0,3.896098022E0,7.460095782E0
2.745874917E0,-1.068777466E0,-7.355853424E0,3.855532379E0,8.373529411E0
2.755930917E0,-1.004111938E0,-8.275540924E0,3.895948334E0,9.201697223E0
2.765986917E0,-1.011596375E0,-8.190817108E0,3.795656891E0,9.084042237E0
2.776041917E0,-1.246008911E0,-8.156239014E0,3.702849884E0,9.043664651E0
2.786097917E0,-1.392554169E0,-7.917186127E0,3.553909607E0,8.789272824E0
2.796153917E0,-1.369951172E0,-7.676336975E0,3.808081055E0,8.677810605E0
2.806209917E0,-1.558558960E0,-7.318580933E0,3.789968719E0,8.387764648E0
2.816264917E0,-1.151854706E0,-6.676865387E0,3.535497894E0,7.642450263E0
2.826320917E0,-1.164428558E0,-6.155649261E0,3.514092407E0,7.183088273E0
2.836376917E0,-1.235830078E0,-5.625002747E0,3.629352722E0,6.807358744E0
2.846432917E0,-1.620530090E0,-5.248236237E0,3.855532379E0,6.710829404E0
2.856487917E0,-1.921703796E0,-5.399571533E0,4.812941437E0,7.484164850E0
2.866543917E0,-1.814826050E0,-6.711443481E0,6.622378693E0,9.601716864E0
2.876599917E0,-1.874551849E0,-8.161029053E0,6.362369385E0,1.051646728E1
2.886655917E0,-1.868414612E0,-8.725205841E0,5.457800446E0,1.045981720E1
2.896710917E0,-1.301543427E0,-9.441466370E0,5.557493134E0,1.103272552E1
2.906766917E0,-1.785786438E0,-9.269623718E0,4.503834229E0,1.045942063E1
2.916822917E0,-1.759740601E0,-8.456514587E0,3.473676453E0,9.309981420E0
2.926877917E0,-1.876946869E0,-8.278684387E0,3.641028442E0,9.236700323E0
2.936933917E0,-2.906356201E0,-7.768245850E0,1.808090057E0,8.488918636E0
2.946989917E0,-2.286345520E0,-7.985593872E0,3.003055115E0,8.832634112E0
2.957045917E0,-1.683549042E0,-9.615704041E0,4.232448578E0,1.064000576E1
2.967100917E0,-2.067201233E0,-1.068358337E1,4.244273987E0,1.168015994E1
2.977156917E0,-1.780697021E0,-1.140044266E1,4.833598480E0,1.251018181E1
2.987212917E0,-2.166145477E0,-1.144983994E1,4.621639252E0,1.253597105E1
2.997268917E0,-2.461631012E0,-1.156569901E1,4.063300323E0,1.250341674E1
3.007323917E0,-2.787802734E0,-1.039827667E1,4.097279663E0,1.151884120E1
3.017379917E0,-2.719095612E0,-9.406289520E0,4.392166443E0,1.073139737E1
3.027435917E0,-3.369343414E0,-9.700427856E0,3.910468140E0,1.098829089E1
3.037491917E0,-3.882626038E0,-1.023736130E1,2.989882507E0,1.134979069E1
3.047546917E0,-3.869603119E0,-9.837842102E0,2.778522034E0,1.093056038E1
3.057602917E0,-3.846850433E0,-9.371112671E0,2.886896667E0,1.053328929E1
3.067658917E0,-3.288212128E0,-9.132658539E0,2.529589691E0,1.003078337E1
3.077714917E0,-3.338657227E0,-8.801547089E0,2.526895294E0,9.746746281E0
3.087769917E0,-3.038231964E0,-8.707542572E0,2.883603516E0,9.662676666E0
3.097825917E0,-2.898572388E0,-8.688382416E0,2.892285461E0,9.604948000E0
3.107881917E0,-3.019969940E0,-8.488847351E0,3.215164032E0,9.566505503E0
3.117937917E0,-3.054997101E0,-8.705446930E0,3.449277191E0,9.849635865E0
3.127992917E0,-3.246598663E0,-9.130413208E0,3.348985748E0,1.025283150E1
3.138048917E0,-3.552861786E0,-9.121431885E0,3.574716339E0,1.042122562E1
3.148104917E0,-3.149450684E0,-9.147328033E0,3.525319061E0,1.029662684E1
3.158160917E0,-3.583997040E0,-9.095236359E0,3.320544891E0,1.032445532E1
3.168215917E0,-3.764521637E0,-9.128018188E0,2.799628143E0,1.026305300E1
3.178272042E0,-3.535647583E0,-9.826016693E0,2.483186188E0,1.073394716E1
3.188328042E0,-3.775149536E0,-1.082084793E1,2.345622253E0,1.169805316E1
3.198384042E0,-4.238735504E0,-1.177017380E1,2.424208832E0,1.274286696E1
3.208439042E0,-4.904700623E0,-1.227222977E1,2.702779541E0,1.348957853E1
3.218495042E0,-5.119354248E0,-1.168889282E1,3.131787415E0,1.313948613E1
3.228551042E0,-5.304668884E0,-1.158306290E1,3.284020844E0,1.315643002E1
3.238607042E0,-4.819228363E0,-1.094434113E1,3.593128052E0,1.248655813E1
3.248662042E0,-4.315076752E0,-1.038959473E1,4.248315582E0,1.202546262E1
3.258718042E0,-3.215912476E0,-9.993817749E0,4.765490112E0,1.152945715E1
3.268774042E0,-2.759661255E0,-8.968899078E0,5.193150787E0,1.072500331E1
3.278830042E0,-3.295397186E0,-8.230035553E0,5.714666290E0,1.054753709E1
3.288885042E0,-3.433709564E0,-7.508086853E0,4.288432159E0,9.303353156E0
3.298941042E0,-2.908751221E0,-6.074068909E0,2.951861572E0,7.353137665E0
3.308997042E0,-2.615211639E0,-4.947960663E0,3.359014893E0,6.527222050E0
3.319053042E0,-1.898352356E0,-4.986430664E0,3.853137360E0,6.581405621E0
3.329108042E0,-1.485959930E0,-4.694088593E0,4.120780792E0,6.420543510E0
3.339164042E0,-1.646276550E0,-3.767216034E0,3.904181213E0,5.669636150E0
3.349220042E0,-1.611698456E0,-3.138074341E0,3.930975494E0,5.281822680E0
3.359276042E0,-1.082399139E0,-3.090323639E0,4.381538544E0,5.469878253E0
3.369331042E0,-7.694000244E-1,-4.213138733E0,4.780458984E0,6.418356681E0
3.379387042E0,-8.599617004E-1,-5.859115906E0,4.954696655E0,7.721255874E0
3.389443042E0,-1.068478088E0,-6.921905823E0,4.339026947E0,8.239027885E0
3.399498042E0,-1.205592957E0,-7.368576965E0,3.486100616E0,8.240283877E0
3.409554042E0,-1.076112213E0,-7.748037872E0,2.964585114E0,8.365337606E0
3.419610042E0,-1.723815308E0,-8.213120728E0,2.742896118E0,8.828950697E0
3.429666042E0,-2.494861908E0,-8.713829498E0,2.950963440E0,9.532226691E0
3.439721042E0,-2.424208832E0,-9.295669556E0,3.356021118E0,1.017590972E1
3.449777042E0,-2.427951050E0,-9.562564545E0,3.477568359E0,1.046093058E1
3.459833042E0,-2.506537628E0,-9.439071350E0,2.379601593E0,1.005193029E1
3.469889042E0,-2.154320068E0,-9.100625153E0,2.100881195E0,9.585206045E0
3.479944042E0,-2.673440552E0,-8.727301483E0,3.170556793E0,9.662582778E0
3.490000042E0,-4.104614410E0,-8.749455414E0,4.936584320E0,1.085222071E1
3.500056042E0,-4.542453918E0,-8.953930206E0,5.838758240E0,1.161455344E1
3.510112042E0,-4.249962158E0,-8.952283630E0,6.474635925E0,1.183750273E1
3.520167042E0,-4.363126831E0,-8.644523621E0,5.724845123E0,1.124893400E1
3.530223042E0,-3.555556183E0,-7.994575195E0,5.120551758E0,1.013781350E1
3.540279042E0,-3.181334381E0,-7.434739380E0,4.183799744E0,9.104966688E0
3.550335042E0,-3.139720917E0,-7.646399231E0,3.431763611E0,8.949987157E0
3.560390042E0,-3.343297577E0,-8.181087341E0,3.363056488E0,9.456107958E0
3.570446042E0,-3.447480927E0,-8.894204407E0,4.239783325E0,1.043876235E1
3.580502042E0,-3.491938477E0,-8.936566315E0,4.492457886E0,1.059424512E1
3.590558042E0,-3.231480103E0,-8.392896881E0,3.999532928E0,9.842735664E0
3.600613042E0,-3.208727417E0,-7.912246399E0,3.630400543E0,9.277897543E0
3.610669042E0,-2.975811768E0,-7.672744446E0,3.607348480E0,8.985512009E0
3.620725042E0,-2.842439117E0,-7.399113464E0,3.940256195E0,8.851664198E0
3.630781042E0,-3.031795349E0,-7.906707916E0,4.543352051E0,9.609883504E0
3.640836042E0,-3.348536682E0,-8.541388092E0,4.588108978E0,1.025761924E1
3.650892042E0,-3.450624390E0,-8.654552765E0,4.033063202E0,1.015252141E1
3.660948042E0,-3.736679535E0,-8.173153839E0,3.961811371E0,9.821362785E0
3.671004042E0,-4.299209747E0,-7.967631226E0,4.614454193E0,1.016167010E1
3.681059042E0,-5.199587402E0,-8.292006683E0,5.357509003E0,1.115777696E1
3.691115042E0,-5.881569214E0,-8.861422577E0,5.394482117E0,1.192552321E1
3.701171042E0,-5.825286255E0,-9.170080719E0,4.088448029E0,1.160774516E1
3.711227042E0,-5.893544312E0,-8.804840240E0,3.604354706E0,1.119153471E1
3.721282042E0,-5.674250336E0,-8.513396301E0,3.084036713E0,1.068579973E1
3.731338042E0,-5.353168030E0,-8.379873962E0,2.811752930E0,1.033366586E1
3.741394042E0,-5.625152435E0,-7.941884766E0,2.911595306E0,1.015840838E1
3.751450042E0,-7.651937714E0,-7.387737122E0,3.858675842E0,1.131460074E1
3.761505042E0,-7.529492340E0,-7.803123322E0,4.338428192E0,1.167921006E1
3.771561042E0,-6.880292358E0,-8.116870880E0,3.412453766E0,1.117438394E1
3.781617042E0,-6.688840485E0,-7.808212738E0,2.267933807E0,1.052864174E1
3.791673042E0,-5.400769043E0,-7.254514160E0,1.659748535E0,9.195164335E0
3.801728042E0,-4.214785309E0,-7.163802795E0,1.486858063E0,8.443650430E0
3.811784042E0,-3.703897705E0,-7.565417633E0,1.365011444E0,8.533326339E0
3.821840042E0,-3.465892639E0,-8.034242706E0,1.136885834E0,8.823490072E0
3.831895042E0,-3.496129761E0,-8.093669128E0,6.996450806E-1,8.844201858E0
3.841951042E0,-3.551514587E0,-8.007598114E0,6.965016174E-1,8.787490991E0
3.852007042E0,-3.742816772E0,-7.983049164E0,4.361929321E-1,8.827684613E0
3.862063042E0,-4.412673798E0,-7.545958099E0,5.748046875E-1,8.760340981E0
3.872118042E0,-4.796924744E0,-6.990313568E0,1.114881592E0,8.550902393E0
3.882174042E0,-4.580624542E0,-7.187752991E0,9.190887451E-1,8.572668101E0
3.892230042E0,-3.741768951E0,-6.849905548E0,6.246510315E-1,7.830212629E0
3.902286042E0,-3.229234772E0,-6.674021301E0,-2.948867798E-2,7.414269156E0
3.912341042E0,-2.794538727E0,-6.645131378E0,-1.908531189E-1,7.211355118E0
3.922397042E0,-3.372935944E0,-7.079378357E0,-4.939727783E-3,7.841831368E0
3.932453042E0,-4.539460144E0,-7.385791168E0,3.975732422E-1,8.678402737E0
3.942509042E0,-7.669750671E0,-7.855664063E0,8.993298340E-1,1.101568552E1
3.952564042E0,-8.535699921E0,-7.954009552E0,1.272503815E0,1.173642650E1
3.962620042E0,-7.432194672E0,-8.237370300E0,1.700014801E0,1.122416311E1
3.972676042E0,-7.436236267E0,-8.273445282E0,1.650018768E0,1.124589119E1
3.982732042E0,-6.362968140E0,-8.367150421E0,9.060658264E-1,1.055071206E1
3.992787042E0,-7.247628479E0,-8.495583344E0,1.175505524E0,1.122875185E1
4.002843042E0,-9.036109314E0,-8.259224854E0,8.440946960E-1,1.227104570E1
4.012899042E0,-8.781638489E0,-8.182584229E0,5.020559692E-1,1.201348906E1
4.022955042E0,-8.276738434E0,-8.995843048E0,1.585203552E-1,1.222516748E1
4.033010042E0,-9.628128204E0,-9.464817810E0,6.348298645E-1,1.351616210E1
4.043066042E0,-8.460107117E0,-8.890611877E0,5.689668274E-1,1.228576881E1
4.053122042E0,-6.138884125E0,-9.458530884E0,2.703378296E-1,1.127930793E1
4.063178042E0,-7.270530853E0,-1.013497421E1,7.396119690E-1,1.249501289E1
4.073233042E0,-7.956554260E0,-9.091943207E0,1.240919495E-1,1.208244949E1
4.083289042E0,-8.211025085E0,-8.248746643E0,2.498304749E-1,1.164152779E1
4.093345042E0,-7.110064545E0,-7.980055389E0,3.668870544E-1,1.069434000E1
4.103401042E0,-6.411467285E0,-8.942853241E0,5.490582275E-1,1.101739542E1
4.113456042E0,-6.083349609E0,-9.376800842E0,6.806346130E-1,1.119798196E1
4.123512042E0,-6.982978821E0,-8.973689117E0,8.277786255E-1,1.140062748E1
4.133568042E0,-6.846013641E0,-8.413853302E0,2.007325745E-1,1.084901487E1
4.143624042E0,-4.924758911E0,-7.613318024E0,-1.956431580E-1,9.069406701E0
4.153679042E0,-4.282294922E0,-8.289162598E0,8.096662903E-1,9.365032081E0
4.163735042E0,-3.485801239E0,-9.019643555E0,1.148711243E0,9.737777860E0
4.173791042E0,-1.933978271E0,-8.347241821E0,8.202941895E-1,8.607531617E0
4.183846417E0,-2.075284424E0,-9.016649780E0,1.367256775E0,9.352869602E0
4.193901417E0,-2.520907745E0,-9.149124298E0,1.436113586E0,9.598118228E0
4.203957417E0,-2.420167236E0,-8.747509460E0,1.116677856E0,9.144566728E0
4.214013417E0,-2.505190430E0,-9.078471222E0,9.407936096E-1,9.464655907E0
4.224069417E0,-3.117866364E0,-8.910221100E0,8.205935669E-1,9.475574099E0
4.234124417E0,-4.371359711E0,-8.995244293E0,7.018904114E-1,1.002575961E1
4.244180417E0,-4.204606476E0,-8.153394928E0,3.248245239E-1,9.179437643E0
4.254236417E0,-2.781366119E0,-7.759863281E0,3.068618774E-2,8.243325620E0
4.264292417E0,-2.279010773E0,-7.319029999E0,-6.735992432E-2,7.665939446E0
4.274347417E0,-1.918111267E0,-7.046147461E0,-3.802093506E-2,7.302656398E0
4.284403417E0,-1.813029785E0,-7.291337585E0,-1.899549866E-1,7.515767671E0
4.294459417E0,-1.731150055E0,-7.689808960E0,-5.239105225E-2,7.882435358E0
4.304515417E0,-1.557660828E0,-7.851023712E0,3.665876770E-1,8.012444515E0
4.314570417E0,-2.244582367E0,-7.780220947E0,3.888912964E-1,8.106862798E0
4.324626417E0,-3.087928619E0,-8.339458008E0,1.124910736E0,8.963664830E0
4.334682417E0,-1.929337921E0,-8.463549957E0,1.404828644E0,8.793609396E0
4.344738417E0,-6.285429382E-1,-9.693542175E0,1.132095795E0,9.779645547E0
4.354793417E0,8.867559814E-1,-1.090018295E1,7.809260559E-1,1.096403986E1
4.364849417E0,2.630479889E0,-1.158141632E1,-6.795867920E-2,1.187658397E1
4.374905417E0,3.196452942E0,-1.212807953E1,-1.055754547E0,1.258658977E1
4.384961417E0,3.015329590E0,-1.245215561E1,-2.259850616E0,1.300981617E1
4.395016417E0,1.722468109E0,-1.270004013E1,-2.607427826E0,1.307886064E1
4.405072417E0,7.735913086E-1,-1.234273315E1,-2.138602753E0,1.255050306E1
4.415128417E0,5.334906006E-1,-1.216565140E1,-1.751956787E0,1.230272485E1
4.425184417E0,4.381388855E-1,-1.215861603E1,-1.353335724E0,1.224154512E1
4.435239417E0,1.206491089E-1,-1.110301117E1,-6.282435608E-1,1.112142541E1
4.445295417E0,-4.209246826E-1,-1.034319122E1,-1.396595764E-1,1.035269468E1
4.455351417E0,3.233276367E-2,-1.074585388E1,-3.583547974E-1,1.075187608E1
4.465407417E0,1.027463379E0,-1.061667252E1,-9.653425598E-1,1.070986940E1
4.475462417E0,-4.754113770E-1,-8.080197144E0,-8.232879639E-1,8.135932948E0
4.485518417E0,-7.554789734E-1,-5.959706726E0,-3.083587646E-1,6.015308626E0
4.495574417E0,4.150868225E-1,-7.014563141E0,-1.012344818E0,7.099382731E0
4.505630417E0,2.020797729E-1,-9.001231842E0,-6.765930176E-1,9.028886367E0
4.515685417E0,-6.631210327E-2,-1.048913773E1,1.387614441E-1,1.049026512E1
4.525741417E0,9.708810425E-1,-1.150672165E1,7.915539551E-1,1.157470565E1
4.535797417E0,1.260379028E0,-1.218810471E1,1.156495056E0,1.230755591E1
4.545853417E0,5.870791626E-1,-1.230097000E1,1.259031830E0,1.237916338E1
4.555908417E0,-1.395098877E-1,-1.194545929E1,7.641609192E-1,1.197068931E1
4.565964417E0,-4.161346436E-1,-1.134056717E1,4.305047607E-1,1.135636236E1
4.576020417E0,-6.882687378E-1,-1.061727127E1,6.212081909E-1,1.065767623E1
4.586076417E0,-1.166973267E0,-9.338330841E0,1.080752563E0,9.472817723E0
4.596131417E0,-1.738933868E0,-8.583001556E0,9.514215088E-1,8.808916483E0
4.606187417E0,-2.023342438E0,-8.153245239E0,1.058598633E0,8.466992005E0
4.616243417E0,-2.200873260E0,-7.757019196E0,1.170865173E0,8.147767496E0
4.626299417E0,-1.706601105E0,-8.219108276E0,4.281097412E-1,8.405326058E0
4.636354417E0,-1.391356659E0,-8.553363190E0,1.718426514E-1,8.667492435E0
4.646410417E0,-1.634900208E0,-8.281678162E0,2.152523804E-1,8.444253990E0
4.656466417E0,-1.914818115E0,-9.356143799E0,2.254312134E-1,9.552736489E0
4.666522417E0,-1.038690033E0,-9.880353699E0,3.296145630E-1,9.940267197E0
4.676577417E0,-1.707199860E0,-8.617130585E0,2.498304749E-1,8.788167394E0
4.686633417E0,-1.882784729E0,-1.092413315E1,4.366419983E-1,1.109379194E1
4.696689417E0,-6.858737183E-1,-8.750353546E0,9.428892517E-1,8.827692228E0
4.706745417E0,-1.938169556E0,-8.708590393E0,4.764591980E-1,8.934375257E0
4.716800417E0,-1.759291534E0,-1.001402573E1,1.096469879E0,1.022634168E1
4.726856417E0,-1.175056458E0,-1.068672684E1,8.261320496E-1,1.078282812E1
4.736912417E0,-1.197509766E0,-1.062086380E1,2.694396973E-1,1.069155626E1
4.746968417E0,-1.429826660E0,-1.033316208E1,6.526428223E-2,1.043182162E1
4.757023417E0,-1.492546234E0,-1.011790970E1,2.996768188E-1,1.023179345E1
4.767079417E0,-1.324745178E0,-9.882149963E0,4.478686523E-1,9.980602387E0
4.777135417E0,-1.222208405E0,-9.410929871E0,6.303392029E-1,9.510873878E0
4.787190417E0,-4.963677979E-1,-8.235424347E0,7.030879211E-1,8.280273413E0
4.797246417E0,-1.402583313E-1,-6.808591461E0,7.018904114E-1,6.846111322E0
4.807302417E0,-1.135838013E0,-6.095624084E0,9.467811584E-1,6.272412258E0
4.817358417E0,-2.410138092E0,-6.796466675E0,7.417076111E-1,7.249196857E0
4.827413417E0,-2.192341003E0,-6.928941193E0,3.272195435E-1,7.274864793E0
4.837469417E0,-1.933978271E0,-6.535559235E0,2.242337036E-1,6.819390531E0
4.847525417E0,-2.099983063E0,-5.600603485E0,3.891906738E-2,5.981488356E0
4.857581417E0,-1.471889191E0,-4.275558929E0,-2.884501648E-1,4.531011526E0
4.867636417E0,-1.544338531E0,-3.476819916E0,-3.626957703E-1,3.821623536E0
4.877692417E0,-1.506616974E0,-5.062472534E0,-6.852749634E-1,5.326173546E0
4.887748417E0,-8.455915833E-1,-7.802374878E0,-7.954458618E-1,7.888270595E0
4.897804417E0,-8.152047729E-1,-8.921298065E0,-4.273612976E-1,8.968654061E0
4.907859417E0,-1.851499786E0,-9.462871857E0,3.336561584E-1,9.648073469E0
4.917915417E0,-1.546134796E0,-9.493707733E0,1.394051056E0,9.719279689E0
4.927971417E0,-9.210346985E-1,-9.774823151E0,7.493417358E-1,9.846673833E0
4.938027417E0,-9.785151672E-1,-1.004096970E1,2.854563904E-1,1.009257399E1
4.948082417E0,-8.617579651E-1,-8.752449188E0,7.334747314E-2,8.795076659E0
4.958138417E0,-5.875282288E-1,-7.825426941E0,4.489164734E-1,7.860281307E0
4.968194417E0,-3.305126953E-1,-7.299570465E0,5.291496277E-1,7.326183655E0
4.978250417E0,-1.407073975E-2,-7.324867859E0,9.969268799E-2,7.325559758E0
4.988305417E0,-8.041278076E-1,-8.162675629E0,-1.637893982E0,8.364125277E0
4.998361417E0,-1.080303497E0,-9.479936371E0,-1.381626892E0,9.640806092E0
5.008417417E0,-3.502716064E-2,-1.129027176E1,-2.288740540E-1,1.129264569E1
5.018473417E0,-1.701960754E-1,-1.204575073E1,-6.378236389E-1,1.206382594E1
5.028528417E0,-7.153623962E-1,-1.270917114E1,-4.339476013E-1,1.273668265E1
5.038584417E0,-1.080153809E0,-1.543096115E1,-4.031117249E-1,1.547397148E1
5.048640417E0,-1.141675873E0,-1.930969528E1,4.845423889E-1,1.934948415E1
5.058696417E0,1.255289612E0,-2.322405533E1,-2.609074402E-1,2.325941897E1
5.068751417E0,9.032217407E-1,-2.009735733E1,3.634442139E-1,2.012092624E1
5.078807417E0,-1.450633392E0,-1.241518250E1,1.050814819E-1,1.250008543E1
5.088863417E0,-1.587748260E0,-1.168335434E1,1.646575928E-3,1.179074704E1
5.098919417E0,-1.142124939E-1,-1.266576141E1,-5.792953491E-2,1.266640882E1
5.108974417E0,9.410929871E-1,-1.274898834E1,-7.274871826E-2,1.278388251E1
5.119030417E0,9.854008484E-1,-1.178484329E1,-7.842192078E-1,1.185194271E1
5.129086417E0,5.697152710E-1,-1.112950607E1,-6.137237549E-1,1.116096491E1
5.139142417E0,2.540217590E-1,-1.076695999E1,4.790039062E-3,1.076995717E1
5.149197417E0,-4.834945679E-2,-1.031998947E1,3.104544067E-1,1.032477130E1
5.159253417E0,2.754272461E-2,-1.046668442E1,-1.007405090E-1,1.046720545E1
5.169309417E0,-1.009650421E0,-9.310488739E0,-1.023571472E0,9.420843545E0
5.179366167E0,-7.515870667E-1,-9.031319275E0,-1.681303711E0,9.217179239E0
5.189421167E0,-4.543052673E-1,-9.650132446E0,-1.497785339E0,9.776237028E0
5.199477167E0,-2.909948730E-1,-1.071816147E1,-1.089135132E0,1.077728531E1
5.209533167E0,-4.233197021E-1,-1.000758911E1,-9.208850098E-1,1.005878067E1
5.219589167E0,-4.279600525E-1,-7.596103821E0,-8.544232178E-1,7.655976887E0
5.229644167E0,-2.862048340E-1,-7.153025208E0,-6.845265198E-1,7.191401768E0
5.239700167E0,-8.577163696E-2,-8.509803772E0,-4.805007935E-2,8.510371662E0
5.249756167E0,-2.302212524E-1,-9.087751923E0,6.047424316E-1,9.110760135E0
5.259812167E0,6.732998657E-1,-1.015578094E1,5.219645691E-1,1.019145065E1
5.269867167E0,-4.218228149E-1,-8.471782837E0,1.339714050E-1,8.483335857E0
5.279923167E0,-5.343887329E-1,-6.704557800E0,-7.890092468E-1,6.771942277E0
5.289979167E0,6.908134460E-1,-8.264314270E0,-1.004261627E0,8.353721026E0
5.300035167E0,5.333409119E-1,-9.993668060E0,-7.797285461E-1,1.003821849E1
5.310090167E0,2.673440552E-1,-1.047940796E1,-4.363426208E-1,1.049189491E1
5.320146167E0,2.112107849E-1,-1.064391586E1,-2.261796570E-1,1.064841360E1
5.330202167E0,-1.787283325E-1,-1.046773224E1,-1.176553345E-1,1.046991905E1
5.340258167E0,-3.233276367E-1,-9.782008209E0,-2.423460388E-1,9.790350196E0
5.350313167E0,-1.871109009E-1,-9.703122253E0,-2.588117981E-1,9.708376564E0
5.360369167E0,9.265731812E-2,-9.943222961E0,-3.884422302E-1,9.951238898E0
5.370425167E0,2.097138977E-1,-9.980046387E0,-6.715036011E-1,1.000480999E1
5.380481167E0,4.385879517E-2,-9.681118011E0,-9.578581238E-1,9.728487124E0
5.390536167E0,-2.838098145E-1,-9.311386871E0,-1.049916687E0,9.374689250E0
5.400592167E0,-5.614823914E-1,-9.259444885E0,-9.771679688E-1,9.327777833E0
5.410648167E0,-6.300398254E-1,-9.391919403E0,-7.828720093E-1,9.445527452E0
5.420704167E0,-6.200106812E-1,-9.472002869E0,-5.342390442E-1,9.507295249E0
5.430759167E0,-6.044430542E-1,-9.495054932E0,-3.447331238E-1,9.520517869E0
5.440815167E0,-5.905220032E-1,-9.483828278E0,-2.028282166E-1,9.504359753E0
5.450871167E0,-4.809498596E-1,-9.588161316E0,-1.210981750E-1,9.600979896E0
5.460927167E0,-4.406835938E-1,-9.619895325E0,-1.184037781E-1,9.630711684E0
5.470982167E0,-3.049159241E-1,-9.690698090E0,-3.171903992E-1,9.700681055E0
5.481038167E0,-1.784289551E-1,-9.660910034E0,-6.218069458E-1,9.682544266E0
5.491094167E0,-4.805007935E-2,-9.627828827E0,-9.129515076E-1,9.671136292E0
5.501150167E0,5.493576050E-2,-9.951755219E0,-8.282276917E-1,9.986311180E0
5.511205167E0,2.257305908E-1,-1.014215927E1,-7.915539551E-1,1.017550523E1
5.521261167E0,2.695893860E-1,-1.012284943E1,-7.581733704E-1,1.015478143E1
5.531317167E0,1.866618347E-1,-9.908495178E0,-8.803193665E-1,9.949275427E0
5.541373167E0,-1.766326904E-2,-9.790390778E0,-1.022074585E0,9.843612143E0
5.551428167E0,-4.248165894E-1,-1.013557297E1,-8.149053955E-1,1.017714986E1
5.561484167E0,-7.005432129E-1,-9.638007660E0,-7.316784668E-1,9.691094150E0
5.571540167E0,-8.086184692E-1,-8.919052734E0,-9.957293701E-1,9.010818081E0
5.581596167E0,-6.050418091E-1,-8.450077972E0,-1.165326691E0,8.551484060E0
5.591651167E0,-7.186555481E-1,-8.888067169E0,-8.433462524E-1,8.956865339E0
5.601707167E0,-4.490661621E-1,-8.467292175E0,-1.127754822E0,8.553860423E0
5.611763167E0,-1.122665405E-1,-8.342451782E0,-2.196083221E0,8.627391670E0
5.621819167E0,-8.307723999E-2,-9.488318939E0,-1.660197601E0,9.632826906E0
5.631874167E0,-2.570155334E-1,-1.046892975E1,-6.030958557E-1,1.048943619E1
5.641930167E0,-7.349716187E-2,-1.082099762E1,-7.604187012E-2,1.082151439E1
5.651986167E0,3.050656128E-1,-1.085333038E1,-5.224136353E-2,1.085774261E1
5.662042167E0,5.369334412E-1,-1.059391983E1,-5.060975647E-1,1.061958425E1
5.672097167E0,7.451504517E-1,-1.036324951E1,-1.178499298E0,1.045662710E1
5.682153167E0,5.346881104E-1,-1.017958145E1,-1.701212311E0,1.033459691E1
5.692209167E0,1.854643250E-1,-9.952503662E0,-1.990560608E0,1.015130818E1
5.702265167E0,-1.422042847E-1,-9.665400696E0,-1.956431580E0,9.862444788E0
5.712320167E0,-3.146456909E-1,-9.464518433E0,-1.694176941E0,9.620101173E0
5.722376167E0,-3.688330078E-1,-9.348809052E0,-1.430126038E0,9.464751922E0
5.732432167E0,-2.868035889E-1,-9.313482513E0,-1.191821594E0,9.393809213E0
5.742488167E0,-1.951940918E-1,-9.309889984E0,-1.019230499E0,9.367549469E0
5.752543167E0,-2.555186462E-1,-9.457033997E0,-9.047186279E-1,9.503646542E0
5.762599167E0,-2.797682190E-1,-9.682914276E0,-8.898994446E-1,9.727744865E0
5.772655167E0,-3.266207886E-1,-9.867779846E0,-9.583071899E-1,9.919582295E0
5.782711167E0,-4.427792358E-1,-9.999206543E0,-1.009201355E0,1.005975508E1
5.792766167E0,-5.751040649E-1,-1.011102402E1,-1.101110229E0,1.018705036E1
5.802822167E0,-7.547305298E-1,-1.006192612E1,-1.231788483E0,1.016510099E1
5.812878167E0,-7.171586609E-1,-1.005713608E1,-1.435065765E0,1.018428772E1
5.822934167E0,-5.801934814E-1,-1.022748184E1,-1.518891449E0,1.035591814E1
5.832990167E0,-5.165757751E-1,-1.024185196E1,-1.596879272E0,1.037845872E1
5.843045167E0,-5.084925842E-1,-1.029843430E1,-1.676363983E0,1.044636348E1
5.853101167E0,-3.366499329E-1,-1.030846344E1,-1.663041687E0,1.044717471E1
5.863157167E0,-1.960922241E-1,-9.938432922E0,-1.573677521E0,1.006416226E1
5.873212167E0,-2.877017212E-1,-9.399553528E0,-1.670825500E0,9.551232206E0
5.883268167E0,-3.861968994E-1,-9.205257568E0,-1.779499512E0,9.383631145E0
5.893324167E0,-2.073188782E-1,-9.425000610E0,-1.608255615E0,9.563477597E0
5.903380167E0,-5.152285767E-1,-9.792486420E0,-1.079405365E0,9.865260600E0
5.913435167E0,-1.182540894E-1,-9.525142365E0,-8.897497559E-1,9.567339009E0
5.923491167E0,1.480421448E-1,-9.133257294E0,-8.599617004E-1,9.174848195E0
5.933547167E0,4.105961609E-1,-9.092691650E0,-8.788224792E-1,9.144285626E0
5.943603167E0,-1.643582153E-1,-9.545649719E0,-1.135838013E0,9.614393906E0
5.953658167E0,4.071533203E-2,-9.624086609E0,-1.335672455E0,9.716415064E0
5.963714167E0,3.579057312E-1,-9.908345490E0,-1.716779938E0,1.006234268E1
5.973770167E0,3.814068604E-1,-1.024304947E1,-2.208806763E0,1.048543566E1
5.983826167E0,4.882846069E-1,-1.032897079E1,-2.447410583E0,1.062618831E1
5.993881167E0,1.454974365E-1,-1.026984375E1,-2.288441162E0,1.052272888E1
6.003937167E0,5.373825073E-2,-1.004905289E1,-1.991009674E0,1.024453373E1
6.013993167E0,1.511856079E-2,-9.750573578E0,-1.715133362E0,9.900282628E0
6.024049167E0,-5.508544922E-2,-9.535620575E0,-1.421444092E0,9.641140880E0
6.034104167E0,-1.498384094E-1,-9.386231232E0,-1.295106812E0,9.476343701E0
6.044160167E0,-2.065704346E-1,-9.225315857E0,-1.368154907E0,9.328503195E0
6.054216167E0,-3.023712158E-1,-9.129215698E0,-1.488205261E0,9.254661664E0
6.064272167E0,-4.278103638E-1,-9.134454803E0,-1.682950287E0,9.298043231E0
6.074327167E0,-5.010081482E-1,-9.294472046E0,-1.839824066E0,9.488054193E0
6.084383167E0,-5.548960876E-1,-9.598639526E0,-1.861678619E0,9.793244493E0
6.094439167E0,-5.367837524E-1,-9.933493195E0,-1.827998657E0,1.011454413E1
6.104495167E0,-4.540058899E-1,-1.029080017E1,-1.779948578E0,1.045346385E1
6.114551167E0,-2.604583740E-1,-1.063643143E1,-1.717528381E0,1.077735662E1
6.124606167E0,-3.832031250E-2,-1.076501404E1,-1.735640717E0,1.090410218E1
6.134662167E0,1.227447510E-2,-1.060499680E1,-1.802850952E0,1.075715479E1
6.144718167E0,-1.637594604E-1,-1.026744873E1,-1.846560059E0,1.043346082E1
6.154774167E0,-4.748126221E-1,-9.891730042E0,-1.817670135E0,1.006854979E1
6.164829167E0,-7.688012695E-1,-9.573192444E0,-1.727407837E0,9.758125168E0
6.174885167E0,-1.014889526E0,-9.323960724E0,-1.652862854E0,9.523560256E0
6.184941042E0,-1.216969299E0,-9.195078735E0,-1.593436432E0,9.411138448E0
6.194997042E0,-1.337169342E0,-9.191785583E0,-1.564845886E0,9.419431337E0
6.205052042E0,-1.311422882E0,-9.299262085E0,-1.500629425E0,9.510415026E0
6.215108042E0,-1.069525909E0,-9.492959290E0,-1.425785065E0,9.658831440E0
6.225164042E0,-7.420069885E-1,-9.682465210E0,-1.415606232E0,9.813493156E0
6.235220042E0,-4.507127380E-1,-9.810299377E0,-1.497336273E0,9.934139709E0
6.245275042E0,-2.335144043E-1,-9.862391052E0,-1.636546783E0,9.999978581E0
6.255331042E0,-1.498384094E-1,-9.869426422E0,-1.756896515E0,1.002570271E1
6.265387042E0,-2.222877502E-1,-9.846973114E0,-1.829345856E0,1.001792382E1
6.275443042E0,-4.198768616E-1,-9.858948212E0,-1.857187958E0,1.004113059E1
6.285498042E0,-6.104306030E-1,-9.895322571E0,-1.860481110E0,1.008719110E1
6.295554042E0,-7.530839539E-1,-9.940378876E0,-1.816772003E0,1.013306114E1
6.305610042E0,-8.476872253E-1,-1.002165985E1,-1.739382935E0,1.020674742E1
6.315666042E0,-8.761280823E-1,-1.007120682E1,-1.652713165E0,1.024345000E1
6.325721042E0,-8.119116211E-1,-1.006821304E1,-1.607656860E0,1.022803378E1
6.335777042E0,-6.978488159E-1,-1.000085312E1,-1.571282501E0,1.014756053E1
6.345833042E0,-5.939648438E-1,-9.920170898E0,-1.570234680E0,1.006122368E1
6.355889042E0,-4.802014160E-1,-9.815688171E0,-1.573827209E0,9.952650891E0
6.365944042E0,-4.294569397E-1,-9.701176300E0,-1.598675537E0,9.841393110E0
6.376000042E0,-5.613327026E-1,-9.608219604E0,-1.638343048E0,9.763050052E0
6.386056042E0,-6.309379578E-1,-9.570348358E0,-1.723515930E0,9.744750257E0
6.396112042E0,-7.749385071E-1,-9.601184235E0,-1.774859161E0,9.794559380E0
6.406167042E0,-8.791218567E-1,-9.569150848E0,-1.683998108E0,9.755888111E0
6.416223042E0,-8.987310791E-1,-9.564211121E0,-1.596579895E0,9.738116824E0
6.426279042E0,-8.690927124E-1,-9.523346100E0,-1.506167908E0,9.680804969E0
6.436335042E0,-9.098080444E-1,-9.459728394E0,-1.461860046E0,9.615157136E0
6.446390042E0,-9.822573853E-1,-9.413773956E0,-1.425485687E0,9.571623641E0
6.456446042E0,-1.063388672E0,-9.409582672E0,-1.433568878E0,9.577377577E0
6.466502042E0,-1.134191437E0,-9.430239716E0,-1.446891174E0,9.607773175E0
6.476558042E0,-1.195713501E0,-9.461973724E0,-1.445244598E0,9.646108515E0
6.486613042E0,-1.210532684E0,-9.477691040E0,-1.499431915E0,9.671624109E0
6.496669042E0,-1.214125214E0,-9.506880341E0,-1.597028961E0,9.716242862E0
6.506725042E0,-1.171763306E0,-9.508975983E0,-1.702409821E0,9.730973881E0
6.516781042E0,-1.062789917E0,-9.459129639E0,-1.853745117E0,9.697475284E0
6.526836042E0,-9.404942322E-1,-9.469158783E0,-2.001637573E0,9.723993543E0
6.536892042E0,-7.996371460E-1,-9.425000610E0,-2.127226410E0,9.695109503E0
6.546948042E0,-7.572752380E-1,-9.404343567E0,-2.181114349E0,9.683615209E0
6.557004042E0,-7.436535645E-1,-9.454040222E0,-2.227667542E0,9.741375664E0
6.567059042E0,-7.375163269E-1,-9.453740845E0,-2.270179138E0,9.750428689E0
6.577115042E0,-6.387217712E-1,-9.427545319E0,-2.350711670E0,9.737167021E0
6.587171042E0,-5.752537537E-1,-9.347611542E0,-2.326611786E0,9.649967918E0
6.597227042E0,-5.391787720E-1,-9.271569672E0,-2.245630188E0,9.554871682E0
6.607282042E0,-5.490582275E-1,-9.249116364E0,-2.140698395E0,9.509479905E0
6.617338042E0,-6.080355835E-1,-9.218280487E0,-2.002535706E0,9.452859444E0
6.627394042E0,-6.902146912E-1,-9.215137024E0,-1.894011383E0,9.433049656E0
6.637450042E0,-7.183561707E-1,-9.208700409E0,-1.813628540E0,9.413046653E0
6.647505042E0,-8.608598328E-1,-9.256301422E0,-1.739682312E0,9.457626035E0
6.657561042E0,-1.084345093E0,-9.348809052E0,-1.711241455E0,9.565792298E0
6.667617042E0,-1.287622375E0,-9.421857147E0,-1.751358032E0,9.669364945E0
6.677673042E0,-1.457519073E0,-9.470505981E0,-1.832639008E0,9.755686092E0
6.687728042E0,-1.582808533E0,-9.548942871E0,-1.954036560E0,9.874505136E0
6.697784042E0,-1.615440674E0,-9.543703766E0,-2.099084930E0,9.904447874E0
6.707840042E0,-1.591041412E0,-9.517059174E0,-2.203717346E0,9.897585475E0
6.717896042E0,-1.530267792E0,-9.472152557E0,-2.258802795E0,9.857260454E0
6.727951042E0,-1.464704132E0,-9.404343567E0,-2.259102173E0,9.782156140E0
6.738007042E0,-1.397044830E0,-9.332193604E0,-2.199226685E0,9.689074761E0
6.748063042E0,-1.364712067E0,-9.297016754E0,-2.108665009E0,9.630338918E0
6.758119042E0,-1.372346191E0,-9.300758972E0,-1.996697845E0,9.611152575E0
6.768174042E0,-1.431173859E0,-9.327403564E0,-1.898052979E0,9.625555619E0
6.778230042E0,-1.476379852E0,-9.365424500E0,-1.842668152E0,9.658483289E0
6.788286042E0,-1.507365417E0,-9.397308197E0,-1.844763794E0,9.694570919E0
6.798342042E0,-1.505269775E0,-9.405840454E0,-1.879042511E0,9.709092259E0
6.808397042E0,-1.470841370E0,-9.414073334E0,-1.932331696E0,9.722245463E0
6.818453042E0,-1.429826660E0,-9.407636719E0,-1.988015900E0,9.721123398E0
6.828509042E0,-1.350641327E0,-9.401798859E0,-2.035167847E0,9.713905596E0
6.838565042E0,-1.264869690E0,-9.373657379E0,-2.079924774E0,9.684597826E0
6.848620042E0,-1.184486847E0,-9.337582397E0,-2.085762634E0,9.640739592E0
6.858676042E0,-1.150507507E0,-9.311686249E0,-2.065404968E0,9.607136202E0
6.868732042E0,-1.163530426E0,-9.296567688E0,-2.045047302E0,9.589691981E0
6.878788042E0,-1.209335175E0,-9.295669556E0,-2.064506836E0,9.598653683E0
6.888844042E0,-1.265169067E0,-9.307195587E0,-2.057022400E0,9.615398256E0
6.898899042E0,-1.317709808E0,-9.313033447E0,-2.054328003E0,9.627523808E0
6.908955042E0,-1.363813934E0,-9.325607300E0,-2.070045319E0,9.649457372E0
6.919011042E0,-1.376836853E0,-9.332343292E0,-2.070793762E0,9.657975867E0
6.929067042E0,-1.366658020E0,-9.352102203E0,-2.067201233E0,9.674858692E0
6.939122042E0,-1.376986542E0,-9.405241699E0,-2.057172089E0,9.725565298E0
6.949178042E0,-1.355131989E0,-9.433532867E0,-2.055076447E0,9.749423792E0
6.959234042E0,-1.329984283E0,-9.445208588E0,-2.035467224E0,9.753150787E0
6.969290042E0,-1.303938446E0,-9.429191895E0,-2.028132477E0,9.732586326E0
6.979345042E0,-1.299298096E0,-9.392368469E0,-2.025288391E0,9.695697709E0
6.989401042E0,-1.327738953E0,-9.366023254E0,-2.003882904E0,9.669582670E0
6.999457042E0,-1.389710083E0,-9.365424500E0,-1.981878662E0,9.673174929E0
7.009513042E0,-1.463656311E0,-9.369466095E0,-1.969155121E0,9.685388820E0
7.019568042E0,-1.538949738E0,-9.380842438E0,-1.985471191E0,9.711367926E0
7.029624042E0,-1.616189117E0,-9.398505707E0,-2.015708313E0,9.747156344E0
7.039680042E0,-1.632954254E0,-9.442065125E0,-2.068099365E0,9.802865316E0
7.049736042E0,-1.592089233E0,-9.448202362E0,-2.099533997E0,9.808736871E0
7.059791042E0,-1.538051605E0,-9.434431000E0,-2.111808472E0,9.789475269E0
7.069847042E0,-1.508862305E0,-9.424252167E0,-2.109712830E0,9.774665344E0
7.079903042E0,-1.508263550E0,-9.416917419E0,-2.054178314E0,9.755656880E0
7.089959042E0,-1.517843628E0,-9.414223022E0,-1.986219635E0,9.740457527E0
7.100014042E0,-1.512604523E0,-9.387428741E0,-1.896406403E0,9.695779910E0
7.110070042E0,-1.523232422E0,-9.380842438E0,-1.835483093E0,9.679330557E0
7.120126042E0,-1.553768921E0,-9.389075317E0,-1.801354065E0,9.685752921E0
7.130182042E0,-1.573527832E0,-9.387877808E0,-1.773212585E0,9.682588623E0
7.140237042E0,-1.620829468E0,-9.384584656E0,-1.769021301E0,9.686431422E0
7.150293042E0,-1.649420013E0,-9.383686523E0,-1.811682587E0,9.698265461E0
7.160349042E0,-1.642234955E0,-9.371112671E0,-1.878144379E0,9.697531369E0
7.170405042E0,-1.593286743E0,-9.381890259E0,-1.906435547E0,9.705303909E0
7.180459042E0,-1.484013977E0,-9.366322632E0,-1.928888855E0,9.677339993E0
7.190515042E0,-1.406924286E0,-9.360933838E0,-1.916464691E0,9.658123792E0
7.200571042E0,-1.373543701E0,-9.345665588E0,-1.868713989E0,9.629131818E0
7.210627042E0,-1.387764130E0,-9.335786133E0,-1.832189941E0,9.614557295E0
7.220682042E0,-1.432521057E0,-9.323511658E0,-1.776655426E0,9.598775480E0
7.230738042E0,-1.481319580E0,-9.321116638E0,-1.749412079E0,9.598852312E0
7.240794042E0,-1.503473511E0,-9.321565704E0,-1.733844452E0,9.599908143E0
7.250850042E0,-1.463057556E0,-9.314081268E0,-1.743873596E0,9.588208509E0
7.260905042E0,-1.451082458E0,-9.355095978E0,-1.781445465E0,9.633120419E0
7.270961042E0,-1.466350708E0,-9.404792633E0,-1.819765778E0,9.690812987E0
7.281017042E0,-1.464554443E0,-9.420659637E0,-1.827998657E0,9.707488182E0
7.291073042E0,-1.440604248E0,-9.413324890E0,-1.771566010E0,9.686303331E0
7.301128042E0,-1.375339966E0,-9.424701233E0,-1.679357758E0,9.671442283E0
7.311184042E0,-1.268312531E0,-9.448052673E0,-1.604214020E0,9.666841191E0
7.321240042E0,-1.223256226E0,-9.480235748E0,-1.561702423E0,9.685563489E0
7.331296042E0,-1.309476929E0,-9.458231506E0,-1.515598297E0,9.667983826E0
7.341351042E0,-1.505419464E0,-9.427695007E0,-1.441502380E0,9.655343082E0
7.351407042E0,-1.717678070E0,-9.379644928E0,-1.407822418E0,9.638989620E0
7.361463042E0,-1.827998657E0,-9.330397339E0,-1.406325531E0,9.611224953E0
7.371519042E0,-1.869612122E0,-9.289981384E0,-1.419498138E0,9.581971539E0
7.381575042E0,-1.781445465E0,-9.267528076E0,-1.413660278E0,9.542487096E0
7.391630042E0,-1.649420013E0,-9.265133057E0,-1.432071991E0,9.519144243E0
7.401686042E0,-1.563798065E0,-9.279054108E0,-1.442250824E0,9.519789754E0
7.411742042E0,-1.492546234E0,-9.302255859E0,-1.432371368E0,9.529498731E0
7.421798042E0,-1.401236115E0,-9.363478546E0,-1.386117554E0,9.568673628E0
7.431853042E0,-1.353934479E0,-9.451495514E0,-1.419198761E0,9.652876833E0
7.441909042E0,-1.334325256E0,-9.489516449E0,-1.467099152E0,9.694520424E0
7.451965042E0,-1.336420898E0,-9.549092560E0,-1.500030670E0,9.758139246E0
7.462021042E0,-1.336869965E0,-9.607770538E0,-1.456770630E0,9.809110902E0
7.472076042E0,-1.343007202E0,-9.623637543E0,-1.398242340E0,9.816982711E0
7.482132042E0,-1.428479462E0,-9.612261200E0,-1.359772339E0,9.812497122E0
7.492188042E0,-1.581311646E0,-9.560468903E0,-1.279688873E0,9.774493121E0
7.502244042E0,-1.742676086E0,-9.486822052E0,-1.213676147E0,9.721611100E0
7.512299042E0,-1.803150330E0,-9.447004852E0,-1.188528442E0,9.690709553E0
7.522355042E0,-1.903142395E0,-9.433532867E0,-1.265468445E0,9.706436201E0
7.532411042E0,-2.066602478E0,-9.408235474E0,-1.391805725E0,9.732567169E0
7.542467042E0,-2.237097931E0,-9.375902710E0,-1.454974365E0,9.748287500E0
7.552522042E0,-2.409389648E0,-9.350156250E0,-1.452429657E0,9.764227173E0
7.562578042E0,-2.488425293E0,-9.303004303E0,-1.443448334E0,9.737643072E0
7.572634042E0,-2.431393890E0,-9.177415466E0,-1.452130280E0,9.604442370E0
7.582690042E0,-2.292632446E0,-9.095236359E0,-1.422192535E0,9.486944691E0
7.592745042E0,-2.082170105E0,-8.992549896E0,-1.382674713E0,9.333443917E0
7.602801042E0,-1.808688812E0,-8.871152344E0,-1.378782806E0,9.158042430E0
7.612857042E0,-1.554217987E0,-8.775950317E0,-1.375789032E0,9.018075903E0
7.622913042E0,-1.367406464E0,-8.775351563E0,-1.346450043E0,8.982734728E0
7.632968042E0,-1.231040039E0,-8.871002655E0,-1.330882416E0,9.054357829E0
7.643024042E0,-1.108295288E0,-9.064999237E0,-1.386865997E0,9.237203414E0
7.653080042E0,-1.124162292E0,-9.297914886E0,-1.426084442E0,9.473577937E0
7.663136042E0,-1.163530426E0,-9.518406372E0,-1.481768646E0,9.703066589E0
7.673191042E0,-1.170565796E0,-9.710007935E0,-1.628463593E0,9.914956986E0
7.683247042E0,-1.127305756E0,-9.899214478E0,-1.892065430E0,1.014126112E1
7.693303042E0,-1.060394897E0,-1.011132339E1,-2.221230927E0,1.040659238E1
7.703359042E0,-9.611512756E-1,-1.035007690E1,-2.583178253E0,1.071077558E1
7.713414042E0,-8.538244629E-1,-1.060993652E1,-2.813998260E0,1.100992077E1
7.723470042E0,-7.583230591E-1,-1.084539688E1,-2.756517792E0,1.121588506E1
7.733526042E0,-6.788383484E-1,-1.103535187E1,-2.525697784E0,1.134103001E1
7.743582042E0,-6.162684631E-1,-1.120734421E1,-2.334545288E0,1.146448659E1
7.753637042E0,-4.363426208E-1,-1.137065460E1,-2.314337311E0,1.161199114E1
7.763693042E0,3.951782227E-2,-1.150552414E1,-2.370620270E0,1.174727576E1
7.773749042E0,5.900729370E-1,-1.156764496E1,-2.207459564E0,1.179116083E1
7.783805042E0,1.111738129E0,-1.154998169E1,-1.761836243E0,1.173635828E1
7.793860042E0,1.514849854E0,-1.154848480E1,-1.218615875E0,1.171099039E1
7.803916042E0,1.674717407E0,-1.172796158E1,-5.448669434E-1,1.185945366E1
7.813972042E0,1.615590363E0,-1.203961349E1,3.432362366E-1,1.215237575E1
7.824028042E0,1.249152374E0,-1.259031830E1,1.122815094E0,1.270185853E1
7.834084042E0,9.963281250E-1,-1.318383408E1,1.781445465E0,1.334090322E1
7.844139042E0,1.079704742E0,-1.355206833E1,2.519710236E0,1.382654179E1
7.854195042E0,1.169967041E0,-1.360924942E1,2.867586823E0,1.395720412E1
7.864251042E0,1.477876740E0,-1.311512695E1,2.709216156E0,1.347332649E1
7.874307042E0,1.554816742E0,-1.213915649E1,1.989512787E0,1.239898127E1
7.884362042E0,1.793121185E0,-1.077938416E1,1.643881531E0,1.105046392E1
7.894418042E0,2.146536255E0,-9.775421906E0,1.858684845E0,1.017944992E1
7.904474042E0,2.542911987E0,-8.851543121E0,2.145039368E0,9.456077987E0
7.914530042E0,3.076103210E0,-8.125702515E0,2.764002228E0,9.117519434E0
7.924585042E0,3.410358124E0,-7.539970551E0,3.169808350E0,8.861680620E0
7.934641042E0,3.432661743E0,-7.429649963E0,2.983445892E0,8.711131649E0
7.944697042E0,3.322341156E0,-7.457641754E0,2.407144318E0,8.511681095E0
7.954753042E0,2.890189819E0,-7.672145691E0,1.820364532E0,8.398139301E0
7.964808042E0,2.160756683E0,-7.983647919E0,1.411414948E0,8.390446692E0
7.974864042E0,1.440155182E0,-8.274942169E0,1.008153534E0,8.459615145E0
7.984920042E0,7.658074951E-1,-8.585097198E0,6.396199036E-1,8.642885435E0
7.994976042E0,1.630110168E-1,-8.838969269E0,3.598516846E-1,8.847793146E0
8.005031042E0,-3.159928894E-1,-9.047485657E0,2.028282166E-1,9.055274016E0
8.015087042E0,-7.089257812E-1,-9.242230682E0,8.666976929E-2,9.269785078E0
8.025143042E0,-9.970765686E-1,-9.415869598E0,3.248245239E-2,9.468569960E0
8.035199042E0,-1.158291321E0,-9.533973999E0,2.305206299E-2,9.604104872E0
8.045254042E0,-1.194216614E0,-9.546996918E0,6.212081909E-2,9.621598748E0
8.055310042E0,-1.195264435E0,-9.508676605E0,1.263372803E-1,9.584338734E0
8.065366042E0,-1.145118713E0,-9.388476563E0,1.667532349E-1,9.459524072E0
8.075422042E0,-9.397457886E-1,-9.256002045E0,2.917433167E-1,9.308158258E0
8.085477042E0,-6.779402161E-1,-9.278006287E0,6.580316162E-1,9.325985696E0
8.095533042E0,-3.652404785E-1,-9.410181427E0,1.126856689E0,9.484446272E0
8.105589042E0,1.302291870E-2,-9.577832794E0,1.532662811E0,9.699696177E0
8.115645042E0,4.029620361E-1,-9.726324005E0,1.791324921E0,9.898111033E0
8.125701042E0,7.439529419E-1,-9.812095642E0,1.813478851E0,1.000596784E1
8.135756042E0,1.001417542E0,-9.881700897E0,1.623972931E0,1.006420080E1
8.145812042E0,1.160985718E0,-9.977202301E0,1.396895142E0,1.014119173E1
8.155868042E0,1.251996460E0,-1.006312363E1,1.216520233E0,1.021341636E1
8.165924042E0,1.274898834E0,-1.008542725E1,1.106948090E0,1.022577840E1
8.175979042E0,1.247206421E0,-1.006626709E1,1.029259644E0,1.019532405E1
8.186035583E0,1.101858673E0,-1.000983444E1,1.072220306E0,1.012721751E1
8.196091583E0,9.818083191E-1,-9.915680237E0,1.272653503E0,1.004511369E1
8.206147583E0,1.037342834E0,-9.837991791E0,1.329834595E0,9.981514048E0
8.216202583E0,9.297166443E-1,-9.769284668E0,1.227597198E0,9.889908536E0
8.226258583E0,7.399113464E-1,-9.698930969E0,1.109642487E0,9.790201080E0
8.236314583E0,5.188211060E-1,-9.632918243E0,1.098266144E0,9.709195525E0
8.246370583E0,3.192860413E-1,-9.596843262E0,1.190025330E0,9.675613906E0
8.256425583E0,1.827699280E-1,-9.595945129E0,1.254690857E0,9.679350026E0
8.266481583E0,1.079255676E-1,-9.633367310E0,1.269510040E0,9.717256269E0
8.276537583E0,6.496490479E-2,-9.655970306E0,1.223854980E0,9.733437420E0
8.286593583E0,1.329235840E-1,-9.649833069E0,1.151705017E0,9.719226892E0
8.296648583E0,2.421963501E-1,-9.647887115E0,1.109193420E0,9.714458035E0
8.306704583E0,3.192860413E-1,-9.713750153E0,1.181044006E0,9.790492865E0
8.316760583E0,4.520599365E-1,-9.818083191E0,1.249451752E0,9.907585246E0
8.326816583E0,5.918692017E-1,-9.908495178E0,1.191372528E0,9.997397379E0
8.336871583E0,7.541317749E-1,-9.997859344E0,1.046922913E0,1.008077149E1
8.346927583E0,9.107061768E-1,-1.006686584E1,9.413923645E-1,1.015171873E1
8.356983583E0,1.096170502E0,-1.011686188E1,8.270301819E-1,1.020962599E1
8.367039583E0,1.290466461E0,-1.018931122E1,7.461982727E-1,1.029777542E1
8.377094583E0,1.516795807E0,-1.030337402E1,7.367678833E-1,1.044045079E1
8.387150583E0,1.816023560E0,-1.043839325E1,7.518864441E-1,1.062183263E1
8.397206583E0,2.152972870E0,-1.048539551E1,9.129515076E-1,1.074301129E1
8.407262583E0,2.499801636E0,-1.047686325E1,1.142124939E0,1.083134900E1
8.417317583E0,2.874771881E0,-1.036863831E1,1.260828094E0,1.083340487E1
8.427373583E0,3.115022278E0,-1.016940262E1,1.324894867E0,1.071799701E1
8.437429583E0,3.088826752E0,-1.003902374E1,1.165775757E0,1.056796487E1
8.447485583E0,2.921025696E0,-9.855355682E0,8.548722839E-1,1.031461261E1
8.457541583E0,2.681224365E0,-9.678573303E0,5.742059326E-1,1.005949590E1
8.467596583E0,2.471360779E0,-9.555080109E0,4.167333984E-1,9.878301813E0
8.477652583E0,2.353555756E0,-9.448651428E0,3.513194275E-1,9.743698674E0
8.487708583E0,2.244732056E0,-9.306147766E0,3.523672485E-1,9.579528742E0
8.497764583E0,2.143841858E0,-9.142238617E0,3.909869385E-1,9.398375159E0
8.507819583E0,2.029329987E0,-9.005273438E0,3.894900513E-1,9.239309086E0
8.517875583E0,1.882784729E0,-8.916508026E0,3.450325012E-1,9.119651372E0
8.527931583E0,1.767674103E0,-8.896150360E0,2.600093079E-1,9.073795667E0
8.537987583E0,1.745071106E0,-8.982820129E0,2.043251038E-1,9.153036621E0
8.548042583E0,1.898352356E0,-9.092392273E0,1.752854919E-1,9.290105700E0
8.558098583E0,2.186054077E0,-9.250164185E0,1.781295776E-1,9.506634526E0
8.568154583E0,2.512974243E0,-9.490863647E0,2.368075562E-1,9.820774417E0
8.578210583E0,2.768043823E0,-9.706415405E0,2.785707092E-1,1.009723567E1
8.588265583E0,2.663710785E0,-9.852062531E0,4.575984192E-1,1.021606028E1
8.598321583E0,2.608325958E0,-9.738897858E0,4.968168640E-1,1.009437085E1
8.608377583E0,2.448907471E0,-9.405391388E0,3.103047180E-1,9.723930480E0
8.618433583E0,2.229014740E0,-8.982520752E0,1.065783691E-1,9.255568309E0
8.628488583E0,1.965412903E0,-8.545878754E0,-4.385879517E-2,8.769082914E0
8.638544583E0,1.640438690E0,-8.083490295E0,-1.282832336E-1,8.249261242E0
8.648600583E0,1.312620392E0,-7.688162384E0,-8.637039185E-2,7.799889293E0
8.658656583E0,6.128256226E-1,-7.557334442E0,7.170089722E-2,7.582479814E0
8.668711583E0,-2.281256104E-1,-7.679330750E0,3.411405945E-1,7.690288614E0
8.678767583E0,-1.604663086E0,-8.400231628E0,6.114784241E-1,8.573957132E0
8.688823583E0,-2.930605774E0,-9.532327423E0,5.430706787E-1,9.987424196E0
8.698879583E0,-3.925437012E0,-1.113953522E1,-9.325607300E-2,1.181130803E1
8.708934583E0,-4.791985016E0,-1.285646484E1,-1.254990234E0,1.377776503E1
8.718990583E0,-4.369413757E0,-1.415052383E1,-2.662812653E0,1.504724801E1
8.729046583E0,-3.624712372E0,-1.503368729E1,-3.626358948E0,1.588397848E1
8.739102583E0,-3.052003326E0,-1.502440659E1,-4.354295197E0,1.593760974E1
8.749157583E0,-2.882256317E0,-1.439406738E1,-4.441863098E0,1.533710289E1
8.759213583E0,-2.800825653E0,-1.325792999E1,-4.037703552E0,1.413932042E1
8.769269583E0,-2.614463196E0,-1.176553345E1,-3.095113678E0,1.244358967E1
8.779325583E0,-2.570604401E0,-1.040800644E1,-1.695075073E0,1.085393406E1
8.789381583E0,-2.213896179E0,-9.284293213E0,-2.679428101E-2,9.544640103E0
8.799436583E0,-1.598675537E0,-8.362360382E0,1.254092102E0,8.605671481E0
8.809492583E0,-5.929170227E-1,-7.924820251E0,1.983824615E0,8.190841637E0
8.819548583E0,-5.703140259E-2,-7.573500824E0,2.355950775E0,7.931687801E0
8.829604583E0,4.959187317E-1,-7.300019531E0,2.545007629E0,7.746824148E0
8.839659583E0,1.158740387E0,-7.314988403E0,2.430795135E0,7.794902156E0
8.849715583E0,1.342258759E0,-7.395071869E0,2.084415436E0,7.799585517E0
8.859771583E0,1.007704468E0,-7.618108063E0,1.731000366E0,7.877017267E0
8.869827583E0,8.557704163E-1,-8.105195160E0,1.353335724E0,8.261842964E0
8.879882583E0,8.192463684E-1,-8.552015991E0,9.999206543E-1,8.649160852E0
8.889938583E0,7.652087402E-1,-8.928632812E0,5.869294739E-1,8.980563152E0
8.899994583E0,7.511380005E-1,-9.166488190E0,4.460723877E-2,9.197320470E0
8.910050583E0,3.818559265E-1,-9.492061157E0,-3.243754578E-1,9.505275293E0
8.920105583E0,-9.071136475E-2,-9.793384552E0,-3.706292725E-1,9.800815047E0
8.930161583E0,-3.698808289E-1,-9.855205994E0,-3.390449524E-1,9.867970839E0
8.940217583E0,-1.026864624E-1,-9.945917358E0,-2.299218750E-1,9.949104516E0
8.950273583E0,1.905537415E-1,-9.967322845E0,-4.340972900E-2,9.969238679E0
8.960328583E0,2.960842896E-1,-9.919422455E0,2.680924988E-1,9.927460971E0
8.970384583E0,8.547225952E-2,-9.757459259E0,8.162525940E-1,9.791914266E0
8.980440583E0,8.352630615E-2,-9.598040771E0,1.188977509E0,9.671764617E0
8.990496583E0,1.188528442E-1,-9.533524933E0,1.258433075E0,9.616957806E0
9.000551583E0,1.689985657E-1,-9.502239990E0,1.294657745E0,9.591520423E0
9.010607583E0,1.315763855E-1,-9.483528900E0,1.214424591E0,9.561875330E0
9.020663583E0,8.427474976E-2,-9.444759521E0,1.131796417E0,9.512704546E0
9.030719583E0,5.688171387E-2,-9.463021545E0,9.759704590E-1,9.513386917E0
9.040775583E0,8.981323242E-4,-9.483379211E0,8.683442688E-1,9.523051183E0
9.050830583E0,-1.222956848E-1,-9.561067657E0,8.485853577E-1,9.599430613E0
9.060886583E0,-3.242257690E-1,-9.662107544E0,8.598120117E-1,9.705705602E0
9.070942583E0,-5.655239868E-1,-9.657317505E0,9.762698364E-1,9.722998589E0
9.080998583E0,-8.277786255E-1,-9.605076141E0,1.196012878E0,9.714584496E0
9.091053583E0,-1.142124939E0,-9.563762054E0,1.353784790E0,9.726393333E0
9.101109583E0,-1.513053589E0,-9.564510498E0,1.372944946E0,9.780294988E0
9.111165583E0,-1.778900757E0,-9.560768280E0,1.366208954E0,9.820351568E0
9.121221583E0,-1.865869904E0,-9.541907501E0,1.474284210E0,9.833767497E0
9.131276583E0,-1.696272583E0,-9.518256683E0,1.618733826E0,9.802798078E0
9.141332583E0,-1.429377594E0,-9.572294312E0,1.633702698E0,9.815341217E0
9.151388583E0,-1.202898560E0,-9.657467194E0,1.599274292E0,9.862622156E0
9.161444583E0,-1.037193146E0,-9.748777313E0,1.487456818E0,9.915994983E0
9.171499583E0,-9.931846619E-1,-9.919123077E0,1.318158875E0,1.005549408E1
9.181555208E0,-1.035546570E0,-1.010982651E1,1.159788208E0,1.022868796E1
9.191611208E0,-1.174158325E0,-1.033346146E1,1.114582214E0,1.045951084E1
9.201667208E0,-1.369502106E0,-1.045934967E1,1.167721710E0,1.061306297E1
9.211722208E0,-1.525777130E0,-1.040650955E1,1.342109070E0,1.060305115E1
9.221778208E0,-1.712738342E0,-1.030651749E1,1.549278259E0,1.056210388E1
9.231834208E0,-2.035616913E0,-1.044228516E1,1.429377594E0,1.073443877E1
9.241890208E0,-2.417772217E0,-1.100721039E1,1.154100037E0,1.132855904E1
9.251945208E0,-2.653382263E0,-1.229004272E1,9.645941162E-1,1.261015580E1
9.262001208E0,-2.536026306E0,-1.394694717E1,6.800358582E-1,1.419194186E1
9.272057208E0,-1.663341064E0,-1.516002457E1,1.796264648E-2,1.525101213E1
9.282113208E0,-1.832189941E-1,-1.519594986E1,-1.076261902E0,1.523511736E1
9.292169208E0,1.199455719E0,-1.390892624E1,-2.010469208E0,1.410457052E1
9.302224208E0,2.051483917E0,-1.207329346E1,-2.408042450E0,1.248085212E1
9.312280208E0,2.039808197E0,-1.041878403E1,-2.214494934E0,1.084508487E1
9.322336208E0,1.574875031E0,-9.115444336E0,-1.381028137E0,9.353009971E0
9.332392208E0,9.244775391E-1,-8.463849335E0,-5.399272156E-1,8.531290974E0
9.342447208E0,3.426374817E-1,-8.288863220E0,-1.688488770E-1,8.297660144E0
9.352503208E0,-3.200344849E-1,-8.221054230E0,-4.035607910E-1,8.237172818E0
9.362559208E0,-6.610253906E-1,-8.102351074E0,-1.154399414E0,8.210827334E0
9.372615208E0,-5.481600952E-1,-7.975265350E0,-2.018702087E0,8.245028503E0
9.382670208E0,2.245330811E-3,-7.812254333E0,-2.611918488E0,8.237320013E0
9.392726208E0,9.370513916E-1,-7.637567596E0,-2.775378571E0,8.180050752E0
9.402782208E0,2.082469482E0,-7.596852264E0,-2.337838440E0,8.216710537E0
9.412838208E0,3.078797607E0,-7.765551453E0,-1.581311646E0,8.501960397E0
9.422893208E0,4.003574524E0,-8.156388702E0,-6.734495544E-1,9.110917623E0
9.432949208E0,4.798870697E0,-8.608748016E0,3.245251465E-1,9.861288909E0
9.443005208E0,5.333259430E0,-9.127569122E0,1.165476379E0,1.063553052E1
9.453061208E0,5.522166595E0,-9.597591705E0,1.850152588E0,1.122635983E1
9.463116208E0,5.298681335E0,-9.779313812E0,2.599494324E0,1.142227531E1
9.473172208E0,4.558171234E0,-9.639504547E0,2.086810455E0,1.086516225E1
9.483228208E0,3.661236420E0,-9.540859680E0,6.809339905E-1,1.024189078E1
9.493284208E0,2.717449036E0,-9.581125946E0,-4.773573303E-1,9.970475098E0
9.503340208E0,1.747615814E0,-9.723629608E0,-1.263223114E0,9.959862771E0
9.513395208E0,9.119036865E-1,-9.864786072E0,-1.787582703E0,1.006682793E1
9.523451208E0,1.839674377E-1,-1.002734802E1,-2.106419678E0,1.024785618E1
9.533507208E0,-1.519340515E-1,-1.015847534E1,-2.230361938E0,1.040154890E1
9.543563208E0,-2.579136658E-1,-1.026490402E1,-2.032174072E0,1.046730651E1
9.553618208E0,-3.234773254E-1,-1.025756927E1,-1.485959930E0,1.036968861E1
9.563674208E0,-4.462220764E-1,-1.009021729E1,-8.979826355E-1,1.013991971E1
9.573730208E0,-7.131170654E-1,-9.801318054E0,-4.055067444E-1,9.835588811E0
9.583786208E0,-7.384144592E-1,-9.357341309E0,-5.673202515E-2,9.386602730E0
9.593841208E0,-4.664300537E-1,-8.841663666E0,4.640350342E-2,8.854079662E0
9.603897208E0,-4.544549561E-1,-8.740773468E0,8.187973022E-2,8.752962608E0
9.613953208E0,-3.641926575E-1,-8.750054169E0,1.556762695E-1,8.759013606E0
9.624009208E0,-2.227368164E-1,-8.902137909E0,4.011657715E-2,8.905014339E0
9.634064208E0,-6.197113037E-2,-9.142388306E0,-1.136137390E-1,9.143304240E0
9.644120208E0,1.101708984E-1,-9.388177185E0,-9.535171509E-2,9.389307772E0
9.654176208E0,2.079176331E-1,-9.554930420E0,4.116439819E-2,9.557280972E0
9.664232208E0,8.217910767E-2,-9.582024078E0,1.868115234E-1,9.584197274E0
9.674287208E0,-2.700384521E-1,-9.524094543E0,2.302212524E-1,9.530702989E0
9.684343208E0,-5.739065552E-1,-9.353000336E0,8.726852417E-2,9.370997802E0
9.694399208E0,-8.764274597E-1,-9.201665039E0,-8.846603394E-2,9.243732516E0
9.704455208E0,-1.132245483E0,-9.152866516E0,-2.152523804E-1,9.225143841E0
9.714511208E0,-1.331032104E0,-9.206305389E0,-2.643502808E-1,9.305782420E0
9.724566208E0,-1.406026154E0,-9.277706909E0,-2.112107849E-1,9.386019659E0
9.734622208E0,-1.423839111E0,-9.316176910E0,-3.817062378E-2,9.424432452E0
9.744678208E0,-1.384920044E0,-9.292825470E0,1.107696533E-1,9.396109762E0
9.754734208E0,-1.308728485E0,-9.235943756E0,1.541793823E-1,9.329480082E0
9.764789208E0,-1.096918945E0,-9.234895935E0,1.676513672E-2,9.299828771E0
9.774845208E0,-7.348219299E-1,-9.180109863E0,-2.993774414E-1,9.214337047E0
9.784901208E0,-5.343887329E-2,-9.045988770E0,-7.812254333E-1,9.079817273E0
9.794957208E0,1.252894592E0,-9.059011688E0,-1.353036346E0,9.244790153E0
9.805012208E0,3.027604065E0,-9.285640411E0,-1.696571960E0,9.913014710E0
9.815068208E0,4.678670654E0,-9.683363342E0,-1.611997833E0,1.087455846E1
9.825124208E0,6.360423431E0,-1.030082932E1,-1.231489105E0,1.216875656E1
9.835180208E0,7.592211914E0,-1.040441391E1,-4.234693909E-1,1.288692504E1
9.845235208E0,9.351653137E0,-1.081770447E1,3.239263916E-1,1.430318407E1
9.855291208E0,8.554411011E0,-9.997859344E0,1.073417816E0,1.320179401E1
9.865347208E0,5.746400299E0,-8.779842224E0,3.255729675E0,1.098665197E1
9.875403208E0,1.168619843E0,-9.108558655E0,5.300028534E0,1.060291543E1
9.885458208E0,-2.990032196E0,-1.019095779E1,3.739074554E0,1.125951117E1
9.895514208E0,-6.075565796E0,-1.126886627E1,1.523681488E0,1.289268987E1
9.905570208E0,-6.942113800E0,-1.401191208E1,-6.512956238E-1,1.565090445E1
9.915626208E0,-7.180418243E0,-1.542871582E1,-3.672014008E0,1.740940450E1
9.925682208E0,-8.133486328E0,-1.667816757E1,-5.365292816E0,1.931582875E1
9.935737208E0,-7.524851990E0,-1.706122101E1,-6.113886108E0,1.962366589E1
9.945793208E0,-5.963598633E0,-1.576386887E1,-5.577102356E0,1.775297555E1
9.955849208E0,-4.957241364E0,-1.391132126E1,-4.168830872E0,1.534530065E1
9.965905208E0,-3.794908447E0,-1.225486588E1,-2.294728088E0,1.303260698E1
9.975960208E0,-2.777923279E0,-1.115091156E1,-3.314108276E-1,1.149650032E1
9.986016208E0,-2.101929016E0,-1.034124527E1,1.581461334E0,1.067054259E1
9.996072208E0,-1.000519409E0,-9.707612915E0,2.784210205E0,1.014842914E1
1.000612821E1,2.808160400E-1,-9.002579041E0,3.181035004E0,9.552186699E0
1.001618321E1,1.152752838E0,-8.226293335E0,3.861519928E0,9.160353557E0
1.002623921E1,1.923200684E0,-7.778574371E0,3.830983429E0,8.881517559E0
1.003629521E1,2.383343811E0,-7.502847748E0,2.731070709E0,8.332574588E0
1.004635121E1,2.346819763E0,-7.288194122E0,1.650318146E0,7.832553003E0
1.005640621E1,1.802102509E0,-7.234306183E0,6.418652344E-1,7.482964010E0
1.006646221E1,1.086740112E0,-7.289990387E0,8.262817383E-2,7.371010197E0
1.007651821E1,4.273612976E-1,-7.395071869E0,3.248245239E-2,7.407481403E0
1.008657421E1,-1.676513672E-1,-7.494764557E0,3.414399719E-1,7.504410969E0
1.009662921E1,-4.968168640E-1,-7.596103821E0,7.707472229E-1,7.651252939E0
1.010668521E1,-5.436694336E-1,-7.896529083E0,9.268725586E-1,7.969306165E0
1.011674121E1,-8.970845032E-1,-8.367749176E0,1.048719177E0,8.480789986E0
1.012679721E1,-1.559457092E0,-9.029373322E0,9.346563721E-1,9.210595612E0
1.013685321E1,-1.887724457E0,-9.608219604E0,8.129594421E-1,9.825593654E0
1.014690821E1,-2.018552399E0,-9.716743927E0,8.333171082E-1,9.959120630E0
1.015696421E1,-1.746268616E0,-9.433233490E0,9.142987061E-1,9.636975162E0
1.016702021E1,-1.407223663E0,-9.139394531E0,9.849517822E-1,9.299405403E0
1.017707621E1,-9.828561401E-1,-9.047785034E0,9.734257507E-1,9.152921824E0
1.018713167E1,-2.814147949E-1,-8.799900513E0,1.178050232E0,8.882862470E0
1.019718767E1,3.906875610E-2,-8.636739807E0,1.385967865E0,8.747325751E0
1.020724367E1,-6.346801758E-2,-8.607849884E0,1.641636200E0,8.763222993E0
1.021729967E1,-3.353027344E-1,-8.579409027E0,1.826352081E0,8.778054973E0
1.022735467E1,-5.257067871E-1,-8.664432220E0,1.778152313E0,8.860619559E0
1.023741067E1,-7.235952759E-1,-9.035959625E0,1.613195343E0,9.207309905E0
1.024746667E1,-1.181044006E0,-9.896220703E0,1.832489319E0,1.013351204E1
1.025752267E1,-1.936822357E0,-1.144834305E1,2.032024384E0,1.178749178E1
1.026757767E1,-2.945424957E0,-1.369996078E1,1.372495880E0,1.408006387E1
1.027763367E1,-3.243455200E0,-1.573153610E1,-5.448669434E-2,1.606250910E1
1.028768967E1,-1.568588104E0,-1.624901001E1,-1.861528931E0,1.643034038E1
1.029774567E1,1.152154083E0,-1.503219040E1,-4.079616394E0,1.561849792E1
1.030780167E1,2.929707642E0,-1.283206558E1,-5.858068085E0,1.440701411E1
1.031785667E1,2.905158691E0,-1.093326416E1,-5.856870575E0,1.273888320E1
1.032791267E1,1.330133972E0,-1.004890320E1,-4.373605042E0,1.103984298E1
1.033796867E1,-3.399430847E-1,-9.657018127E0,-2.684517517E0,1.002896778E1
1.034802467E1,-1.299747162E0,-9.072034607E0,-1.365759888E0,9.265875817E0
1.035807967E1,-1.694626007E0,-8.311316528E0,-8.110134888E-1,8.521002442E0
1.036813567E1,-1.108295288E0,-7.414830780E0,-3.978726196E-1,7.507751765E0
1.037819167E1,-9.460327148E-2,-6.690337372E0,-2.856060791E-1,6.697098981E0
1.038824767E1,1.004710693E0,-6.322851562E0,-1.529818726E-1,6.404006473E0
1.039830267E1,2.186802521E0,-6.866820374E0,9.443861389E-1,7.268231730E0
1.040835867E1,4.119134216E0,-8.128696289E0,2.429447937E0,9.431075619E0
1.041841467E1,6.198609924E0,-9.405990143E0,3.613635406E0,1.183020610E1
1.042847067E1,7.906857605E0,-1.043135788E1,4.001628571E0,1.368739039E1
1.043852567E1,7.900870056E0,-1.054347473E1,3.807931366E0,1.371455243E1
1.044858167E1,6.471642151E0,-1.035262161E1,2.546055450E0,1.247162077E1
1.045863767E1,3.984564056E0,-1.043405228E1,6.779402161E-1,1.118953978E1
1.046869367E1,1.433119812E0,-1.070573730E1,-1.281634827E0,1.087700471E1
1.047874867E1,-5.239105225E-1,-1.070573730E1,-2.427651672E0,1.099003122E1
1.048880467E1,-1.845811615E0,-1.056203613E1,-2.308649139E0,1.096783883E1
1.049886067E1,-2.218536530E0,-1.030801437E1,-1.500030670E0,1.065021862E1
1.050891667E1,-2.553390198E0,-9.939331055E0,-4.891827393E-1,1.027372391E1
1.051897267E1,-2.376607819E0,-9.422904968E0,5.023553467E-1,9.730969307E0
1.052902767E1,-1.830842743E0,-8.933422852E0,1.403182068E0,9.226426660E0
1.053908367E1,-1.391206970E0,-8.721463623E0,1.884730682E0,9.030592135E0
1.054913967E1,-1.048120422E0,-8.670719147E0,1.701212311E0,8.897980123E0
1.055919567E1,-9.494755554E-1,-8.828191681E0,1.019380188E0,8.937427379E0
1.056925067E1,-9.035211182E-1,-9.045090637E0,3.658392334E-1,9.097464119E0
1.057930667E1,-8.575666809E-1,-9.261540527E0,1.493893433E-1,9.302358342E0
1.058936267E1,-8.707392883E-1,-9.581275635E0,2.157014465E-1,9.623178103E0
1.059941867E1,-7.331753540E-1,-9.895322571E0,5.843847656E-1,9.939640860E0
1.060947367E1,-5.301974487E-1,-1.016416351E1,9.084608459E-1,1.021844559E1
1.061952967E1,-4.263134766E-1,-1.025936554E1,1.121467896E0,1.032927949E1
1.062958567E1,-4.270619202E-1,-1.021326141E1,1.212927704E0,1.029389548E1
1.063964167E1,-3.736230469E-1,-1.010683273E1,1.106049957E0,1.017403600E1
1.064969667E1,-3.135978699E-1,-1.001851639E1,9.273216248E-1,1.006622768E1
1.065975267E1,-3.317102051E-1,-9.914931793E0,7.842192078E-1,9.951427229E0
1.066980867E1,-1.987866211E-1,-9.751172333E0,6.759942627E-1,9.776596863E0
1.067986467E1,4.415817261E-2,-9.584568787E0,7.342231750E-1,9.612751554E0
1.068992067E1,2.835104370E-1,-9.480086060E0,8.226892090E-1,9.519938414E0
1.069997567E1,4.513114929E-1,-9.458081818E0,9.794132996E-1,9.519361541E0
1.071003167E1,5.456153870E-1,-9.466464386E0,1.103205872E0,9.546135727E0
1.072008767E1,6.698570251E-1,-9.516460419E0,1.166973267E0,9.611116165E0
1.073014367E1,7.979905701E-1,-9.555678864E0,1.211430817E0,9.665161774E0
1.074019867E1,8.078700256E-1,-9.567354584E0,1.259630585E0,9.683676829E0
1.075025467E1,8.152047729E-1,-9.512568512E0,1.335223389E0,9.640349579E0
1.076031067E1,7.735913086E-1,-9.390572205E0,1.443747711E0,9.532350041E0
1.077036667E1,7.494914246E-1,-9.293424225E0,1.508413239E0,9.444828305E0
1.078042267E1,6.831793213E-1,-9.277706909E0,1.512604523E0,9.424996123E0
1.079047767E1,6.258485413E-1,-9.305099945E0,1.461410980E0,9.439930796E0
1.080053367E1,6.080355835E-1,-9.355545044E0,1.454525299E0,9.487442974E0
1.081058967E1,6.002517700E-1,-9.433083801E0,1.562151489E0,9.580380445E0
1.082064567E1,5.760021973E-1,-9.504036255E0,1.648521881E0,9.663131380E0
1.083070067E1,4.860392761E-1,-9.503886566E0,1.691931610E0,9.665543265E0
1.084075667E1,4.459226990E-1,-9.496851196E0,1.550475769E0,9.632912582E0
1.085081267E1,4.366419983E-1,-9.513915710E0,1.313518524E0,9.614082343E0
1.086086867E1,5.059478760E-1,-9.508676605E0,1.008303223E0,9.575363671E0
1.087092367E1,5.617817688E-1,-9.533225555E0,7.487429810E-1,9.579071160E0
1.088097967E1,5.484594727E-1,-9.610015869E0,4.646337891E-1,9.636861385E0
1.089103567E1,4.593946838E-1,-9.752220154E0,2.019300842E-1,9.765122486E0
1.090109167E1,2.258802795E-1,-1.009740234E1,1.287322998E-2,1.009993672E1
1.091114667E1,-9.714797974E-2,-1.066382446E1,-1.463955688E-1,1.066527175E1
1.092120267E1,-3.168910217E-1,-1.126527374E1,-5.111869812E-1,1.128131750E1
1.093125867E1,-2.668949890E-1,-1.184292252E1,-1.031654663E0,1.189076776E1
1.094131467E1,1.092727661E-2,-1.245904129E1,-1.637145538E0,1.256614797E1
1.095137067E1,3.387455750E-1,-1.321377182E1,-2.266736298E0,1.341106289E1
1.096142567E1,5.622308350E-1,-1.398451904E1,-2.674937439E0,1.424914617E1
1.097148167E1,7.797285461E-1,-1.410831161E1,-2.808310089E0,1.440621528E1
1.098153767E1,9.334588623E-1,-1.329160995E1,-2.735860748E0,1.360232240E1
1.099159367E1,9.797126770E-1,-1.195009964E1,-2.549947357E0,1.225834205E1
1.100164867E1,1.141675873E0,-1.051742889E1,-2.286345520E0,1.082345186E1
1.101170467E1,1.311722260E0,-9.071435852E0,-1.929637299E0,9.366699729E0
1.102176067E1,1.228944397E0,-7.653733978E0,-1.160985718E0,7.838229135E0
1.103181667E1,9.048683167E-1,-6.398444366E0,1.047821045E-3,6.462110962E0
1.104187167E1,4.659809875E-1,-5.418282623E0,1.305884399E0,5.592875730E0
1.105192767E1,-7.499404907E-1,-5.182073822E0,2.287093964E0,5.713763964E0
1.106198367E1,-2.478695526E0,-5.753585358E0,2.040856018E0,6.588836716E0
1.107203967E1,-4.682263184E0,-7.000642090E0,1.374591522E0,8.533585415E0
1.108209467E1,-5.506598969E0,-8.661887512E0,4.352947998E-1,1.027328618E1
1.109215067E1,-5.285508728E0,-9.961035919E0,-6.746470642E-1,1.129663613E1
1.110220667E1,-5.262606354E0,-1.140927429E1,-1.881138153E0,1.270453644E1
1.111226267E1,-4.990771637E0,-1.267040176E1,-2.927312622E0,1.392896412E1
1.112231867E1,-3.721261597E0,-1.352347778E1,-3.764371948E0,1.452249067E1
1.113237367E1,-1.972298584E0,-1.388542511E1,-4.005520477E0,1.458558146E1
1.114242967E1,-7.229965210E-1,-1.339579330E1,-3.394640808E0,1.383812084E1
1.115248567E1,-4.617897034E-1,-1.253029312E1,-2.645598450E0,1.281486194E1
1.116254167E1,-1.368154907E-1,-1.142963196E1,-2.467768250E0,1.169380542E1
1.117259667E1,4.370910645E-1,-1.017748581E1,-1.635498962E0,1.031732150E1
1.118265267E1,6.667135620E-1,-9.196875000E0,-6.400689697E-1,9.243197771E0
1.119270846E1,6.686595154E-1,-8.345744934E0,4.237687683E-1,8.383206071E0
1.120276446E1,2.936892700E-1,-7.696245575E0,1.436712341E0,7.834704314E0
1.121281946E1,-1.866618347E-1,-7.400310974E0,1.892664185E0,7.640786797E0
1.122287546E1,-5.358856201E-1,-7.261998596E0,2.100881195E0,7.578753117E0
1.123293146E1,-5.818400574E-1,-7.284152527E0,2.118843842E0,7.608345097E0
1.124298746E1,-6.339317322E-1,-7.652686157E0,1.746118927E0,7.874922614E0
1.125304346E1,-7.496411133E-1,-8.230484619E0,1.232836304E0,8.355999295E0
1.126309846E1,-9.316625977E-1,-8.888965302E0,7.119195557E-1,8.965965022E0
1.127315446E1,-1.216370544E0,-9.513616333E0,2.005828857E-1,9.593158319E0
1.128321046E1,-1.381177826E0,-1.004501129E1,-1.847158813E-1,1.014120427E1
1.129326646E1,-1.560654602E0,-1.043719574E1,-3.432362366E-1,1.055881190E1
1.130332146E1,-1.725312195E0,-1.067400330E1,-1.772314453E-1,1.081399369E1
1.131337746E1,-1.734592896E0,-1.071771240E1,3.053649902E-2,1.085721438E1
1.132343346E1,-1.637594604E0,-1.057760376E1,2.333647156E-1,1.070616068E1
1.133348946E1,-1.512454834E0,-1.023556503E1,4.417314148E-1,1.035613045E1
1.134354446E1,-1.340163116E0,-9.764045563E0,6.800358582E-1,9.879021799E0
1.135360046E1,-1.112785950E0,-9.389823761E0,9.222322083E-1,9.500399733E0
1.136365646E1,-8.595126343E-1,-9.137298889E0,1.070573730E0,9.239865858E0
1.137371246E1,-6.990463257E-1,-9.008117523E0,1.170266418E0,9.110673442E0
1.138376746E1,-6.026467896E-1,-8.976383514E0,1.181193695E0,9.073800896E0
1.139382346E1,-5.083428955E-1,-9.039701843E0,1.041234741E0,9.113659622E0
1.140387946E1,-4.628375244E-1,-9.139095154E0,8.863069153E-1,9.193629248E0
1.141393546E1,-4.129911804E-1,-9.269923096E0,8.072712708E-1,9.314167854E0
1.142399146E1,-4.156855774E-1,-9.404942322E0,7.349716187E-1,9.442770666E0
1.143404646E1,-4.947212219E-1,-9.478888550E0,7.051835632E-1,9.517949416E0
1.144410246E1,-5.724096680E-1,-9.521549835E0,6.752458191E-1,9.562610575E0
1.145415846E1,-6.253994751E-1,-9.548344116E0,6.990463257E-1,9.594303812E0
1.146421446E1,-6.333329773E-1,-9.475894775E0,7.083270264E-1,9.523414284E0
1.147426946E1,-7.065307617E-1,-9.391470337E0,7.671546936E-1,9.449202460E0
1.148432546E1,-7.538323975E-1,-9.347761230E0,8.482859802E-1,9.416394873E0
1.149438146E1,-8.192463684E-1,-9.312434692E0,9.304650879E-1,9.394592583E0
1.150443746E1,-8.403524780E-1,-9.351054382E0,1.009500732E0,9.442854551E0
1.151449246E1,-8.321195984E-1,-9.470206604E0,1.084045715E0,9.568301378E0
1.152454846E1,-7.397616577E-1,-9.585915985E0,1.163530426E0,9.684566879E0
1.153460446E1,-7.182064819E-1,-9.658515015E0,1.191821594E0,9.758236088E0
1.154466046E1,-8.291258240E-1,-9.613608398E0,1.214873657E0,9.725473463E0
1.155471646E1,-1.009500732E0,-9.562265167E0,1.186432800E0,9.688324398E0
1.156477146E1,-1.099613342E0,-9.545500031E0,1.069376221E0,9.667951481E0
1.157482746E1,-1.026415558E0,-9.510323181E0,9.451345825E-1,9.612130632E0
1.158488346E1,-1.013542328E0,-9.460177460E0,9.674382019E-1,9.563376093E0
1.159493946E1,-1.102607117E0,-9.442065125E0,1.308578796E0,9.595869671E0
1.160499446E1,-1.085841980E0,-9.441017303E0,1.654210052E0,9.646153193E0
1.161505046E1,-9.624984741E-1,-9.484876099E0,1.900447998E0,9.721161480E0
1.162510646E1,-8.318202209E-1,-9.699529724E0,1.812580719E0,9.902436600E0
1.163516246E1,-8.437953186E-1,-1.000070343E1,1.447190552E0,1.014004044E1
1.164521746E1,-1.002615051E0,-1.027628036E1,1.057850189E0,1.037912434E1
1.165527346E1,-8.990304565E-1,-1.058164536E1,5.439688110E-1,1.063369062E1
1.166532946E1,-9.541159058E-1,-1.062535446E1,3.405418396E-1,1.067354034E1
1.167538546E1,-9.357041931E-1,-1.048584457E1,2.439926147E-1,1.053033766E1
1.168544046E1,-8.403524780E-1,-1.025262955E1,2.353106689E-1,1.028970243E1
1.169549646E1,-8.482859802E-1,-1.007420059E1,3.553610229E-1,1.011609550E1
1.170555246E1,-1.147064667E0,-9.871522064E0,7.316784668E-1,9.964841122E0
1.171560846E1,-1.413959656E0,-9.763297119E0,1.061742096E0,9.922124209E0
1.172566446E1,-1.685494995E0,-9.878856812E0,1.285826111E0,1.010376435E1
1.173571946E1,-1.933529205E0,-1.015503250E1,1.318009186E0,1.042115006E1
1.174577546E1,-2.008822632E0,-1.045470932E1,1.184037781E0,1.071159469E1
1.175583146E1,-1.871408386E0,-1.049482590E1,9.886940002E-1,1.070612235E1
1.176588746E1,-1.512754211E0,-1.033495834E1,8.089178467E-1,1.047636088E1
1.177594246E1,-9.877958679E-1,-1.006671616E1,6.655160522E-1,1.013693378E1
1.178599846E1,-4.664300537E-1,-9.789792023E0,6.643185425E-1,9.823385566E0
1.179605446E1,-4.924758911E-2,-9.582922211E0,7.234455872E-1,9.610317213E0
1.180611046E1,1.317260742E-1,-9.459878082E0,8.267308044E-1,9.496848367E0
1.181616546E1,1.350192261E-1,-9.364825745E0,9.421408081E-1,9.413066489E0
1.182622146E1,4.685256958E-2,-9.307195587E0,1.093027039E0,9.371274885E0
1.183627746E1,-1.219963074E-1,-9.353898468E0,1.115630035E0,9.420983496E0
1.184633346E1,-2.052232361E-1,-9.304950256E0,1.206191711E0,9.385047378E0
1.185638946E1,-1.721420288E-1,-9.176816711E0,1.348395996E0,9.276948291E0
1.186644446E1,-1.525328064E-1,-9.168733521E0,1.507365417E0,9.293066831E0
1.187650046E1,-1.336720276E-1,-9.199120331E0,1.570534058E0,9.333180610E0
1.188655646E1,-1.984872437E-1,-9.243877258E0,1.841021576E0,9.427514221E0
1.189661246E1,-3.954776001E-1,-9.448651428E0,1.895508270E0,9.645017778E0
1.190666746E1,-6.598278809E-1,-9.675280151E0,1.831291809E0,9.869146292E0
1.191672346E1,-9.451345825E-1,-9.851314087E0,1.679208069E0,1.003799822E1
1.192677946E1,-1.228645020E0,-9.911039886E0,1.522633667E0,1.010231129E1
1.193683546E1,-1.473386078E0,-9.882000275E0,1.408271484E0,1.008999626E1
1.194689046E1,-1.649719391E0,-9.755213928E0,1.388811951E0,9.990724272E0
1.195694646E1,-1.770817566E0,-9.556277618E0,1.486259308E0,9.831948103E0
1.196700246E1,-1.962568817E0,-9.439670105E0,1.523980865E0,9.761227675E0
1.197705846E1,-2.053280182E0,-9.429491272E0,1.570833435E0,9.777463006E0
1.198711446E1,-2.080523529E0,-9.462871857E0,1.705104218E0,9.837779339E0
1.199716946E1,-2.103276215E0,-9.592951355E0,1.617386627E0,9.953111375E0
1.200722546E1,-2.227218475E0,-9.654772797E0,1.562450867E0,1.003077228E1
1.201728146E1,-2.199526062E0,-9.588161316E0,1.668131104E0,9.977645699E0
1.202733746E1,-2.206112366E0,-9.527986450E0,1.596280518E0,9.909468657E0
1.203739246E1,-2.218985596E0,-9.428892517E0,1.523681488E0,9.805585982E0
1.204744846E1,-2.097737732E0,-9.348359985E0,1.493294678E0,9.696507980E0
1.205750446E1,-1.881287842E0,-9.226064301E0,1.518592072E0,9.537590277E0
1.206756046E1,-1.647923126E0,-9.155560913E0,1.478325806E0,9.419415770E0
1.207761646E1,-1.477277985E0,-9.022787018E0,1.370998993E0,9.245143268E0
1.208767146E1,-1.573976898E0,-8.883875885E0,1.309925995E0,9.116828403E0
1.209772746E1,-1.752256165E0,-8.861721954E0,1.303040314E0,9.126797452E0
1.210778346E1,-1.888772278E0,-8.949140167E0,1.274000702E0,9.234589771E0
1.211783946E1,-1.993853760E0,-9.087302856E0,1.236129456E0,9.385229995E0
1.212789446E1,-2.190844116E0,-9.180558929E0,1.111139374E0,9.503530444E0
1.213795046E1,-2.378104706E0,-9.164691925E0,9.988728333E-1,9.520751389E0
1.214800646E1,-2.486928406E0,-9.118138733E0,8.574169922E-1,9.490017426E0
1.215806246E1,-2.727927246E0,-9.583071899E0,4.855902100E-1,9.975602836E0
1.216811746E1,-2.959944763E0,-1.109926895E1,1.787283325E-1,1.148855901E1
1.217817346E1,-2.849474487E0,-1.359383148E1,1.264869690E-1,1.388984371E1
1.218822967E1,-1.635498962E0,-1.563932785E1,8.686436462E-1,1.574858642E1
1.219828567E1,2.224374390E-1,-1.526570480E1,1.357227631E0,1.532753367E1
1.220834067E1,1.153950348E0,-1.306153839E1,2.992277527E-1,1.311582722E1
1.221839667E1,1.473535767E0,-1.082713486E1,-3.210823059E-1,1.093166276E1
1.222845267E1,8.089178467E-1,-9.736353149E0,-4.215234375E-1,9.778987818E0
1.223850867E1,-1.868115234E-1,-9.566606140E0,-2.219883728E-1,9.571004672E0
1.224856467E1,-1.120569763E0,-9.820029144E0,-1.227447510E-1,9.884518970E0
1.225861967E1,-1.999392242E0,-9.992620239E0,-7.123686218E-1,1.021555175E1
1.226867567E1,-2.318678284E0,-9.818232880E0,-1.587299194E0,1.021241816E1
1.227873167E1,-1.999841309E0,-9.383536835E0,-2.286644897E0,9.863005306E0
1.228878767E1,-1.093176727E0,-8.878786469E0,-2.755320282E0,9.360538145E0
1.229884267E1,2.835104370E-1,-8.525221710E0,-2.788850555E0,8.974267145E0
1.230889867E1,1.573976898E0,-8.513096924E0,-2.263592834E0,8.948411872E0
1.231895467E1,2.548899536E0,-8.700656891E0,-1.389560394E0,9.172196971E0
1.232901067E1,3.372486877E0,-8.781937866E0,-4.534071350E-1,9.418156850E0
1.233906667E1,4.238436127E0,-8.921298065E0,7.238946533E-1,9.903429882E0
1.234912167E1,4.199666748E0,-9.126371613E0,1.569186859E0,1.016809751E1
1.235917767E1,4.003424835E0,-9.288933563E0,2.025737457E0,1.031577963E1
1.236923367E1,3.899091797E0,-9.178313599E0,2.076481934E0,1.018607552E1
1.237928967E1,3.206931152E0,-9.061706085E0,1.631607056E0,9.749926470E0
1.238934467E1,2.277813263E0,-9.154662781E0,1.247655487E0,9.515930228E0
1.239940067E1,1.270707550E0,-9.303004303E0,7.411088562E-1,9.418589548E0
1.240945667E1,3.242257690E-1,-9.391470337E0,-6.122268677E-2,9.397264797E0
1.241951267E1,-5.450166321E-1,-9.473200378E0,-9.674382019E-1,9.538055631E0
1.242956767E1,-1.115480347E0,-9.501790924E0,-1.689686279E0,9.715110236E0
1.243962367E1,-1.542242889E0,-9.555978241E0,-2.028581543E0,9.889912858E0
1.244967967E1,-1.870959320E0,-9.507928162E0,-2.049238586E0,9.904572958E0
1.245973567E1,-2.137554932E0,-9.386081543E0,-1.792223053E0,9.791819611E0
1.246979167E1,-2.046244812E0,-9.293723602E0,-1.541344757E0,9.640340237E0
1.247984667E1,-1.667682037E0,-9.292975159E0,-1.142424316E0,9.510293581E0
1.248990267E1,-1.099313965E0,-9.355694733E0,-6.701564026E-1,9.443867043E0
1.249995867E1,-4.423301697E-1,-9.567055206E0,-2.574645996E-1,9.580735322E0
1.251001467E1,1.704954529E-1,-9.867330780E0,7.753875732E-2,9.869108252E0
1.252006967E1,7.277865601E-1,-1.019784348E1,2.260299683E-1,1.022627862E1
1.253012567E1,1.131946106E0,-1.041773621E1,2.154020691E-1,1.048126556E1
1.254018167E1,1.396296387E0,-1.048734146E1,2.219883728E-1,1.058221401E1
1.255023767E1,1.564097443E0,-1.047042664E1,3.110531616E-1,1.059117504E1
1.256029267E1,1.620530090E0,-1.037327866E1,3.689826965E-1,1.050557833E1
1.257034867E1,1.631008301E0,-1.025233017E1,4.523593140E-1,1.039110634E1
1.258040467E1,1.587598572E0,-1.013721954E1,5.337899780E-1,1.027465917E1
1.259046067E1,1.420396271E0,-1.000908600E1,5.513035583E-1,1.012438955E1
1.260051667E1,1.208886108E0,-9.870623932E0,4.739144897E-1,9.955662578E0
1.261057167E1,1.007105713E0,-9.749525757E0,3.155438232E-1,9.806481648E0
1.262062767E1,8.009843445E-1,-9.625733185E0,1.884580994E-1,9.660840115E0
1.263068367E1,4.972659302E-1,-9.517657928E0,1.414558411E-1,9.531689022E0
1.264073967E1,2.257305908E-1,-9.410630493E0,7.140151978E-2,9.413608169E0
1.265079467E1,2.993774414E-2,-9.204808502E0,-3.278182983E-2,9.204915561E0
1.266085067E1,-9.265731812E-2,-8.994944916E0,-8.442443848E-2,8.995818301E0
1.267090667E1,-9.984237671E-2,-8.884624329E0,-5.448669434E-2,8.885352371E0
1.268096267E1,-5.089416504E-2,-8.853638763E0,1.190025330E-1,8.854584754E0
1.269101867E1,7.289840698E-2,-8.882528687E0,4.161346436E-1,8.892569825E0
1.270107367E1,2.836601257E-1,-9.016200714E0,7.738906860E-1,9.053797279E0
1.271112967E1,4.787045288E-1,-9.153016205E0,1.235381012E0,9.248406885E0
1.272118567E1,5.550457764E-1,-9.211394806E0,1.670077057E0,9.378007649E0
1.273124167E1,5.911207581E-1,-9.155860291E0,1.860481110E0,9.361655375E0
1.274129667E1,6.728507996E-1,-8.955427094E0,1.772613831E0,9.153936990E0
1.275135267E1,9.719288635E-1,-8.719667358E0,1.464255066E0,8.895014753E0
1.276140867E1,1.484612732E0,-8.681047668E0,1.126108246E0,8.878782764E0
1.277146467E1,2.034868469E0,-9.035360870E0,9.821076965E-1,9.313590676E0
1.278151967E1,2.392474823E0,-9.856104126E0,1.244212646E0,1.021835551E1
1.279157567E1,2.694396973E0,-1.091829529E1,1.694626007E0,1.137280547E1
1.280163167E1,3.326382751E0,-1.163126266E1,1.753303986E0,1.222395878E1
1.281168767E1,3.736679535E0,-1.170969955E1,1.040785675E0,1.233543969E1
1.282174367E1,3.832180939E0,-1.127620102E1,-5.520520020E-1,1.192237735E1
1.283179867E1,3.647764435E0,-1.055724609E1,-2.344275055E0,1.141303010E1
1.284185467E1,3.432661743E0,-9.915829926E0,-3.628454590E0,1.110281642E1
1.285191067E1,2.985391846E0,-9.776918793E0,-4.571643219E0,1.119824215E1
1.286196667E1,1.658251648E0,-9.825867004E0,-5.381758575E0,1.132522787E1
1.287202167E1,-4.834945679E-1,-9.877060547E0,-5.676944733E0,1.140253452E1
1.288207767E1,-2.743345184E0,-1.054527100E1,-4.135749664E0,1.165474618E1
1.289213367E1,-3.726051636E0,-1.254301666E1,-2.698588257E0,1.336013123E1
1.290218967E1,-5.425168304E0,-1.323368042E1,-2.407443695E0,1.450374206E1
1.291224567E1,-7.009174347E0,-1.404993301E1,-2.139500885E0,1.584634364E1
1.292230067E1,-5.842799835E0,-1.426144318E1,-2.346670074E0,1.558954559E1
1.293235667E1,-4.558769989E0,-1.308533890E1,-2.712658997E0,1.411973784E1
1.294241267E1,-3.353326721E0,-1.147079636E1,-2.683469696E0,1.224846842E1
1.295246867E1,-1.659149780E0,-1.058823166E1,-1.587299194E0,1.083434107E1
1.296252367E1,-1.026714935E0,-9.801767120E0,4.670288086E-1,9.866453170E0
1.297257967E1,-2.968327332E-1,-8.917256470E0,2.096091156E0,9.165106151E0
1.298263567E1,7.610174561E-1,-8.376431122E0,3.411705322E0,9.076534532E0
1.299269167E1,1.764830017E0,-8.277935944E0,3.606001282E0,9.200113788E0
1.300274667E1,2.305954742E0,-8.433612213E0,2.487227783E0,9.090079443E0
1.301280267E1,2.565664673E0,-8.694519653E0,1.024918671E0,9.122925271E0
1.302285867E1,2.568059692E0,-8.885821838E0,-2.559677124E-1,9.253014633E0
1.303291467E1,1.923200684E0,-8.870403900E0,-8.087681580E-1,9.112456977E0
1.304297067E1,1.229992218E0,-8.699908447E0,-8.454418945E-1,8.827007412E0
1.305302567E1,8.720864868E-1,-8.616831207E0,-5.284011841E-1,8.676953538E0
1.306308167E1,7.102729797E-1,-8.732540588E0,9.280700684E-3,8.761383393E0
1.307313767E1,7.036866760E-1,-9.155261536E0,4.111949158E-1,9.191467238E0
1.308319367E1,7.285350037E-1,-9.785750427E0,5.824388123E-1,9.830102220E0
1.309324867E1,1.039887543E0,-1.024783951E1,5.586383057E-1,1.031560262E1
1.310330467E1,1.272803192E0,-1.017883301E1,7.023394775E-1,1.028211798E1
1.311336067E1,1.473685455E0,-9.800868988E0,8.249345398E-1,9.945315417E0
1.312341667E1,1.614841919E0,-9.370364227E0,8.327183533E-1,9.544886591E0
1.313347267E1,1.529369659E0,-8.906329193E0,8.384065247E-1,9.075494298E0
1.314352767E1,1.219813385E0,-8.351732483E0,1.045426025E0,8.504839548E0
1.315358367E1,7.114704895E-1,-7.979157257E0,1.268462219E0,8.110618792E0
1.316363967E1,-1.092727661E-2,-7.839797058E0,1.415905609E0,7.966638313E0
1.317369567E1,-6.568341064E-1,-7.766000519E0,1.570983124E0,7.950483198E0
1.318375067E1,-1.053509216E0,-7.940238190E0,1.798360291E0,8.209224319E0
1.319380696E1,-1.446741486E0,-8.214168549E0,2.063159637E0,8.591987754E0
1.320386296E1,-1.707050171E0,-8.472531281E0,2.243085480E0,8.929123084E0
1.321391896E1,-1.807042236E0,-8.463849335E0,2.479593658E0,9.002806891E0
1.322397396E1,-1.659449158E0,-8.703800354E0,2.470013580E0,9.198417211E0
1.323402996E1,-1.316362610E0,-9.373058624E0,2.137854309E0,9.703476673E0
1.324408596E1,-9.672885132E-1,-9.801168365E0,1.906435547E0,1.003160231E1
1.325414196E1,-5.983058167E-1,-9.895621948E0,1.745071106E0,1.006611031E1
1.326419796E1,-2.903961182E-1,-1.001642075E1,1.751358032E0,1.017252522E1
1.327425296E1,-1.932481384E-1,-1.052596115E1,1.915716248E0,1.070061548E1
1.328430896E1,-3.794609070E-1,-1.159803177E1,2.076931000E0,1.178863749E1
1.329436496E1,-9.586065674E-1,-1.317590057E1,2.104623413E0,1.337732119E1
1.330442096E1,-1.578018494E0,-1.580338669E1,1.108594666E0,1.592062044E1
1.331447596E1,-1.875749359E0,-1.816891754E1,-1.062340851E0,1.829635396E1
1.332453196E1,-9.560618591E-1,-1.765039581E1,-3.951632538E0,1.811259027E1
1.333458796E1,4.293072510E-1,-1.444241684E1,-6.097420349E0,1.568267336E1
1.334464396E1,6.197113037E-2,-1.187690186E1,-6.302194519E0,1.344553063E1
1.335469996E1,-1.188678131E0,-1.017224670E1,-5.620063019E0,1.168215164E1
1.336475496E1,-1.729802856E0,-8.874295807E0,-4.378245392E0,1.004561480E1
1.337481096E1,-1.567689972E0,-7.926915894E0,-3.001857605E0,8.620023000E0
1.338486696E1,-9.613009644E-1,-6.986571350E0,-1.621877289E0,7.236488424E0
1.339492296E1,2.409988403E-1,-6.423592072E0,-1.008752289E0,6.506780826E0
1.340497796E1,2.124981079E0,-6.828799438E0,-5.860313416E-1,7.175756343E0
1.341503396E1,4.022884369E0,-7.950417023E0,5.538482666E-2,8.910431918E0
1.342508996E1,6.032156067E0,-9.273365936E0,1.123264160E0,1.111952989E1
1.343514596E1,7.109765167E0,-1.037178177E1,2.473905487E0,1.281572574E1
1.344520096E1,8.017028503E0,-1.079644867E1,3.115621033E0,1.380373661E1
1.345525696E1,8.701255646E0,-1.059796143E1,3.000211029E0,1.403673404E1
1.346531296E1,7.371421051E0,-9.696985016E0,1.538500671E0,1.227747332E1
1.347536896E1,5.697003021E0,-9.038953400E0,-5.165757751E-1,1.069697960E1
1.348542496E1,3.978875885E0,-8.893156586E0,-2.430495758E0,1.004126471E1
1.349547996E1,2.335144043E0,-8.969497833E0,-3.328777771E0,9.848124214E0
1.350553596E1,1.077459412E0,-9.118138733E0,-3.053649902E0,9.676060689E0
1.351559196E1,3.376977539E-1,-9.041647797E0,-2.120490417E0,9.293111119E0
1.352564796E1,-2.004331970E-1,-8.917855225E0,-1.000818787E0,8.976076733E0
1.353570296E1,-5.993536377E-1,-8.945847015E0,-2.863545227E-1,8.970473929E0
1.354575896E1,-6.342311096E-1,-8.919202423E0,2.769241333E-1,8.946010728E0
1.355581496E1,-5.628295898E-1,-8.936716003E0,4.562512207E-1,8.966037879E0
1.356587096E1,-5.364843750E-1,-9.033714294E0,4.565505981E-2,9.049745511E0
1.357592696E1,-3.972738647E-1,-9.065148926E0,-4.363426208E-1,9.084335224E0
1.358598196E1,-1.927990723E-1,-9.319320374E0,-1.162931671E0,9.393578327E0
1.359603796E1,-2.402503967E-1,-9.538913727E0,-1.616189117E0,9.677843903E0
1.360609396E1,-2.722837830E-1,-9.794731750E0,-1.650168457E0,9.936496589E0
1.361614996E1,-6.960525513E-2,-9.957144012E0,-1.260229340E0,1.003681921E1
1.362620496E1,-4.460723877E-2,-1.017898270E1,-7.000941467E-1,1.020312748E1
1.363626096E1,2.371069336E-1,-1.002659958E1,2.993774414E-2,1.002944740E1
1.364631696E1,2.095642090E-1,-9.727970581E0,7.232958984E-1,9.757073626E0
1.365637296E1,-1.179547119E-1,-9.469607849E0,1.186582489E0,9.544389144E0
1.366642896E1,-4.858895874E-1,-9.240584106E0,1.399140472E0,9.358529659E0
1.367648396E1,-7.809260559E-1,-8.887019348E0,1.354533234E0,9.023509222E0
1.368653996E1,-9.925859070E-1,-8.609346771E0,1.203946381E0,8.749603734E0
1.369659596E1,-1.069376221E0,-8.645122375E0,1.155447235E0,8.787307022E0
1.370665196E1,-1.110989685E0,-9.026229858E0,1.135688324E0,9.164982897E0
1.371670696E1,-1.205892334E0,-9.515562286E0,9.083111572E-1,9.634579965E0
1.372676296E1,-9.592053223E-1,-9.871372375E0,6.185137939E-1,9.937133729E0
1.373681896E1,-5.897735596E-1,-1.004381378E1,3.417393494E-1,1.006691680E1
1.374687496E1,-1.353186035E-1,-1.019978943E1,2.242337036E-1,1.020315129E1
1.375693096E1,7.080276489E-2,-1.040441391E1,3.104544067E-1,1.040928546E1
1.376698596E1,1.911524963E-1,-1.048270111E1,4.266128540E-1,1.049311967E1
1.377704196E1,5.498066711E-1,-1.044393173E1,6.426136780E-1,1.047811766E1
1.378709796E1,8.996292114E-1,-1.032208511E1,9.735754395E-1,1.040685461E1
1.379715396E1,1.088087311E0,-9.937085724E0,1.334924011E0,1.008521833E1
1.380720896E1,1.281485138E0,-9.305698700E0,1.508413239E0,9.513860570E0
1.381726496E1,1.503473511E0,-8.666976929E0,1.513053589E0,8.925595378E0
1.382732096E1,1.950593719E0,-8.295898590E0,1.387614441E0,8.634362925E0
1.383737696E1,2.257156219E0,-8.441246338E0,1.126707001E0,8.810156786E0
1.384743296E1,1.978435822E0,-8.943451996E0,9.725276184E-1,9.211153667E0
1.385748796E1,1.237925720E0,-9.709409180E0,7.357200623E-1,9.815618713E0
1.386754396E1,9.377998352E-1,-1.043120819E1,6.466552734E-2,1.047347862E1
1.387759996E1,1.313219147E0,-1.112561417E1,-1.194216614E0,1.126632098E1
1.388765596E1,2.288590851E0,-1.182600769E1,-2.975662079E0,1.240752476E1
1.389771096E1,3.369493103E0,-1.248149460E1,-4.768932953E0,1.377983718E1
1.390776696E1,3.933071136E0,-1.282877243E1,-5.560337219E0,1.452459296E1
1.391782296E1,4.311933289E0,-1.274165359E1,-5.621559906E0,1.457890396E1
1.392787896E1,3.188519440E0,-1.265079254E1,-5.208119659E0,1.404755205E1
1.393793496E1,8.514294434E-1,-1.266157013E1,-4.231999512E0,1.337722356E1
1.394798996E1,-1.832489319E0,-1.264315842E1,-2.364782410E0,1.299229263E1
1.395804596E1,-4.581522675E0,-1.270572830E1,-6.450086975E-1,1.352190511E1
1.396810196E1,-5.869145050E0,-1.354188950E1,-1.663341064E0,1.485248593E1
1.397815796E1,-7.389383698E0,-1.328277832E1,-2.859653320E0,1.546650602E1
1.398821296E1,-8.042176208E0,-1.228884521E1,-3.344345398E0,1.506243543E1
1.399826896E1,-8.087531891E0,-1.081051941E1,-2.612068176E0,1.375130547E1
1.400832496E1,-7.007228394E0,-9.928852844E0,-2.561772766E0,1.241958326E1
1.401838096E1,-5.259762268E0,-9.067394257E0,-2.255958710E0,1.072250379E1
1.402843596E1,-2.798280945E0,-8.506211243E0,-9.288185120E-1,9.002705692E0
1.403849196E1,-9.967771912E-1,-8.510103149E0,-3.610491943E-1,8.575883447E0
1.404854796E1,6.197113037E-2,-9.049581299E0,-4.572990417E-1,9.061340106E0
1.405860396E1,9.717791748E-1,-9.717492371E0,-2.200424194E-1,9.768440582E0
1.406865996E1,2.085313568E0,-1.015922379E1,2.258802795E-1,1.037349423E1
1.407871496E1,3.397185516E0,-1.032941986E1,7.415579224E-1,1.089897666E1
1.408877096E1,4.444856873E0,-1.036534515E1,8.164022827E-1,1.130768082E1
1.409882696E1,4.131408691E0,-1.001776794E1,6.472540283E-1,1.085555849E1
1.410888296E1,3.060685272E0,-9.313632202E0,4.655319214E-1,9.814696078E0
1.411893796E1,1.800006866E0,-8.683742065E0,4.581971741E-1,8.880165856E0
1.412899396E1,5.376818848E-1,-8.288863220E0,6.351292419E-1,8.330530862E0
1.413904996E1,-4.053570557E-1,-8.165968781E0,8.223898315E-1,8.217279690E0
1.414910596E1,-1.009201355E0,-8.198750610E0,9.367520142E-1,8.313573436E0
1.415916196E1,-1.440005493E0,-8.041577454E0,1.041683807E0,8.235635307E0
1.416921696E1,-1.754351807E0,-7.916886749E0,1.094673615E0,8.182490842E0
1.417927296E1,-1.906734924E0,-7.753426666E0,1.385219421E0,8.103708780E0
1.418932904E1,-1.829944611E0,-7.626490631E0,1.664538574E0,8.017652106E0
1.419938504E1,-1.633702698E0,-7.475903778E0,1.989662476E0,7.906761573E0
1.420944004E1,-1.490001526E0,-7.377558289E0,2.322420502E0,7.876681270E0
1.421949604E1,-1.490450592E0,-7.346872101E0,2.537223816E0,7.914257851E0
1.422955204E1,-1.601369934E0,-7.228917389E0,2.756667480E0,7.900686545E0
1.423960804E1,-1.720073090E0,-7.186405792E0,3.134182434E0,8.026592002E0
1.424966404E1,-2.050436096E0,-7.413184204E0,3.291804657E0,8.366335287E0
1.425971904E1,-2.397264862E0,-7.813601532E0,3.120411072E0,8.748497755E0
1.426977504E1,-2.639461212E0,-8.546028442E0,2.810405731E0,9.375486014E0
1.427983104E1,-3.555855560E0,-9.531578979E0,2.403851166E0,1.045340170E1
1.428988704E1,-4.497397614E0,-1.032462982E1,1.733096008E0,1.139421731E1
1.429994204E1,-4.318968658E0,-1.043974045E1,1.769170990E0,1.143554270E1
1.430999804E1,-3.960913239E0,-1.034768188E1,2.254761200E0,1.130695813E1
1.432005404E1,-3.792513428E0,-1.018751495E1,2.835852814E0,1.123435268E1
1.433011004E1,-3.858675842E0,-1.005878265E1,2.455942841E0,1.104989335E1
1.434016604E1,-4.295617218E0,-1.037507492E1,1.224154358E0,1.129570984E1
1.435022104E1,-4.611161041E0,-1.166853516E1,6.128256226E-1,1.256157132E1
1.436027704E1,-5.029690704E0,-1.496527954E1,7.454498291E-2,1.578806313E1
1.437033304E1,-4.064946899E0,-1.979977615E1,2.070195007E-1,2.021380187E1
1.438038904E1,-2.633024597E-1,-2.288725571E1,-1.262624359E0,2.292356914E1
1.439044404E1,4.534520416E0,-2.126582748E1,-4.276007996E0,2.216035962E1
1.440050004E1,6.442452850E0,-1.584035980E1,-6.926097107E0,1.844974305E1
1.441055604E1,4.604874115E0,-1.200323914E1,-7.718100128E0,1.499505535E1
1.442061204E1,2.535577240E0,-9.894723816E0,-6.501130829E0,1.210782447E1
1.443066804E1,1.391206970E0,-8.124055939E0,-3.758833466E0,9.058949760E0
1.444072304E1,1.112336884E0,-6.818021851E0,-2.275717621E0,7.273349021E0
1.445077904E1,1.091979218E0,-5.869145050E0,-1.381327515E0,6.127589080E0
1.446083504E1,1.738035736E0,-5.328469391E0,-4.761598206E-1,5.624951773E0
1.447089104E1,3.166664886E0,-5.993536377E0,-1.372645569E-1,6.780050617E0
1.448094604E1,4.339925079E0,-7.438780975E0,-6.795867920E-2,8.612492698E0
1.449100204E1,5.185666351E0,-8.891809387E0,1.821711731E-1,1.029507630E1
1.450105804E1,6.407874756E0,-1.006027954E1,3.767665100E-1,1.193365142E1
1.451111404E1,7.814349976E0,-1.089479416E1,4.490661621E-3,1.340748394E1
1.452117004E1,8.440647583E0,-1.077294754E1,-5.219645691E-1,1.369574304E1
1.453122504E1,8.084089050E0,-1.025128235E1,-1.252894592E0,1.311529757E1
1.454128104E1,6.878496094E0,-9.916728058E0,-1.847158813E0,1.220930791E1
1.455133704E1,5.303471375E0,-9.937684479E0,-2.180665283E0,1.147343377E1
1.456139304E1,3.984114990E0,-1.007345215E1,-2.008972321E0,1.101742167E1
1.457144904E1,2.942131805E0,-1.003198837E1,-1.394500122E0,1.054711149E1
1.458150404E1,2.084714813E0,-9.826166382E0,-5.791456604E-1,1.006156008E1
1.459156004E1,1.296004944E0,-9.541458435E0,3.278182983E-1,9.634652185E0
1.460161604E1,5.248086548E-1,-9.335786133E0,8.439450073E-1,9.388533965E0
1.461167204E1,-2.043251038E-1,-9.102720795E0,9.647438049E-1,9.155981937E0
1.462172704E1,-7.676037598E-1,-8.849148102E0,9.092092896E-1,8.928790466E0
1.463178304E1,-1.098415833E0,-8.694369965E0,8.089178467E-1,8.800734884E0
1.464183904E1,-1.399739227E0,-8.706045685E0,7.345225525E-1,8.848391083E0
1.465189504E1,-1.725611572E0,-9.017398224E0,4.299060059E-1,9.191084006E0
1.466195104E1,-2.050885162E0,-9.356892242E0,3.823049927E-1,9.586642764E0
1.467200604E1,-2.158511353E0,-9.769733734E0,4.408332825E-1,1.001504880E1
1.468206204E1,-1.571432190E0,-1.010683273E1,1.951940918E-1,1.023013039E1
1.469211804E1,-8.674461365E-1,-1.040905426E1,1.103205872E-1,1.044571893E1
1.470217404E1,-1.862127686E-1,-1.039648041E1,5.343887329E-2,1.039828523E1
1.471222904E1,3.620970154E-1,-1.023002655E1,8.187973022E-2,1.023676032E1
1.472228504E1,7.035369873E-1,-1.007988876E1,1.285826111E-1,1.010522910E1
1.473234104E1,8.681945801E-1,-9.990823975E0,1.381626892E-1,1.002942742E1
1.474239704E1,6.894662476E-1,-9.877060547E0,1.020877075E-1,9.901621617E0
1.475245304E1,1.104702759E-1,-9.658664703E0,1.089733887E-1,9.659911114E0
1.476250804E1,-4.516108704E-1,-9.525292053E0,-3.547622681E-2,9.536057867E0
1.477256404E1,-6.647676086E-1,-9.436227264E0,-2.754272461E-1,9.463623044E0
1.478262004E1,-4.537065125E-1,-9.305099945E0,-5.219645691E-1,9.330765328E0
1.479267604E1,1.098715210E-1,-9.234596558E0,-4.119433594E-1,9.244433063E0
1.480273104E1,5.878276062E-1,-9.192983093E0,-1.769320679E-1,9.213456702E0
1.481278704E1,1.090332642E0,-9.028774567E0,3.653901672E-1,9.101708928E0
1.482284304E1,1.906734924E0,-8.718769226E0,1.559756470E0,9.060100172E0
1.483289904E1,2.128573608E0,-8.411308594E0,1.573827209E0,8.818042297E0
1.484295504E1,2.353106689E0,-7.970175934E0,1.197060699E0,8.396056802E0
1.485301004E1,2.565365295E0,-7.297923889E0,1.561403046E0,7.891690038E0
1.486306604E1,2.853965149E0,-6.841223602E0,1.895208893E0,7.651096274E0
1.487312204E1,3.087180176E0,-6.777755585E0,1.852547607E0,7.674671644E0
1.488317804E1,3.476221161E0,-6.739734650E0,1.676813049E0,7.766584752E0
1.489323304E1,3.876788177E0,-6.599775696E0,1.768721924E0,7.855883340E0
1.490328904E1,3.870650940E0,-6.638694763E0,1.939965820E0,7.925760168E0
1.491334504E1,3.276985474E0,-7.106172638E0,1.954934692E0,8.065859719E0
1.492340104E1,2.203118591E0,-8.001011810E0,1.686093750E0,8.468343029E0
1.493345704E1,9.300160217E-1,-9.105415192E0,1.266216888E0,9.239957837E0
1.494351204E1,-1.844165039E-1,-1.045725403E1,7.625143433E-1,1.048663909E1
1.495356804E1,-1.025517426E0,-1.205084015E1,1.005908203E-1,1.209481512E1
1.496362404E1,-1.541195068E0,-1.361673386E1,-8.152047729E-1,1.372790159E1
1.497368004E1,-1.820813599E0,-1.476080475E1,-1.953288116E0,1.500040178E1
1.498373504E1,-1.957928467E0,-1.559816345E1,-3.047961731E0,1.601331501E1
1.499379104E1,-2.120340729E0,-1.608090958E1,-3.582949219E0,1.661111142E1
1.500384704E1,-2.643203430E0,-1.588451797E1,-3.573069763E0,1.649458284E1
1.501390304E1,-3.286266174E0,-1.505449402E1,-3.122506714E0,1.572219398E1
1.502395904E1,-3.906725922E0,-1.394754593E1,-2.484683075E0,1.469592443E1
1.503401404E1,-4.416715393E0,-1.288954605E1,-1.804497528E0,1.374423456E1
1.504407004E1,-4.494852905E0,-1.228465393E1,-1.817071381E0,1.320674726E1
1.505412604E1,-3.425925751E0,-1.164084274E1,-2.274370422E0,1.234580689E1
1.506418204E1,-2.727627869E0,-1.076666061E1,-1.985022125E0,1.128278545E1
1.507423704E1,-2.176174622E0,-1.042072998E1,-9.500743103E-1,1.068784312E1
1.508429304E1,-1.130898285E0,-1.006357269E1,-1.184037781E-1,1.012760810E1
1.509434904E1,-3.040177917E-1,-1.005608826E1,-5.351371765E-1,1.007490494E1
1.510440504E1,4.400848389E-2,-9.768236847E0,-5.761518860E-1,9.785312404E0
1.511446104E1,1.839674377E-1,-9.502090302E0,-4.396357727E-1,9.514034041E0
1.512451604E1,-7.948471069E-2,-9.475445709E0,-1.459465027E-1,9.476902953E0
1.513457204E1,-2.676434326E-1,-9.187893677E0,3.815565491E-1,9.199706986E0
1.514462804E1,-3.028202820E-1,-9.023086395E0,4.712200928E-1,9.040455552E0
1.515468404E1,-2.496807861E-1,-8.864566040E0,2.405497742E-1,8.871343515E0
1.516474004E1,1.173559570E-1,-8.743168488E0,1.514849854E-1,8.745268168E0
1.517479504E1,5.068460083E-1,-8.729247437E0,3.412902832E-2,8.744016152E0
1.518485104E1,7.785310364E-1,-8.687933350E0,6.661148071E-2,8.723000261E0
1.519490683E1,7.286846924E-1,-8.440647583E0,5.125341797E-1,8.487532285E0
1.520496283E1,4.962181091E-1,-8.377329254E0,1.107696533E0,8.464801796E0
1.521501783E1,2.989283752E-1,-8.551417236E0,1.352437592E0,8.662862250E0
1.522507383E1,4.326004028E-2,-8.763376465E0,1.407672729E0,8.875820019E0
1.523512983E1,-2.589614868E-1,-8.996292114E0,1.338965607E0,9.099074775E0
1.524518583E1,-6.081852722E-1,-9.223220215E0,1.126707001E0,9.311667365E0
1.525524183E1,-9.168434143E-1,-9.377399597E0,8.092172241E-1,9.456799541E0
1.526529683E1,-1.137783966E0,-9.412127380E0,6.180647278E-1,9.500773557E0
1.527535283E1,-1.244661713E0,-9.453591156E0,4.939727783E-1,9.547961962E0
1.528540883E1,-1.209185486E0,-9.465117188E0,4.052073669E-1,9.550642173E0
1.529546483E1,-1.142574005E0,-9.475894775E0,5.016069031E-1,9.557701954E0
1.530551983E1,-1.129551086E0,-9.509874115E0,7.195536804E-1,9.603715366E0
1.531557583E1,-1.247505798E0,-9.541308746E0,9.608518982E-1,9.670371228E0
1.532563183E1,-1.507515106E0,-9.597142639E0,1.113384705E0,9.778413682E0
1.533568783E1,-1.796564026E0,-9.674980774E0,1.080153809E0,9.899476124E0
1.534574383E1,-2.069446564E0,-9.716743927E0,9.066645813E-1,9.975959216E0
1.535579883E1,-2.276466064E0,-9.743837585E0,7.545808411E-1,1.003464304E1
1.536585483E1,-2.361638947E0,-9.788145447E0,6.101312256E-1,1.008748680E1
1.537591083E1,-2.355202332E0,-9.809101868E0,5.143304443E-1,1.010098972E1
1.538596683E1,-2.429447937E0,-9.759854279E0,4.622387695E-1,1.006829864E1
1.539602283E1,-2.598895569E0,-9.650880890E0,4.816983032E-1,1.000628769E1
1.540607783E1,-2.745440826E0,-9.561067657E0,4.998106384E-1,9.959983472E0
1.541613383E1,-2.832559662E0,-9.594597931E0,2.746788025E-1,1.000775460E1
1.542618983E1,-2.967279510E0,-9.653275909E0,-1.122665405E-2,1.009904003E1
1.543624583E1,-2.986439667E0,-9.654323730E0,-2.133064270E-1,1.010793195E1
1.544630083E1,-2.990032196E0,-9.711055756E0,-4.062551880E-1,1.016906779E1
1.545635683E1,-2.910996552E0,-9.806856537E0,-5.490582275E-1,1.024450101E1
1.546641283E1,-2.884950714E0,-9.814939728E0,-6.620732117E-1,1.025155224E1
1.547646883E1,-2.839595032E0,-9.820627899E0,-8.113128662E-1,1.025506026E1
1.548652483E1,-2.805166626E0,-9.810898132E0,-6.921606445E-1,1.022750059E1
1.549657983E1,-2.825673981E0,-9.782906342E0,-4.749623108E-1,1.019388440E1
1.550663583E1,-2.851570129E0,-9.784852295E0,-2.957849121E-1,1.019618926E1
1.551669183E1,-2.862946472E0,-9.915380859E0,-1.522334290E-1,1.032155100E1
1.552674783E1,-2.888692932E0,-1.026625122E1,-1.001417542E-1,1.066538745E1
1.553680283E1,-2.842888184E0,-1.066936295E1,-4.104464722E-1,1.104924365E1
1.554685883E1,-2.741698608E0,-1.087308929E1,-8.541238403E-1,1.124591079E1
1.555691483E1,-2.629132690E0,-1.086934708E1,-1.202748871E0,1.124729520E1
1.556697083E1,-2.557431793E0,-1.072459808E1,-1.094972992E0,1.107954996E1
1.557702683E1,-2.505489807E0,-1.055095917E1,-4.553530884E-1,1.085391934E1
1.558708183E1,-2.368674316E0,-1.036609360E1,1.136137390E-1,1.063388088E1
1.559713783E1,-2.101180573E0,-1.033825150E1,2.748284912E-1,1.055319546E1
1.560719383E1,-1.923949127E0,-1.046009811E1,1.612147522E-1,1.063678631E1
1.561724983E1,-1.857337646E0,-1.074570419E1,-5.568420410E-2,1.090518053E1
1.562730583E1,-1.643282776E0,-1.099239120E1,-3.237767029E-1,1.111925690E1
1.563736083E1,-1.037342834E0,-1.101664078E1,-9.306147766E-1,1.110443596E1
1.564741683E1,1.826202393E-1,-1.089674011E1,-1.711989899E0,1.103191754E1
1.565747283E1,1.690285034E0,-1.091709778E1,-2.472558289E0,1.132049610E1
1.566752883E1,3.073857880E0,-1.107007965E1,-3.007096710E0,1.187593770E1
1.567758383E1,3.789070587E0,-1.078402451E1,-3.223845978E0,1.187625460E1
1.568763983E1,3.949237518E0,-1.002001328E1,-2.970273285E0,1.117227221E1
1.569769583E1,4.009562073E0,-9.020990753E0,-2.090402985E0,1.009081993E1
1.570775183E1,3.965703278E0,-8.036637726E0,-8.288264465E-1,9.000072316E0
1.571780783E1,3.782484283E0,-7.160958710E0,5.433700562E-1,8.116758467E0
1.572786283E1,3.789819031E0,-6.514303436E0,1.377136230E0,7.661291128E0
1.573791883E1,3.640878754E0,-6.145470428E0,2.288590851E0,7.500696832E0
1.574797483E1,3.659440155E0,-6.560706940E0,3.364852753E0,8.231440448E0
1.575803083E1,3.985312500E0,-7.592361603E0,4.620441742E0,9.740387688E0
1.576808683E1,3.883224792E0,-8.632847900E0,4.884941711E0,1.065214313E1
1.577814183E1,3.327729950E0,-9.499096527E0,3.875590668E0,1.078549139E1
1.578819783E1,2.538720703E0,-1.038390656E1,2.477947083E0,1.097318732E1
1.579825383E1,1.398541718E0,-1.100825821E1,6.896159363E-1,1.111814903E1
1.580830983E1,2.348616028E-1,-1.142544067E1,-1.249152374E0,1.149592259E1
1.581836483E1,-4.200265503E-1,-1.183154617E1,-3.147504730E0,1.225025278E1
1.582842083E1,-6.038442993E-1,-1.201431610E1,-4.672383728E0,1.290502185E1
1.583847683E1,-6.590794373E-1,-1.199335968E1,-5.197940826E0,1.308792004E1
1.584853283E1,-4.442761230E-1,-1.164054337E1,-4.668042755E0,1.254951211E1
1.585858883E1,-8.532257080E-3,-1.106783432E1,-3.189417572E0,1.151822095E1
1.586864383E1,1.972897339E-1,-1.050141220E1,-1.381626892E0,1.059374694E1
1.587869983E1,1.275347900E-1,-1.006342300E1,1.528321838E-1,1.006539147E1
1.588875583E1,3.023712158E-2,-9.588011627E0,1.376687164E0,9.686389874E0
1.589881183E1,8.756790161E-2,-9.222920837E0,1.950743408E0,9.427371678E0
1.590886683E1,3.124003601E-1,-9.075477448E0,1.634301453E0,9.226745153E0
1.591892283E1,6.372248840E-1,-9.016799469E0,7.634124756E-1,9.071467733E0
1.592897883E1,7.809260559E-1,-9.130862274E0,-1.703457642E-1,9.165779239E0
1.593903483E1,6.182144165E-1,-9.383536835E0,-7.741900635E-1,9.435694084E0
1.594909083E1,4.766088867E-1,-9.644893341E0,-9.732760620E-1,9.705585499E0
1.595914583E1,2.897973633E-1,-9.917775879E0,-7.653584290E-1,9.951484031E0
1.596920183E1,6.286926270E-2,-1.013422577E1,-3.962260437E-1,1.014216346E1
1.597925783E1,-1.556762695E-1,-1.019649628E1,-1.553768921E-1,1.019886824E1
1.598931383E1,-3.764671326E-1,-1.015892441E1,-4.026626587E-2,1.016597728E1
1.599936983E1,-6.213578796E-1,-1.009665390E1,1.392105103E-2,1.011576489E1
1.600942483E1,-8.351133728E-1,-9.948013000E0,-7.843688965E-2,9.983312544E0
1.601948083E1,-1.023571472E0,-9.683812408E0,-1.980381775E-1,9.739771067E0
1.602953683E1,-1.121617584E0,-9.349557495E0,-2.020797729E-1,9.418762530E0
1.603959283E1,-1.210083618E0,-9.101074219E0,-8.337661743E-2,9.181547035E0
1.604964783E1,-1.257085876E0,-8.920699310E0,2.529739380E-2,9.008872351E0
1.605970383E1,-1.304237823E0,-8.756490784E0,2.338137817E-1,8.856175023E0
1.606975983E1,-1.360221405E0,-8.663384399E0,4.525090027E-1,8.781184198E0
1.607981583E1,-1.405876465E0,-8.572523346E0,6.900650024E-1,8.714403873E0
1.608987183E1,-1.440155182E0,-8.486751709E0,9.632469177E-1,8.661803862E0
1.609992683E1,-1.435514832E0,-8.477620697E0,1.224304047E0,8.685025959E0
1.610998283E1,-1.435215454E0,-8.559051361E0,1.456471252E0,8.799915460E0
1.612003883E1,-1.388213196E0,-8.733139343E0,1.589694214E0,8.984541522E0
1.613009483E1,-1.200802917E0,-8.992100830E0,1.433718567E0,9.184517076E0
1.614015083E1,-7.170089722E-1,-9.208401031E0,1.040785675E0,9.294728949E0
1.615020583E1,1.695973206E-1,-9.437574463E0,5.556445312E-1,9.455438427E0
1.616026183E1,1.131796417E0,-9.958640900E0,1.884580994E-1,1.002452035E1
1.617031783E1,2.042502594E0,-1.094703552E1,4.206253052E-2,1.113603039E1
1.618037383E1,2.885100403E0,-1.212688202E1,5.418731689E-2,1.246547264E1
1.619042979E1,3.657194824E0,-1.275093430E1,-1.302291870E-2,1.326505066E1
1.620048479E1,4.467908936E0,-1.271336243E1,-4.312532043E-1,1.348249880E1
1.621054079E1,5.182522888E0,-1.199066528E1,-1.271306305E0,1.312443588E1
1.622059679E1,5.501060486E0,-1.083207458E1,-2.365830231E0,1.237710220E1
1.623065279E1,4.983137512E0,-9.690698090E0,-3.243006134E0,1.136918545E1
1.624070779E1,4.124073944E0,-8.680149536E0,-3.212170258E0,1.013267090E1
1.625076379E1,3.261268158E0,-7.688312073E0,-2.552791443E0,8.732855013E0
1.626081979E1,1.281036072E0,-7.396568756E0,-1.007854156E0,7.574038076E0
1.627087579E1,-1.478774872E0,-8.240663452E0,5.899232483E-1,8.393051810E0
1.628093179E1,-4.185146942E0,-9.753567352E0,1.077609100E0,1.066811944E1
1.629098679E1,-6.392007751E0,-1.165940414E1,-2.772235107E-1,1.329948574E1
1.630104279E1,-7.437733154E0,-1.313234116E1,-2.047891388E0,1.523063091E1
1.631109879E1,-7.155719604E0,-1.401490585E1,-4.015848999E0,1.624034951E1
1.632115479E1,-6.099366302E0,-1.436577621E1,-5.600753174E0,1.658150270E1
1.633121079E1,-4.744982758E0,-1.384635635E1,-5.832171936E0,1.575597268E1
1.634126579E1,-3.203787689E0,-1.256711655E1,-4.564907227E0,1.374900185E1
1.635132179E1,-1.993554382E0,-1.133892059E1,-2.698139191E0,1.182477629E1
1.636137779E1,-1.270557861E0,-1.045890060E1,-5.432203674E-1,1.054978708E1
1.637143379E1,-3.227288818E-1,-1.003393433E1,9.370513916E-1,1.008276040E1
1.638148879E1,8.256829834E-1,-9.862989807E0,1.967508545E0,1.009115505E1
1.639154479E1,1.414408722E0,-9.451196136E0,2.588117981E0,9.900707809E0
1.640160079E1,1.872007141E0,-9.045689392E0,2.506537628E0,9.571396878E0
1.641165679E1,2.382894745E0,-8.706494751E0,1.980681152E0,9.241446642E0
1.642171279E1,2.440075836E0,-8.409212952E0,1.147364044E0,8.830927290E0
1.643176779E1,1.806443481E0,-8.210725708E0,7.343728638E-1,8.439108851E0
1.644182379E1,1.400188293E0,-8.032745819E0,3.591032410E-1,8.161769893E0
1.645187979E1,1.098715210E0,-8.157586212E0,-3.906875610E-1,8.240511191E0
1.646193579E1,7.231462097E-1,-8.666078796E0,-7.780819702E-1,8.730937733E0
1.647199179E1,4.418811035E-1,-9.177265778E0,-5.111869812E-1,9.202107269E0
1.648204679E1,5.351371765E-1,-9.530231781E0,1.302291870E-2,9.545253228E0
1.649210279E1,6.885681152E-1,-9.808203735E0,5.628295898E-1,9.848439659E0
1.650215879E1,7.890092468E-1,-9.935289459E0,9.349557495E-1,1.001032739E1
1.651221479E1,9.410929871E-1,-9.939331055E0,1.007105713E0,1.003445164E1
1.652226979E1,9.842033386E-1,-9.712253265E0,9.348060608E-1,9.806649890E0
1.653232579E1,8.943901062E-1,-9.385183411E0,8.006849670E-1,9.461643500E0
1.654238179E1,6.962022400E-1,-9.081464996E0,7.837701416E-1,9.141772239E0
1.655243779E1,4.561015320E-1,-8.578959961E0,1.101559296E0,8.661409556E0
