"Time (s)","Acceleration x (m/s^2)","Acceleration y (m/s^2)","Acceleration z (m/s^2)","Absolute acceleration (m/s^2)"
1.977749984E-3,-1.913171539E0,3.871698761E0,9.221573639E0,1.018271560E1
1.203375001E-2,-1.908381500E0,3.880829773E0,8.773555298E0,9.781514823E0
2.209074999E-2,-2.359692993E0,3.957620087E0,8.628806305E0,9.781983747E0
3.214675002E-2,-2.804418182E0,4.156556396E0,8.442294159E0,9.819065795E0
4.220375000E-2,-2.763403473E0,4.263134766E0,8.558302917E0,9.952651185E0
5.225975002E-2,-2.182311859E0,4.239334259E0,8.650810547E0,9.877801533E0
6.231574999E-2,-1.536405029E0,4.038751373E0,8.348139954E0,9.400185836E0
7.237275003E-2,-9.240284729E-1,3.710184631E0,8.015082550E0,8.880362994E0
8.242875000E-2,-4.797523499E-1,3.383264465E0,7.870183868E0,8.580002033E0
9.248575004E-2,-4.020639038E-1,3.209625549E0,8.130342865E0,8.750190092E0
1.025417500E-1,-4.682263184E-1,3.172502747E0,8.668623505E0,9.242783294E0
1.125987500E-1,-4.261637878E-1,3.153791656E0,9.073232117E0,9.615173344E0
1.226547500E-1,-3.671864319E-1,3.083437958E0,9.276060333E0,9.782009549E0
1.327107500E-1,-2.567161560E-1,2.987936554E0,9.291328583E0,9.763321918E0
1.427677500E-1,-9.639953613E-2,2.897075500E0,9.173373871E0,9.620453602E0
1.528237500E-1,1.342707825E-1,2.840193787E0,8.979826355E0,9.419236209E0
1.628807500E-1,3.421884155E-1,2.725083160E0,8.747509460E0,9.168538210E0
1.729367500E-1,5.254074097E-1,2.514920197E0,8.544082489E0,8.922007740E0
1.829927500E-1,7.695497131E-1,2.291285248E0,8.367898865E0,8.709990026E0
1.930497500E-1,1.089584198E0,2.084116058E0,8.274942169E0,8.602639210E0
2.031057500E-1,1.096619568E0,1.794917450E0,8.498577118E0,8.755005206E0
2.131627500E-1,-1.086889801E0,1.193318481E0,1.077309723E1,1.089334486E1
2.232187500E-1,-3.420387268E-1,1.866917725E0,1.145852188E1,1.161465006E1
2.332757500E-1,2.078427887E0,2.652334442E0,9.798324280E0,1.036155872E1
2.433317500E-1,2.424807587E0,1.752106476E0,8.258925476E0,8.784043429E0
2.533877500E-1,2.326761475E0,9.192384338E-1,7.728129272E0,8.122979768E0
2.634447500E-1,2.536175995E0,8.514294434E-1,8.672216034E0,9.075486307E0
2.735007500E-1,2.619851990E0,1.740131378E0,1.001193008E1,1.049430444E1
2.835577500E-1,2.541415100E0,2.751578064E0,9.842482452E0,1.053111739E1
2.936137500E-1,1.585353241E0,2.899470520E0,1.202793777E1,1.247363465E1
3.036697500E-1,6.004014587E-1,2.255659332E0,1.159698395E1,1.182956118E1
3.137267500E-1,1.148860931E0,1.601220245E0,9.560169525E0,9.761179696E0
3.237827500E-1,1.575623474E0,1.282682648E0,8.966054993E0,9.193367514E0
3.338397500E-1,1.560504913E0,1.143921204E0,8.365503845E0,8.586348810E0
3.438957500E-1,2.033670959E0,2.140848083E0,8.175249481E0,8.692166138E0
3.539527500E-1,1.855691071E0,2.175426178E0,7.726482697E0,8.238604449E0
3.640087500E-1,4.805007935E-1,2.289788361E0,6.839577026E0,7.228680768E0
3.740647500E-1,7.250921631E-1,2.508034515E0,6.984625397E0,7.456606984E0
3.841217500E-1,7.174580383E-1,2.381098480E0,7.605234833E0,8.001498164E0
3.941777500E-1,7.229965210E-1,1.862576752E0,8.307424622E0,8.544309215E0
4.042347500E-1,7.271878052E-1,1.389410706E0,8.751551056E0,8.890945400E0
4.142907500E-1,9.883946228E-1,1.154399414E0,9.214538269E0,9.339019084E0
4.243467500E-1,1.322350159E0,8.149053955E-1,9.251361694E0,9.380851451E0
4.344037500E-1,1.326092377E0,7.370672607E-1,9.473350067E0,9.594068513E0
4.444597500E-1,9.627978516E-1,8.813671875E-1,9.780960388E0,9.867673177E0
4.545167500E-1,4.195774841E-1,1.216669922E0,1.009006760E1,1.017181375E1
4.645727500E-1,5.200186157E-1,1.985471191E0,1.030936157E1,1.051168166E1
4.746287500E-1,1.266067200E0,3.021317139E0,1.014185989E1,1.065779553E1
4.846857500E-1,3.109932861E0,2.712958374E0,9.608968048E0,1.045772884E1
4.947417500E-1,3.679797821E0,1.662293243E0,8.831335144E0,9.710644225E0
5.047987500E-1,3.437152405E0,1.679357758E0,8.384364624E0,9.215846639E0
5.148547500E-1,3.627406769E0,1.440155182E0,8.093669128E0,8.985522065E0
5.249117500E-1,3.661086731E0,1.494941254E0,8.013286285E0,8.935947767E0
5.349677500E-1,3.665727081E0,1.459914093E0,7.898924103E0,8.829603965E0
5.450237500E-1,3.619473267E0,1.230890350E0,8.302484894E0,9.140401151E0
5.550807500E-1,3.333717499E0,6.204597473E-1,8.825946350E0,9.454944296E0
5.651367500E-1,3.048560486E0,-3.381468201E-1,9.026529236E0,9.533430356E0
5.751937500E-1,2.489772491E0,-1.156045990E0,8.776698761E0,9.195969255E0
5.852497500E-1,3.322191467E0,-2.127076721E0,1.099194214E1,1.167836476E1
5.953057500E-1,2.374661865E0,-3.123554535E0,1.017419266E1,1.090457739E1
6.053627500E-1,2.558479614E0,-3.520079956E0,8.865164795E0,9.875622901E0
6.154187500E-1,2.564616852E0,-3.045417023E0,9.013955383E0,9.854096412E0
6.254757500E-1,2.055375824E0,-2.307601318E0,7.145391083E0,7.784998866E0
6.355317500E-1,3.308569794E0,-2.239043884E0,5.994883575E0,7.204066954E0
6.455887500E-1,3.785927124E0,-1.944905548E0,6.401138763E0,7.687033189E0
6.556447500E-1,3.817661133E0,-1.841770020E0,7.088659058E0,8.259282085E0
6.657007500E-1,1.658551025E0,-2.050136719E0,8.126301270E0,8.543455062E0
6.757577500E-1,1.233884125E0,-2.320773926E0,8.876241760E0,9.257220395E0
6.858137500E-1,2.045496368E0,-3.205733643E0,8.798253937E0,9.584886849E0
6.958707500E-1,2.932102661E0,-3.899989929E0,8.306227112E0,9.633304537E0
7.059267500E-1,3.182232513E0,-3.898792419E0,7.521259460E0,9.049670158E0
7.159827500E-1,3.306923218E0,-4.001179504E0,6.903643799E0,8.637446167E0
7.260397500E-1,4.021387482E0,-4.088747406E0,6.367907867E0,8.569694466E0
7.360957500E-1,4.690046997E0,-3.930975494E0,5.882617035E0,8.488479979E0
7.461527500E-1,6.135141907E0,-3.590882721E0,4.745132446E0,8.546969455E0
7.562087500E-1,7.421716461E0,-3.009940796E0,4.106111298E0,9.000098267E0
7.662647500E-1,7.422764282E0,-3.166515198E0,3.534599762E0,8.810087603E0
7.763213750E-1,6.771169281E0,-3.311713257E0,3.041674805E0,8.128220208E0
7.863773750E-1,5.669609985E0,-3.520978088E0,1.208137665E0,6.782430295E0
7.964343750E-1,4.375401306E0,-3.726949768E0,-1.568588104E0,5.957747880E0
8.064903750E-1,4.079466705E0,-3.948788452E0,-2.523302765E0,6.213053652E0
8.165473750E-1,5.432053986E0,-3.777843933E0,-2.201921082E0,6.973361581E0
8.266033750E-1,7.779771881E0,-2.981050873E0,-9.557624817E-1,8.386000045E0
8.366593750E-1,1.116737732E1,-2.010918274E0,3.682342529E-1,1.135296018E1
8.467163750E-1,1.333037933E1,-1.782942352E0,2.947370911E-1,1.345231454E1
8.567723750E-1,1.457234665E1,-1.951192474E0,-4.189787292E-1,1.470836436E1
8.668293750E-1,1.474942841E1,-1.773961029E0,-1.208886108E0,1.490483082E1
8.768853750E-1,1.408690613E1,-1.316212921E0,-1.967209167E0,1.428437092E1
8.869413750E-1,1.316467392E1,-1.157093811E-1,-2.208507385E0,1.334913978E1
8.969983750E-1,1.240560242E1,1.149609375E0,-2.726430359E0,1.275358756E1
9.070543750E-1,1.318802536E1,2.369722137E0,-3.562142487E0,1.386464767E1
9.171113750E-1,1.441203003E1,4.027225342E0,-5.204527130E0,1.584336631E1
9.271673750E-1,1.521376282E1,5.731431427E0,-7.112908630E0,1.774546011E1
9.372233750E-1,1.615964584E1,7.774981842E0,-1.144385239E1,2.127313456E1
9.472803750E-1,1.706167007E1,1.035232224E1,-1.517484375E1,2.507084052E1
9.573363750E-1,1.532797531E1,1.056128769E1,-1.206865311E1,2.218422892E1
9.673933750E-1,1.463386871E1,9.460027771E0,-1.202404587E1,2.117120493E1
9.774493750E-1,1.459120743E1,9.166937256E0,-1.150103348E1,2.071738024E1
9.875063750E-1,1.267399429E1,7.354955292E0,-9.213939514E0,1.730959792E1
9.975623750E-1,1.107666595E1,5.534141693E0,-7.762857056E0,1.461441763E1
1.007618375E0,1.040351578E1,4.783153381E0,-7.043602753E0,1.344336403E1
1.017675375E0,1.015158966E1,4.048630829E0,-6.352489929E0,1.264121484E1
1.027731375E0,9.742640076E0,2.714455261E0,-6.023923187E0,1.177178634E1
1.037788375E0,9.213939514E0,1.204395447E0,-5.258564758E0,1.067706669E1
1.047844375E0,8.123008118E0,-2.052232361E-1,-5.205874329E0,9.650207510E0
1.057900375E0,6.760391693E0,-1.377285919E0,-6.629414062E0,9.568121193E0
1.067957375E0,5.034929810E0,-3.057092743E0,-8.339907074E0,1.021030774E1
1.078013375E0,4.384981384E0,-4.717889099E0,-9.746531982E0,1.168252648E1
1.088070375E0,3.878883820E0,-3.407514038E0,-7.150480499E0,8.819652089E0
1.098126375E0,4.142635345E0,-1.432521057E0,-3.768263855E0,5.780428761E0
1.108183375E0,5.817053375E0,-2.441123657E0,-3.166664886E0,7.058679847E0
1.118239375E0,7.194488983E0,-3.365601196E0,-2.654280396E0,8.374553574E0
1.128295375E0,7.774383087E0,-2.119891663E0,-2.139800262E0,8.337488723E0
1.138352375E0,7.289840698E0,-1.033750305E0,-2.864742737E0,7.900453661E0
1.148408375E0,6.953490143E0,-7.141648865E-1,-3.427871704E0,7.785329863E0
1.158465375E0,7.125931549E0,-6.619235229E-1,-3.480861511E0,7.958230963E0
1.168521375E0,7.187453613E0,-3.989204407E-1,-3.060984650E0,7.822292118E0
1.178577375E0,7.748636627E0,-8.391549683E-1,-2.800077209E0,8.281665474E0
1.188634375E0,8.687035217E0,-1.414259033E0,-2.937192078E0,9.278567065E0
1.198690375E0,9.352551270E0,-1.934427338E0,-3.050506439E0,1.002585727E1
1.208747375E0,9.874216461E0,-2.491568756E0,-3.381617889E0,1.073048951E1
1.218803375E0,9.173373871E0,-3.065774689E0,-3.877835999E0,1.042052660E1
1.228859375E0,9.140442352E0,-3.551514587E0,-4.766837311E0,1.090337930E1
1.238916375E0,1.054452255E1,-3.768563232E0,-4.776866455E0,1.217404936E1
1.248972375E0,1.159608582E1,-4.160298615E0,-4.813839569E0,1.322687953E1
1.259029375E0,1.207314377E1,-5.166955261E0,-5.448070679E0,1.421758423E1
1.269085375E0,1.275542496E1,-6.014792175E0,-5.414390717E0,1.510609869E1
1.279141375E0,1.308653641E1,-6.452931061E0,-5.076692963E0,1.544896650E1
1.289198375E0,1.320224579E1,-6.347250824E0,-4.448299713E0,1.530928663E1
1.299254375E0,1.310898972E1,-6.055956573E0,-3.761378174E0,1.492207047E1
1.309311375E0,1.329116089E1,-6.417155457E0,-3.013832703E0,1.506379864E1
1.319367375E0,1.293849426E1,-6.499783630E0,-2.613115997E0,1.471326600E1
1.329424375E0,1.221130646E1,-6.112389221E0,-2.741399231E0,1.392812181E1
1.339480375E0,1.152318741E1,-5.545218658E0,-2.989283752E0,1.313274973E1
1.349536375E0,1.103490280E1,-4.821773071E0,-3.221900024E0,1.246592215E1
1.359593375E0,1.120914047E1,-4.276457062E0,-3.804937592E0,1.258612193E1
1.369649375E0,1.077085190E1,-3.801794128E0,-3.976181488E0,1.209441642E1
1.379706375E0,9.533973999E0,-2.899470520E0,-3.535348206E0,1.057365956E1
1.389762375E0,9.240284729E0,-2.063608704E0,-2.838098145E0,9.884135968E0
1.399818375E0,9.154662781E0,-1.703158264E0,-1.279539185E0,9.399245673E0
1.409875375E0,7.881859589E0,-1.414708099E0,8.652008057E-1,8.054420030E0
1.419931375E0,7.428003387E0,-8.092172241E-1,1.095721436E0,7.551865485E0
1.429988375E0,8.606951752E0,5.673202515E-2,8.931925964E-1,8.653359463E0
1.440044375E0,9.142238617E0,1.133442993E0,1.586401062E0,9.347827998E0
1.450100375E0,1.013362701E1,2.035018158E0,1.677112427E0,1.047112226E1
1.460157375E0,9.204209747E0,3.440894623E0,4.689747620E-1,9.837538829E0
1.470213375E0,8.247249756E0,4.110751648E0,-2.091151428E-1,9.217328072E0
1.480270375E0,7.409591675E0,4.598437500E0,-6.960525513E-1,8.748266422E0
1.490326375E0,6.179898834E0,5.280569000E0,-2.790646820E0,8.594374221E0
1.500383375E0,5.550008698E0,6.164780273E0,-4.466412048E0,9.421037573E0
1.510439375E0,5.198838959E0,6.815926208E0,-6.228397980E0,1.059611806E1
1.520495375E0,5.134772186E0,7.278314667E0,-7.144792328E0,1.141874806E1
1.530552375E0,4.968767395E0,7.331304474E0,-8.315208435E0,1.214822481E1
1.540608375E0,5.312602386E0,7.410789185E0,-8.843310242E0,1.270227052E1
1.550665375E0,5.992488556E0,7.733518066E0,-8.962612152E0,1.326821907E1
1.560721375E0,5.847140808E0,7.812703400E0,-8.807085571E0,1.314504265E1
1.570777375E0,5.434299316E0,7.225923615E0,-8.671317902E0,1.252746324E1
1.580834375E0,6.310577087E0,6.476731567E0,-8.560248871E0,1.245187920E1
1.590890375E0,7.488627319E0,5.924080811E0,-8.542286224E0,1.281190566E1
1.600947375E0,8.403524780E0,5.194198608E0,-8.091274109E0,1.276979423E1
1.611003375E0,8.812025299E0,3.889661407E0,-7.288643188E0,1.207913802E1
1.621060375E0,8.196804657E0,2.217039642E0,-5.454956360E0,1.009254280E1
1.631116375E0,8.067922668E0,2.367776184E0,-4.427193604E0,9.502514585E0
1.641172375E0,9.252409515E0,2.596949615E0,-4.806953888E0,1.074514006E1
1.651229375E0,9.692494354E0,2.159708862E0,-4.935686188E0,1.108917433E1
1.661285375E0,9.265582123E0,1.923649750E0,-4.314777374E0,1.040042039E1
1.671342375E0,8.765771484E0,1.549278259E0,-2.808759155E0,9.334245595E0
1.681398375E0,9.082063751E0,-3.492237854E-1,-4.535568237E-2,9.088888621E0
1.691454375E0,9.347461853E0,-1.661694489E0,2.293380890E0,9.767080811E0
1.701511375E0,1.042971130E1,-1.495240631E0,1.969005432E0,1.071875015E1
1.711567375E0,9.516759796E0,-1.638642426E0,-4.764591980E-1,9.668551049E0
1.721624375E0,8.149952087E0,-1.767823792E0,-1.492097168E0,8.471910879E0
1.731680375E0,8.409063263E0,-1.939666443E0,-2.152224426E0,8.894195908E0
1.741736375E0,7.081024933E0,-1.976190491E0,-2.025438080E0,7.625525711E0
1.751793375E0,7.242389374E0,-2.260299683E0,-2.766397247E0,8.075525508E0
1.761849375E0,7.752378845E0,-2.004331970E0,-3.222199402E0,8.631297318E0
1.771906375E0,6.518943787E0,-1.625469818E0,-3.128344574E0,7.411161852E0
1.781962625E0,8.153544617E0,-2.524949341E0,-4.204157410E0,9.514756882E0
1.792018625E0,9.511969757E0,-3.009042664E0,-6.103407898E0,1.169544759E1
1.802075625E0,9.428593140E0,-2.436034241E0,-6.516698456E0,1.171750785E1
1.812131625E0,9.367819519E0,-2.071841583E0,-4.736151123E0,1.069951857E1
1.822188625E0,8.472980347E0,-1.769769745E0,-3.160976715E0,9.214947352E0
1.832244625E0,6.969057770E0,-1.741029510E0,-2.187101898E0,7.508819126E0
1.842301625E0,6.550228729E0,-1.301393738E0,-1.653311920E0,6.879866450E0
1.852357625E0,5.848338318E0,-8.662486267E-1,-1.436862030E0,6.084243606E0
1.862413625E0,8.234975281E0,-1.109043732E0,-1.489253082E0,8.441722017E0
1.872470625E0,9.990075531E0,-8.268804932E-1,-1.818119202E0,1.018778179E1
1.882526625E0,1.167811523E1,1.589694214E-1,-3.337459717E0,1.214669848E1
1.892583625E0,1.513023651E1,8.250842285E-1,-4.852159882E0,1.591063407E1
1.902639625E0,1.748723511E1,1.237177277E0,-4.801714783E0,1.817664612E1
1.912695625E0,1.688458832E1,8.469387817E-1,-3.580254822E0,1.728076539E1
1.922752625E0,1.548185532E1,-5.089416504E-2,-2.393522644E0,1.566586687E1
1.932808625E0,1.531764679E1,-1.628313904E0,-2.184856567E0,1.555812674E1
1.942865625E0,1.447519867E1,-2.764900360E0,-2.210902405E0,1.490181667E1
1.952921625E0,1.452669159E1,-3.532653809E0,-1.494043121E0,1.502453248E1
1.962977625E0,1.446112793E1,-3.328029327E0,-1.368454285E0,1.490210278E1
1.973034625E0,1.307845322E1,-2.791844330E0,-2.254312134E0,1.356179400E1
1.983090625E0,1.237057526E1,-2.914289703E0,-2.264191589E0,1.290932919E1
1.993147625E0,1.116273697E1,-2.815046082E0,-1.256786499E0,1.158061714E1
2.003203625E0,9.725126495E0,-2.489473114E0,-1.261875916E-1,1.003949625E1
2.013260625E0,8.425079956E0,-2.672991486E0,-9.624984741E-2,8.839463772E0
2.023316625E0,7.198380890E0,-3.303181000E0,-6.364764404E-1,7.945614791E0
2.033372625E0,6.970404968E0,-3.817511444E0,-5.084925842E-1,7.963573554E0
2.043429625E0,6.161337433E0,-4.030069427E0,2.377056885E-1,7.366141632E0
2.053485625E0,6.168672180E0,-4.207600250E0,9.602531433E-1,7.528512631E0
2.063542625E0,5.702092438E0,-4.246519318E0,1.554068298E0,7.277493577E0
2.073598625E0,5.538782043E0,-4.218377838E0,1.372346191E0,7.096206887E0
2.083654625E0,6.127956848E0,-4.456682281E0,1.232536926E0,7.676784442E0
2.093711625E0,5.245841217E0,-4.749174042E0,-3.888912964E-1,7.086941554E0
2.103767625E0,3.277883606E0,-4.940176849E0,-8.937913513E-1,5.995726079E0
2.113824625E0,1.444346466E0,-5.558241577E0,-1.184486847E0,5.863718550E0
2.123880625E0,8.812174988E-1,-6.699767761E0,-1.676363983E0,6.962300521E0
2.133936625E0,1.241368561E0,-6.862180023E0,-1.211131439E0,7.077948145E0
2.143993625E0,2.020348663E0,-6.226751404E0,-8.620573425E-1,6.602831561E0
2.154049625E0,2.903811493E0,-6.014193420E0,-3.830534363E-1,6.689497262E0
2.164106625E0,3.725303192E0,-6.585555267E0,-3.170407104E-1,7.572842060E0
2.174162625E0,3.750450897E0,-7.686515808E0,-7.194039917E-1,8.582887003E0
2.184219625E0,3.761827240E0,-9.357341309E0,-1.101708984E0,1.014519311E1
2.194275625E0,4.719086609E0,-9.974807281E0,-6.397695923E-1,1.105331913E1
2.204331625E0,6.509214020E0,-9.341773682E0,4.486170959E-1,1.139472948E1
2.214388625E0,8.379873962E0,-8.462651825E0,2.228415985E0,1.211629487E1
2.224444625E0,9.343420258E0,-8.167315979E0,2.937341766E0,1.275274594E1
2.234501625E0,1.086350922E1,-8.368497620E0,3.691323853E-1,1.371801165E1
2.244557625E0,1.109223358E1,-8.742719421E0,-2.192341003E0,1.429262564E1
2.254613625E0,1.053718781E1,-8.482410736E0,-4.503085785E0,1.425697725E1
2.264670625E0,9.513616333E0,-7.885452118E0,-5.965843964E0,1.372153581E1
2.274726625E0,7.914940796E0,-6.979535980E0,-6.755002899E0,1.252957599E1
2.284783625E0,7.195237427E0,-6.607409821E0,-7.533084869E0,1.233599099E1
2.294839625E0,7.512727203E0,-6.098917236E0,-7.529642029E0,1.226105096E1
2.304895625E0,7.657925262E0,-5.639522552E0,-7.082222443E0,1.185773624E1
2.314952625E0,7.921676788E0,-5.486091614E0,-6.706204376E0,1.173981863E1
2.325008625E0,7.049440613E0,-6.163882141E0,-6.992109833E0,1.168664434E1
2.335065625E0,6.119574280E0,-7.107519836E0,-7.380102997E0,1.193448565E1
2.345121625E0,6.831942902E0,-6.903494110E0,-6.663543091E0,1.177864514E1
2.355177625E0,7.566764832E0,-6.334377594E0,-5.184468842E0,1.114715151E1
2.365234625E0,7.536527710E0,-6.389313354E0,-3.424428864E0,1.045702100E1
2.375290625E0,7.019053802E0,-7.027436371E0,-2.408641205E0,1.022025101E1
2.385347625E0,6.652316437E0,-6.870861969E0,-2.042652283E0,9.779288651E0
2.395403625E0,5.596711578E0,-6.544839935E0,-2.091151428E0,8.861773218E0
2.405460625E0,5.072950745E0,-6.133046265E0,-2.589914246E0,8.369990534E0
2.415516625E0,5.210664368E0,-6.572831726E0,-2.031575317E0,8.630204999E0
2.425572625E0,5.589676208E0,-7.755073242E0,-1.778302002E-1,9.561237613E0
2.435629625E0,5.954916687E0,-7.715854797E0,7.783813477E-3,9.746563938E0
2.445685625E0,5.879922638E0,-7.444469147E0,-2.136058044E-1,9.488900808E0
2.455742625E0,5.449717255E0,-7.412884827E0,-5.583389282E-1,9.217484579E0
2.465798625E0,4.366719360E0,-7.247778168E0,-2.000889130E0,8.694945868E0
2.475854625E0,3.754492493E0,-6.790778503E0,-1.242416382E0,7.858402193E0
2.485911625E0,3.467090149E0,-6.067482605E0,-1.269210663E0,7.102531589E0
2.495967625E0,3.755240936E0,-5.625451813E0,-1.574276276E0,6.944486185E0
2.506024625E0,3.906576233E0,-5.283712463E0,-1.271905060E0,6.693033523E0
2.516080625E0,4.265080719E0,-4.806055756E0,-1.051413574E0,6.511110195E0
2.526136625E0,4.161346436E0,-4.289929047E0,-6.860234070E-1,6.015889252E0
2.536193625E0,4.298161926E0,-4.165687408E0,-9.909393311E-2,5.986398511E0
2.546249625E0,4.558021545E0,-4.133803711E0,-3.802093506E-1,6.165099568E0
2.556306625E0,5.083878021E0,-4.683011627E0,-1.158291321E0,7.008427243E0
2.566362625E0,5.654790802E0,-5.179529114E0,-1.493594055E0,7.812490260E0
2.576419625E0,5.541775818E0,-5.114115143E0,-2.277364197E0,7.877299067E0
2.586475625E0,5.811065826E0,-5.415139160E0,-3.022364960E0,8.498641545E0
2.596531625E0,6.599326630E0,-5.798641663E0,-3.649111633E0,9.512695349E0
2.606588625E0,7.554789734E0,-6.294111328E0,-3.707340546E0,1.050880865E1
2.616644625E0,9.331894226E0,-6.533463593E0,-3.525169373E0,1.192464739E1
2.626701625E0,1.089748856E1,-6.271208954E0,-2.775079193E0,1.287572845E1
2.636757625E0,1.156345367E1,-6.281238098E0,-2.196681976E0,1.334139515E1
2.646813625E0,1.009351044E1,-5.427713013E0,-1.545536041E0,1.156406949E1
2.656870625E0,7.989336090E0,-4.700225830E0,-8.241860962E-1,9.305960280E0
2.666926625E0,5.874533844E0,-4.000880127E0,-2.038760376E-1,7.110467995E0
2.676983625E0,4.108506317E0,-3.509601746E0,-2.089654541E-1,5.407475856E0
2.687039625E0,2.624941406E0,-2.920426941E0,-7.667056274E-1,4.000880956E0
2.697095625E0,1.847458191E0,-2.329006805E0,-1.216520233E0,3.212054785E0
2.707152625E0,5.842350769E-1,-4.389322357E0,-8.304730225E-1,4.505237710E0
2.717208625E0,2.026336212E0,-1.266636017E1,4.409829712E-1,1.283499842E1
2.727265625E0,9.044940948E0,-2.717314316E1,1.293310547E-1,2.863926313E1
2.737321625E0,1.432715652E1,-3.005480072E1,-6.083349609E-1,3.330057855E1
2.747377625E0,8.906927948E0,-2.567520813E1,4.962181091E-1,2.718080040E1
2.757434625E0,4.985532532E0,-1.858071121E1,1.899998932E0,1.933153796E1
2.767490625E0,2.926414490E0,-1.250020569E1,1.789079590E0,1.296224710E1
2.777547625E0,2.055824890E0,-8.649912415E0,1.444945221E0,9.007511724E0
2.787603625E0,1.911225586E0,-6.430627441E0,1.044228516E0,6.789415713E0
2.797660625E0,2.651436310E0,-4.417763214E0,5.986051941E-1,5.187010170E0
2.807716625E0,4.800966339E0,-4.220922546E0,4.752616882E-1,6.410252616E0
2.817772625E0,5.433700562E0,-6.049969025E0,7.011419678E-1,8.162035717E0
2.827829625E0,6.153703308E0,-8.410709839E0,7.656578064E-1,1.044960938E1
2.837885625E0,7.061715088E0,-9.803413696E0,3.040177917E-1,1.208582504E1
2.847942625E0,2.870730286E0,-1.122680374E1,-5.945635986E-1,1.160326336E1
2.857998625E0,-4.805007935E-2,-1.185444855E1,-9.819580078E-1,1.189514610E1
2.868054625E0,-1.369502106E0,-1.226324844E1,-1.527124329E0,1.243362003E1
2.878111625E0,-1.870959320E0,-1.221310272E1,-1.725312195E0,1.247545867E1
2.888167625E0,-1.313668213E0,-1.187360870E1,-2.066303101E0,1.212344490E1
2.898224625E0,-1.618284760E0,-1.128772705E1,-2.630030823E0,1.170250784E1
2.908280625E0,-2.470462646E0,-1.060978683E1,-3.132535858E0,1.133505815E1
2.918336625E0,-2.693049774E0,-9.779014435E0,-3.446133728E0,1.071249168E1
2.928393625E0,-2.473606110E0,-8.706195374E0,-3.488495636E0,9.699802414E0
2.938449625E0,-2.298470306E0,-7.321125641E0,-3.357368317E0,8.375784645E0
2.948506625E0,-2.490221558E0,-6.470744019E0,-3.046165466E0,7.573034769E0
2.958562625E0,-3.219055939E0,-6.860533447E0,-2.806364136E0,8.081145957E0
2.968618625E0,-3.355721741E0,-7.756719818E0,-3.224295044E0,9.045642557E0
2.978675625E0,-2.669997711E0,-8.482710114E0,-4.223167877E0,9.844816177E0
2.988731625E0,-1.567540283E0,-9.056317291E0,-5.570366364E0,1.074723438E1
2.998788625E0,-8.936416626E-1,-9.094038849E0,-6.462810516E0,1.119232138E1
3.008844625E0,-7.024891663E-1,-9.157357178E0,-5.924380188E0,1.092927089E1
3.018901625E0,-4.227209473E-1,-9.281000061E0,-4.957091675E0,1.053035674E1
3.028957625E0,-3.796105957E-1,-9.439071350E0,-4.116290131E0,1.030456290E1
3.039013625E0,-4.083508301E-1,-9.579928436E0,-3.495531006E0,1.020590595E1
3.049070625E0,-4.466711426E-1,-9.679471436E0,-2.986589355E0,1.013959557E1
3.059126625E0,-4.661306763E-1,-9.779313812E0,-2.536325684E0,1.011361480E1
3.069183625E0,-3.463796997E-1,-9.617051239E0,-2.101180573E0,9.850005748E0
3.079239625E0,-3.121009827E-1,-9.456285553E0,-1.888323212E0,9.648031304E0
3.089295625E0,-1.760339355E-1,-9.185947723E0,-2.075733490E0,9.419198110E0
3.099352625E0,-2.746788025E-1,-9.038354645E0,-2.335144043E0,9.339175597E0
3.109408625E0,-1.445993042E-1,-8.859776001E0,-2.349364471E0,9.167118040E0
3.119465625E0,-3.914360046E-1,-9.124575348E0,-2.364033966E0,9.433968095E0
3.129521625E0,-5.695655823E-1,-9.384884033E0,-2.381397858E0,9.699046810E0
3.139577625E0,-6.836283875E-1,-9.485774231E0,-2.250719604E0,9.773075221E0
3.149634625E0,-8.720864868E-1,-9.541608124E0,-2.200573883E0,9.830836477E0
3.159690625E0,-7.379653931E-1,-9.491761780E0,-2.270478516E0,9.787400436E0
3.169747625E0,-2.859054565E-1,-8.969048767E0,-2.278412018E0,9.258333491E0
3.179803625E0,1.600172424E-1,-8.542585602E0,-2.226470032E0,8.829413519E0
3.189859625E0,-1.686991882E-1,-9.063502350E0,-2.285447388E0,9.348732750E0
3.199916625E0,1.742376709E-1,-9.330097961E0,-2.166295166E0,9.579870640E0
3.209972625E0,6.316864014E-2,-9.569150848E0,-2.142344971E0,9.806236802E0
3.220029625E0,2.237846375E-1,-9.494605865E0,-2.027683411E0,9.711288283E0
3.230085625E0,3.415896606E-1,-9.471553802E0,-1.461710358E0,9.589766009E0
3.240141625E0,3.200344849E-1,-9.658365326E0,-1.128952332E0,9.729387247E0
3.250198625E0,2.395019531E-1,-9.480235748E0,-1.211879883E0,9.560380948E0
3.260254625E0,-2.948867798E-2,-9.367071075E0,-1.605860596E0,9.503771797E0
3.270311625E0,-1.025367737E-1,-9.356592865E0,-2.107467499E0,9.591546439E0
3.280367625E0,-1.663041687E-1,-9.272767181E0,-2.615211639E0,9.635932762E0
3.290424625E0,-3.106040955E-1,-9.236243134E0,-3.006348267E0,9.718168141E0
3.300480625E0,-4.014651489E-1,-9.255852356E0,-3.214116211E0,9.806249034E0
3.310536625E0,-2.350112915E-1,-9.245823212E0,-3.304528198E0,9.821424733E0
3.320593625E0,6.930587769E-2,-9.157207489E0,-3.308569794E0,9.736831434E0
3.330649625E0,2.829116821E-1,-9.126970367E0,-3.217109985E0,9.681499045E0
3.340706625E0,4.317022705E-1,-9.134903870E0,-3.041525116E0,9.637619550E0
3.350762625E0,5.134323120E-1,-9.212742004E0,-2.870281219E0,9.663164195E0
3.360818625E0,5.786965942E-1,-9.245074768E0,-2.755320282E0,9.664268574E0
3.370875625E0,5.930667114E-1,-9.206155701E0,-2.688259735E0,9.608942258E0
3.380931625E0,5.816903687E-1,-9.129664764E0,-2.661615143E0,9.527504267E0
3.390988625E0,5.013075256E-1,-9.078920288E0,-2.639161835E0,9.468013415E0
3.401044625E0,3.113525391E-1,-9.062454529E0,-2.655627594E0,9.448670828E0
3.411100625E0,9.041198730E-2,-9.032816162E0,-2.663860474E0,9.417860414E0
3.421157625E0,-7.364685059E-2,-8.976233826E0,-2.637215881E0,9.355912845E0
3.431213625E0,-1.254391479E-1,-8.819060669E0,-2.634521484E0,9.205013282E0
3.441270625E0,-1.294807434E-1,-8.634943542E0,-2.615660706E0,9.023341741E0
3.451326625E0,7.170089722E-2,-8.546627197E0,-2.635868683E0,8.944147873E0
3.461382625E0,3.730242920E-1,-8.677455139E0,-2.728675690E0,9.104012623E0
3.471439625E0,5.099894714E-1,-9.057514801E0,-2.833008728E0,9.503925614E0
3.481495625E0,6.273454285E-1,-9.424850922E0,-2.944227448E0,9.893930081E0
3.491552625E0,7.188052368E-1,-9.665400696E0,-3.021616516E0,1.015218292E1
3.501608625E0,7.939489746E-1,-9.883497162E0,-3.093766479E0,1.038678305E1
3.511665625E0,8.969348145E-1,-1.014021332E1,-3.137325897E0,1.065228764E1
3.521721625E0,9.994715881E-1,-1.070932983E1,-3.249592438E0,1.123603756E1
3.531777625E0,1.108444977E0,-1.154833511E1,-3.377127228E0,1.208295007E1
3.541834625E0,1.164877625E0,-1.237895782E1,-3.462749176E0,1.290682643E1
3.551890625E0,1.405577087E0,-1.248972748E1,-3.408561859E0,1.302256631E1
3.561947625E0,1.558409271E0,-1.118983063E1,-2.873724060E0,1.165758289E1
3.572003625E0,1.637444916E0,-9.591155090E0,-2.082469482E0,9.950284466E0
3.582059625E0,1.743873596E0,-8.711135101E0,-1.436263275E0,8.999323423E0
3.592116625E0,1.839375000E0,-8.574618988E0,-9.955796814E-1,8.826016660E0
3.602172625E0,2.052232361E0,-8.894803162E0,-6.945556641E-1,9.154866931E0
3.612229625E0,2.325563965E0,-9.152866516E0,-5.126838684E-1,9.457592609E0
3.622285625E0,2.400108948E0,-9.368118896E0,-4.068539429E-1,9.679240918E0
3.632341625E0,2.579735413E0,-9.455237732E0,-3.655398560E-1,9.807658984E0
3.642398625E0,2.774181061E0,-9.477840729E0,-3.495231628E-1,9.881685680E0
3.652454625E0,2.987637177E0,-9.495503998E0,-4.555027771E-1,9.964840935E0
3.662511625E0,3.113974457E0,-9.549990692E0,-6.227050781E-1,1.006414034E1
3.672567625E0,3.265459442E0,-9.661658478E0,-7.240443420E-1,1.022424130E1
3.682623625E0,3.435805206E0,-9.704768829E0,-7.451504517E-1,1.032194481E1
3.692680625E0,3.617976379E0,-9.718390503E0,-7.713459778E-1,1.039864615E1
3.702736625E0,3.775897980E0,-9.706415405E0,-7.884104919E-1,1.044478323E1
3.712793625E0,3.859573975E0,-9.621691589E0,-7.435038757E-1,1.039355850E1
3.722849625E0,3.934568024E0,-9.496851196E0,-7.056326294E-1,1.030383063E1
3.732905625E0,3.882326660E0,-9.298962708E0,-7.319778442E-1,1.010341325E1
3.742962625E0,3.983815613E0,-9.148375854E0,-8.975335693E-1,1.001843970E1
3.753018625E0,4.176614685E0,-9.129365387E0,-1.108145599E0,1.010036679E1
3.763075625E0,4.065695343E0,-9.082063751E0,-1.155297546E0,1.001740850E1
3.773131625E0,3.873944092E0,-8.925489349E0,-1.165326691E0,9.799479029E0
3.783187667E0,3.778891754E0,-8.813821564E0,-1.157542877E0,9.659367420E0
3.793244667E0,3.606150970E0,-8.805588684E0,-1.264420624E0,9.599035181E0
3.803300667E0,3.567980347E0,-8.847202148E0,-1.383572845E0,9.639385013E0
3.813357667E0,3.439846802E0,-8.894803162E0,-1.381028137E0,9.636249686E0
3.823413667E0,3.202440491E0,-8.906029816E0,-1.370400238E0,9.563001045E0
3.833470667E0,2.934048615E0,-9.014853516E0,-1.541793823E0,9.604860924E0
3.843526667E0,2.658621368E0,-9.135502625E0,-1.781744843E0,9.679891036E0
3.853582667E0,2.629282379E0,-9.199419708E0,-2.044448547E0,9.783773232E0
3.863639667E0,2.784060516E0,-9.321266327E0,-2.292632446E0,9.994656694E0
3.873695667E0,2.921175385E0,-9.329199829E0,-2.499651947E0,1.009036644E1
3.883752667E0,2.815944214E0,-9.402397614E0,-2.722089386E0,1.018549917E1
3.893808667E0,2.869233398E0,-9.433981934E0,-2.894381104E0,1.027667054E1
3.903864667E0,2.768792267E0,-9.183702393E0,-2.879262543E0,1.001482666E1
3.913921667E0,2.807112579E0,-8.961714020E0,-2.753823395E0,9.786508187E0
3.923977667E0,2.807561646E0,-8.906179504E0,-2.617606659E0,9.698159639E0
3.934034667E0,2.843337250E0,-8.884474640E0,-2.480641479E0,9.652566420E0
3.944090667E0,2.937940521E0,-8.908873901E0,-2.333796844E0,9.666754182E0
3.954146667E0,2.965932312E0,-8.836873627E0,-2.171833649E0,9.570995318E0
3.964203667E0,2.926713867E0,-8.832233276E0,-2.043999481E0,9.526380876E0
3.974259667E0,3.029999084E0,-8.972790985E0,-1.997595978E0,9.678959769E0
3.984316667E0,3.132685547E0,-9.181756439E0,-2.078727264E0,9.921667052E0
3.994372667E0,3.216211853E0,-9.362730103E0,-2.145039368E0,1.012945840E1
4.004428667E0,3.185375977E0,-9.501491547E0,-2.158960419E0,1.025114978E1
4.014485667E0,3.160228271E0,-9.636211395E0,-2.127675476E0,1.036197933E1
4.024541667E0,3.288810883E0,-9.609566803E0,-2.090402985E0,1.036965939E1
4.034598667E0,3.338208160E0,-9.515711975E0,-2.006577301E0,1.028196288E1
4.044654667E0,3.333118744E0,-9.395212555E0,-1.884281616E0,1.014545301E1
4.054710667E0,3.200195160E0,-9.275611267E0,-1.767075348E0,9.969993416E0
4.064767667E0,3.138224030E0,-9.202563171E0,-1.703607330E0,9.871063616E0
4.074823667E0,3.088377686E0,-9.144783325E0,-1.683099976E0,9.797855088E0
4.084880667E0,2.977308655E0,-9.073232117E0,-1.682650909E0,9.696350961E0
4.094936667E0,2.895877991E0,-8.992549896E0,-1.661993866E0,9.592407757E0
4.104993667E0,2.797831879E0,-8.915909271E0,-1.590891724E0,9.479042031E0
4.115049667E0,2.634371796E0,-8.828940125E0,-1.528770905E0,9.339552396E0
4.125105667E0,2.509830780E0,-8.775351563E0,-1.477577362E0,9.246041339E0
4.135162667E0,2.380948792E0,-8.747210083E0,-1.375339966E0,9.169196334E0
4.145218667E0,2.214345245E0,-8.745862885E0,-1.254690857E0,9.108660253E0
4.155275667E0,2.051034851E0,-8.872200165E0,-1.184187469E0,9.182863371E0
4.165331667E0,1.939217377E0,-9.228609009E0,-1.139729919E0,9.498777425E0
4.175387667E0,1.850302277E0,-9.643546143E0,-1.066532135E0,9.877200591E0
4.185444667E0,1.785337372E0,-9.982291718E0,-9.846524048E-1,1.018838151E1
4.195500667E0,1.633553009E0,-1.012958542E1,-8.596623230E-1,1.029640789E1
4.205557667E0,1.547781372E0,-1.006312363E1,-7.056326294E-1,1.020588074E1
4.215613667E0,1.442849579E0,-9.902357941E0,-5.391787720E-1,1.002143809E1
4.225669667E0,1.479074249E0,-9.613309021E0,-4.290078735E-1,9.735883048E0
4.235726667E0,1.494941254E0,-9.327253876E0,-3.137475586E-1,9.451505263E0
4.245782667E0,1.617835693E0,-9.169182587E0,-2.243833923E-1,9.313519718E0
4.255839667E0,1.733245697E0,-9.091943207E0,-1.207987976E-1,9.256466079E0
4.265895667E0,1.720522156E0,-9.234297180E0,-4.490661621E-4,9.393212502E0
4.275951667E0,1.719474335E0,-9.458680573E0,1.850152588E-1,9.615480269E0
4.286008667E0,1.816772003E0,-9.735305328E0,4.288581848E-1,9.912656036E0
4.296064667E0,1.886826324E0,-9.887688446E0,7.044351196E-1,1.009072471E1
4.306121667E0,1.987267456E0,-9.971065063E0,9.056167603E-1,1.020742436E1
4.316177667E0,1.905088348E0,-9.839338989E0,1.131946106E0,1.008579473E1
4.326233667E0,1.845512238E0,-9.769134979E0,1.412313080E0,1.004173998E1
4.336290667E0,1.616488495E0,-9.637558594E0,1.686842194E0,9.916703449E0
4.346346667E0,1.268013153E0,-9.415570221E0,1.956132202E0,9.699859439E0
4.356403667E0,1.043629761E0,-9.203161926E0,2.177821198E0,9.514738971E0
4.366459667E0,7.409591675E-1,-9.057065735E0,2.273921356E0,9.367506528E0
4.376515667E0,3.969744873E-1,-8.932524719E0,2.366428986E0,9.249193086E0
4.386572667E0,1.284329224E-1,-8.803792419E0,2.532284088E0,9.161643885E0
4.396628667E0,-1.333726501E-1,-9.112151184E0,2.658771057E0,9.493058043E0
4.406685667E0,-3.362008667E-1,-9.705816650E0,2.662962341E0,1.007011799E1
4.416741667E0,-4.116439819E-1,-9.797575836E0,2.792143707E0,1.019598007E1
4.426798667E0,-9.406439209E-1,-1.008662476E1,3.168461151E0,1.061432786E1
4.436854667E0,-1.858984222E0,-1.030651749E1,3.837120667E0,1.115363708E1
4.446910667E0,-2.790048065E0,-1.028376480E1,4.441414032E0,1.154410435E1
4.456967667E0,-3.510948944E0,-1.020113663E1,4.701423340E0,1.176831901E1
4.467023667E0,-3.755091248E0,-1.000728973E1,4.293222198E0,1.151860734E1
4.477080667E0,-3.873345337E0,-1.016102005E1,3.456611938E0,1.141040309E1
4.487136667E0,-3.844006348E0,-1.006072861E1,2.501448212E0,1.105675757E1
4.497192667E0,-3.814367981E0,-9.976004791E0,1.558409271E0,1.079345701E1
4.507249667E0,-4.158502350E0,-9.927355957E0,9.535171509E-1,1.080531041E1
4.517305667E0,-4.533023529E0,-9.874366150E0,3.882925415E-1,1.087208261E1
4.527362667E0,-4.747527466E0,-9.794582062E0,-1.889071655E-1,1.088616281E1
4.537418667E0,-4.887336731E0,-9.452243958E0,-6.164181519E-1,1.065884363E1
4.547474667E0,-4.870721283E0,-8.977281647E0,-8.372090149E-1,1.024775246E1
4.557531667E0,-4.887037354E0,-8.597820740E0,-9.496252441E-1,9.935161985E0
4.567587667E0,-4.873715057E0,-8.324040070E0,-9.132508850E-1,9.689002463E0
4.577644667E0,-4.666096802E0,-8.331524506E0,-4.824467468E-1,9.561355281E0
4.587700667E0,-4.463118896E0,-8.565188599E0,-3.143463135E-3,9.658255324E0
4.597756667E0,-4.297712860E0,-8.831035767E0,3.790118408E-1,9.828589854E0
4.607813667E0,-4.145928497E0,-9.007967834E0,6.581813049E-1,9.938078800E0
4.617869667E0,-3.966900787E0,-9.015751648E0,8.815168762E-1,9.889244240E0
4.627926667E0,-3.801644440E0,-8.965755615E0,1.038540344E0,9.793663270E0
4.637982667E0,-3.629951477E0,-8.995393982E0,1.136586456E0,9.766549513E0
4.648038667E0,-3.477867737E0,-9.138945465E0,1.201251984E0,9.851847265E0
4.658095667E0,-3.392395477E0,-9.417067108E0,1.374591522E0,1.010341536E1
4.668151667E0,-3.328478394E0,-9.830357666E0,1.671573944E0,1.051231943E1
4.678208667E0,-3.086731110E0,-1.021146515E1,1.939965820E0,1.084275780E1
4.688264667E0,-2.743045807E0,-1.047746201E1,2.279160461E0,1.106779485E1
4.698320667E0,-2.358345795E0,-1.057685532E1,2.631976776E0,1.115163508E1
4.708377667E0,-1.915566559E0,-1.049123337E1,3.047362976E0,1.109151901E1
4.718433667E0,-1.532662811E0,-1.029753616E1,3.323239288E0,1.092850519E1
4.728490667E0,-1.296603699E0,-1.014829651E1,3.897445221E0,1.094802185E1
4.738546667E0,-1.040785675E0,-9.939929810E0,4.442761230E0,1.093725591E1
4.748602667E0,-6.487509155E-1,-9.833501129E0,4.746629333E0,1.093842366E1
4.758659667E0,-1.984872437E-1,-9.744436340E0,4.911735992E0,1.091414620E1
4.768715667E0,3.628454590E-1,-9.601333923E0,5.013224945E0,1.083742102E1
4.778772750E0,7.918533325E-1,-9.448052673E0,4.956043854E0,1.069836911E1
4.788828750E0,1.049018555E0,-9.298064575E0,4.907095642E0,1.056570075E1
4.798885750E0,1.195863190E0,-9.132059784E0,4.962480469E0,1.046187445E1
4.808941750E0,1.243613892E0,-8.955277405E0,5.159620514E0,1.040986324E1
4.818997750E0,1.090182953E0,-8.751251678E0,5.425467682E0,1.035415880E1
4.829054750E0,8.937913513E-1,-8.629854126E0,5.560935974E0,1.030520520E1
4.839110750E0,7.735913086E-1,-8.450976105E0,5.431155853E0,1.007546002E1
4.849167750E0,5.742059326E-1,-8.317603455E0,5.171894989E0,9.811255651E0
4.859223750E0,4.478686523E-1,-8.164621582E0,4.846172333E0,9.505104849E0
4.869279750E0,1.966909790E-1,-8.184380493E0,4.633464661E0,9.407006227E0
4.879336750E0,5.059478760E-2,-8.250542908E0,4.560416565E0,9.427163802E0
4.889392750E0,-1.392105103E-2,-8.314909058E0,4.589905243E0,9.497638473E0
4.899449750E0,-2.529739380E-2,-8.338410187E0,4.662354584E0,9.553390742E0
4.909505750E0,3.562591553E-2,-8.283773804E0,4.687502289E0,9.518132976E0
4.919561750E0,2.739303589E-2,-8.237220612E0,4.726421356E0,9.496926483E0
4.929618750E0,1.541793823E-2,-8.288863220E0,4.814138947E0,9.585479904E0
4.939674750E0,3.308120728E-2,-8.417595520E0,4.930596771E0,9.755398158E0
4.949731750E0,3.293151855E-2,-8.570278015E0,5.035827942E0,9.940337660E0
4.959787750E0,3.502716064E-2,-8.703201599E0,5.098547516E0,1.008673048E1
4.969843750E0,-1.227447510E-2,-8.775052185E0,5.110372925E0,1.015468379E1
4.979900750E0,-9.819580078E-2,-8.741970978E0,5.091063080E0,1.011684844E1
4.989956750E0,-1.788780212E-1,-8.597671051E0,5.000202026E0,9.947560764E0
5.000013750E0,-3.173400879E-1,-8.436755676E0,4.894821167E0,9.759038135E0
5.010069750E0,-4.447251892E-1,-8.294850769E0,4.804708557E0,9.596226034E0
5.020125750E0,-6.035449219E-1,-8.219108276E0,4.713398438E0,9.493899734E0
5.030182750E0,-7.180567932E-1,-8.184230804E0,4.663252716E0,9.446860077E0
5.040238750E0,-8.033793640E-1,-8.259673920E0,4.699028320E0,9.536692237E0
5.050295750E0,-8.568182373E-1,-8.444539490E0,4.781057739E0,9.741811833E0
5.060351750E0,-8.448431396E-1,-8.611442413E0,4.878056030E0,9.933082654E0
5.070407750E0,-7.758366394E-1,-8.680299225E0,4.974605255E0,1.003475035E1
5.080464750E0,-7.095245361E-1,-8.645272064E0,5.060676270E0,1.004263902E1
5.090520750E0,-6.313870239E-1,-8.561296692E0,5.228028259E0,1.005120541E1
5.100577750E0,-5.249583435E-1,-8.442443848E0,5.351671143E0,1.000953662E1
5.110633750E0,-4.409829712E-1,-8.331524506E0,5.427413635E0,9.953169613E0
5.120689750E0,-3.005749512E-1,-8.270152130E0,5.482199707E0,9.926745448E0
5.130746750E0,-1.706451416E-1,-8.239166565E0,5.524411926E0,9.921295912E0
5.140802750E0,-2.230361938E-2,-8.258027344E0,5.548661499E0,9.949027967E0
5.150859750E0,7.963439941E-2,-8.280031586E0,5.561983795E0,9.975015210E0
5.160915750E0,1.107696533E-1,-8.299940186E0,5.537584534E0,9.978282391E0
5.170971750E0,6.586303711E-2,-8.329877930E0,5.464087372E0,9.962301695E0
5.181028750E0,-3.083587646E-2,-8.352480927E0,5.341641998E0,9.914536183E0
5.191084750E0,-1.261875916E-1,-8.433911591E0,5.234315186E0,9.926975546E0
5.201141750E0,-1.936972046E-1,-8.486901398E0,5.124144287E0,9.915738430E0
5.211197750E0,-2.534230042E-1,-8.477171631E0,5.003345490E0,9.846833408E0
5.221253750E0,-2.971321106E-1,-8.474028168E0,4.894072723E0,9.790270104E0
5.231310750E0,-3.397933960E-1,-8.476722565E0,4.818779297E0,9.756583362E0
5.241366750E0,-3.637435913E-1,-8.463699646E0,4.788542175E0,9.731220749E0
5.251423750E0,-3.287164307E-1,-8.441994781E0,4.801265717E0,9.717380453E0
5.261479750E0,-1.992356873E-1,-8.423134003E0,4.846621399E0,9.720011331E0
5.271536750E0,-6.855743408E-2,-8.414302368E0,4.890629883E0,9.732597039E0
5.281592750E0,3.727249146E-2,-8.433462524E0,4.930297394E0,9.768956535E0
5.291648750E0,6.451583862E-2,-8.461903381E0,4.933590546E0,9.795319638E0
5.301705750E0,4.969665527E-2,-8.439599762E0,4.951702881E0,9.785125207E0
5.311761750E0,4.864883423E-2,-8.412506104E0,5.009033661E0,9.790967463E0
5.321818750E0,6.137237549E-3,-8.378676453E0,5.068011017E0,9.792190380E0
5.331874750E0,-6.885681152E-2,-8.353528748E0,5.103636932E0,9.789448081E0
5.341930750E0,-1.272354126E-1,-8.309969330E0,5.112767944E0,9.757672631E0
5.351987750E0,-1.766326904E-1,-8.275989990E0,5.116809540E0,9.731646792E0
5.362043750E0,-2.046244812E-1,-8.230035553E0,5.143005066E0,9.707000437E0
5.372100750E0,-2.384541321E-1,-8.202642517E0,5.175786896E0,9.702008793E0
5.382156750E0,-2.862048340E-1,-8.220455475E0,5.209766235E0,9.736501715E0
5.392212750E0,-3.200344849E-1,-8.224646759E0,5.219496002E0,9.746300575E0
5.402269750E0,-3.441343689E-1,-8.248596954E0,5.217400360E0,9.766219673E0
5.412325750E0,-3.673361206E-1,-8.271948395E0,5.201383667E0,9.778264576E0
5.422382750E0,-4.013154602E-1,-8.300688629E0,5.192851410E0,9.799397511E0
5.432438750E0,-4.177812195E-1,-8.342601471E0,5.185816040E0,9.831898517E0
5.442494750E0,-4.328997803E-1,-8.368796997E0,5.166506195E0,9.844640758E0
5.452551750E0,-4.531077576E-1,-8.376730499E0,5.119803314E0,9.827884130E0
5.462607750E0,-4.549040222E-1,-8.360115051E0,5.091212769E0,9.798923859E0
5.472664750E0,-4.604425049E-1,-8.322992249E0,5.055137787E0,9.748775580E0
5.482720750E0,-4.653822327E-1,-8.308771820E0,5.015919342E0,9.716569180E0
5.492776750E0,-4.429289246E-1,-8.299640808E0,4.980892181E0,9.689659978E0
5.502833750E0,-3.974235535E-1,-8.306227112E0,4.940027161E0,9.672394877E0
5.512889750E0,-3.508703613E-1,-8.325387268E0,4.912185059E0,9.672887119E0
5.522946750E0,-3.005749512E-1,-8.356971588E0,4.917723541E0,9.701202207E0
5.533002750E0,-2.613565063E-1,-8.377478943E0,4.928501129E0,9.723198241E0
5.543058750E0,-2.203417969E-1,-8.395740967E0,4.943919067E0,9.745735100E0
5.553115750E0,-1.895059204E-1,-8.410560150E0,4.979395294E0,9.775879092E0
5.563171750E0,-1.633103943E-1,-8.414601746E0,5.005740509E0,9.792325100E0
5.573228750E0,-1.576222229E-1,-8.412356415E0,5.013524323E0,9.794284627E0
5.583284750E0,-1.504371643E-1,-8.408763885E0,5.009333038E0,9.788940643E0
5.593340750E0,-1.639091492E-1,-8.405021667E0,4.989125061E0,9.775613756E0
5.603397750E0,-1.892065430E-1,-8.381221161E0,4.970713348E0,9.746212518E0
5.613453750E0,-2.182461548E-1,-8.355474701E0,4.962330780E0,9.720407174E0
5.623510750E0,-2.371069336E-1,-8.354726257E0,4.958738251E0,9.718372064E0
5.633566750E0,-2.591111755E-1,-8.351582794E0,4.981640625E0,9.727940023E0
5.643622750E0,-2.607577515E-1,-8.356971588E0,4.988675995E0,9.736213685E0
5.653679750E0,-2.868035889E-1,-8.351882172E0,4.979994049E0,9.728131004E0
5.663735750E0,-2.911445618E-1,-8.364006958E0,4.978497162E0,9.737905911E0
5.673792750E0,-3.141966248E-1,-8.389454041E0,4.986131287E0,9.764382409E0
5.683848750E0,-3.171903992E-1,-8.399333496E0,5.002746735E0,9.781456324E0
5.693904750E0,-3.162922668E-1,-8.402926025E0,4.999752960E0,9.782981971E0
5.703961750E0,-3.064128113E-1,-8.405470734E0,4.997357941E0,9.783629871E0
5.714017750E0,-2.788700867E-1,-8.394543457E0,5.000950470E0,9.775256210E0
5.724074750E0,-2.317181396E-1,-8.383616180E0,4.999752960E0,9.764028022E0
5.734130750E0,-2.137554932E-1,-8.380772095E0,4.972958679E0,9.747479179E0
5.744186750E0,-2.031275940E-1,-8.394543457E0,4.963528290E0,9.754293094E0
5.754243750E0,-1.758842468E-1,-8.411757660E0,4.977299652E0,9.775587656E0
5.764299750E0,-1.480421448E-1,-8.412057037E0,5.004842377E0,9.789436516E0
5.774356750E0,-1.064286804E-1,-8.395890656E0,5.006039886E0,9.775619792E0
5.784412167E0,-7.963439941E-2,-8.415499878E0,5.002896423E0,9.790605316E0
5.794468167E0,-9.220825195E-2,-8.403973846E0,4.996609497E0,9.777596087E0
5.804525167E0,-1.224453735E-1,-8.386609955E0,4.985981598E0,9.757573054E0
5.814581167E0,-1.692979431E-1,-8.372988281E0,4.987179108E0,9.747181644E0
5.824638167E0,-1.992356873E-1,-8.355774078E0,4.991819458E0,9.735343692E0
5.834694167E0,-1.832189941E-1,-8.307274933E0,4.994513855E0,9.694821022E0
5.844751167E0,-1.718426514E-1,-8.231083374E0,4.956043854E0,9.609507484E0
5.854807167E0,-1.793270874E-1,-8.193960571E0,4.931195526E0,9.565032011E0
5.864863167E0,-1.889071655E-1,-8.224347382E0,4.933590546E0,9.592491410E0
5.874920167E0,-2.134561157E-1,-8.310418396E0,4.942272491E0,9.671332628E0
5.884976167E0,-2.127076721E-1,-8.379724274E0,4.947511597E0,9.733596173E0
5.895033167E0,-1.812730408E-1,-8.423433380E0,4.952002258E0,9.772891905E0
5.905089167E0,-1.559756470E-1,-8.417296143E0,4.932991791E0,9.757541225E0
5.915145167E0,-1.097218323E-1,-8.394094391E0,4.910688171E0,9.725621720E0
5.925202167E0,-5.942642212E-2,-8.389903107E0,4.898413696E0,9.715372478E0
5.935258167E0,-5.044509888E-2,-8.379125519E0,4.865482178E0,9.689437857E0
5.945315167E0,-3.667373657E-2,-8.364306335E0,4.856949921E0,9.672276256E0
5.955371167E0,-1.317260742E-2,-8.351582794E0,4.867128754E0,9.666335965E0
5.965427167E0,3.128494263E-2,-8.396489410E0,4.879253540E0,9.711288703E0
5.975484167E0,5.538482666E-2,-8.484057312E0,4.873415680E0,9.784297437E0
5.985540167E0,5.792953491E-2,-8.554111633E0,4.863835602E0,9.840379994E0
5.995597167E0,9.131011963E-2,-8.624764709E0,4.871469727E0,9.905862967E0
6.005653167E0,1.531315613E-1,-8.702902222E0,4.898862762E0,9.988133595E0
6.015709167E0,1.752854919E-1,-8.743617554E0,4.894521790E0,1.002187190E1
6.025766167E0,1.661544800E-1,-8.724906464E0,4.851261749E0,9.984304716E0
6.035822167E0,1.776805115E-1,-8.708440704E0,4.834646301E0,9.962043702E0
6.045879167E0,2.079176331E-1,-8.713081055E0,4.877906342E0,9.987741561E0
6.055935167E0,2.073188782E-1,-8.745413818E0,4.895868988E0,1.002470833E1
6.065991167E0,2.064207458E-1,-8.868008881E0,4.928650818E0,1.014769875E1
6.076048167E0,1.945953369E-1,-9.086404724E0,4.936883698E0,1.034279647E1
6.086104167E0,1.666035461E-1,-9.320218506E0,4.915178833E0,1.053817881E1
6.096161167E0,1.297801208E-1,-9.501790924E0,4.911137238E0,1.069673514E1
6.106217167E0,9.789642334E-2,-9.581575012E0,4.859494629E0,1.074387507E1
6.116273167E0,4.730163574E-2,-9.601333923E0,4.756059723E0,1.071484739E1
6.126330167E0,-8.981323242E-4,-9.561816101E0,4.621190186E0,1.061996830E1
6.136386167E0,-3.727249146E-2,-9.360185394E0,4.455933838E0,1.036676450E1
6.146443167E0,-3.278182983E-2,-9.000633087E0,4.342619476E0,9.993538639E0
6.156499167E0,-1.437011719E-2,-8.556806030E0,4.257296906E0,9.557390485E0
6.166555167E0,-2.335144043E-2,-8.136629791E0,4.213288422E0,9.162810102E0
6.176612167E0,-1.014889526E-1,-7.982749786E0,4.258045349E0,9.047958021E0
6.186668167E0,-1.202000427E-1,-7.987539825E0,4.329147491E0,9.086074979E0
6.196725167E0,-6.152206421E-2,-8.076604614E0,4.417463837E0,9.205939051E0
6.206781167E0,5.748046875E-2,-8.207731934E0,4.562212830E0,9.390631150E0
6.216837167E0,1.866618347E-1,-8.397237854E0,4.786446533E0,9.667394511E0
6.226894167E0,2.326162720E-1,-8.601413269E0,5.000651093E0,9.952132028E0
6.236950167E0,2.405497742E-1,-8.803642731E0,5.155129852E0,1.020477111E1
6.247007167E0,2.195933533E-1,-8.927734680E0,5.248236237E0,1.035840969E1
6.257063167E0,1.704954529E-1,-8.914562073E0,5.264402618E0,1.035434308E1
6.267119167E0,5.867797852E-2,-8.913214874E0,5.212610321E0,1.032570331E1
6.277176167E0,-3.293151855E-2,-8.994196472E0,5.150339813E0,1.036449009E1
6.287232167E0,-1.686991882E-1,-9.220525818E0,5.154231720E0,1.056468932E1
6.297289167E0,-3.204835510E-1,-9.536967773E0,5.169649658E0,1.085272968E1
6.307345167E0,-2.803669739E-1,-9.733509064E0,5.076543274E0,1.098139772E1
6.317401167E0,-2.092648315E-1,-9.724827118E0,4.839735718E0,1.086457988E1
6.327458167E0,-2.116598511E-1,-9.745035095E0,4.611460419E0,1.078313851E1
6.337514167E0,-3.209326172E-1,-9.875863037E0,4.511318665E0,1.086221269E1
6.347571167E0,-3.899391174E-1,-9.809401245E0,4.253704376E0,1.069908436E1
6.357627167E0,-4.442761230E-1,-9.884095917E0,3.941603394E0,1.065030378E1
6.367683167E0,-5.571414185E-1,-9.808203735E0,3.680695953E0,1.049089080E1
6.377740167E0,-7.601193237E-1,-9.713750153E0,3.387455750E0,1.031550192E1
6.387796167E0,-8.759783936E-1,-9.607620850E0,3.116968231E0,1.013850124E1
6.397853167E0,-9.665400696E-1,-9.437125397E0,2.855462036E0,9.906926814E0
6.407909167E0,-1.001567230E0,-9.267977142E0,2.670147400E0,9.696815166E0
6.417965167E0,-1.078806610E0,-9.094038849E0,2.534230042E0,9.501983382E0
6.428022167E0,-1.179996185E0,-8.900940399E0,2.393522644E0,9.292366848E0
6.438078167E0,-1.308578796E0,-8.844058685E0,2.293530579E0,9.229844799E0
6.448135167E0,-1.424138489E0,-8.841963043E0,2.182760925E0,9.218076055E0
6.458191167E0,-1.568139038E0,-8.828790436E0,2.120340729E0,9.214252298E0
6.468247167E0,-1.822609863E0,-8.862919464E0,2.124831390E0,9.294522934E0
6.478304167E0,-2.253114624E0,-8.991951141E0,2.277064819E0,9.545508631E0
6.488360167E0,-2.630779266E0,-9.135203247E0,2.354902954E0,9.793799357E0
6.498417167E0,-2.962489471E0,-9.417516174E0,2.343077545E0,1.014672199E1
6.508473167E0,-3.375181274E0,-9.667795715E0,2.347568207E0,1.050567461E1
6.518529167E0,-3.743864594E0,-9.857900391E0,2.320175171E0,1.079712624E1
6.528586167E0,-4.110452271E0,-1.004815475E1,2.289638672E0,1.109520965E1
6.538642167E0,-4.282594299E0,-1.008887009E1,2.226919098E0,1.118414423E1
6.548699167E0,-4.366120605E0,-9.931547241E0,2.060165863E0,1.104277697E1
6.558755167E0,-4.441563721E0,-9.793833618E0,1.887874146E0,1.091836682E1
6.568811167E0,-4.158801727E0,-9.630373535E0,1.605710907E0,1.061216442E1
6.578868167E0,-3.751498718E0,-9.521549835E0,1.275048523E0,1.031306951E1
6.588924167E0,-3.548221436E0,-9.645492096E0,1.098266144E0,1.033593642E1
6.598981167E0,-3.358715515E0,-9.774673462E0,1.015787659E0,1.038542420E1
6.609037167E0,-3.157384186E0,-9.874366150E0,1.006806335E0,1.041565364E1
6.619093167E0,-2.873274994E0,-9.895921326E0,1.047970734E0,1.035776089E1
6.629150167E0,-2.467768250E0,-9.811945953E0,1.068627777E0,1.017379619E1
6.639206167E0,-2.032922516E0,-9.742340698E0,1.015188904E0,1.000382850E1
6.649263167E0,-1.656156006E0,-9.764794006E0,9.102571106E-1,9.945985256E0
6.659319167E0,-1.423839111E0,-9.657317505E0,7.042854309E-1,9.787089311E0
6.669375167E0,-1.345551910E0,-9.502988434E0,5.794450378E-1,9.615251202E0
6.679432167E0,-1.445244598E0,-9.508826294E0,5.822891235E-1,9.635640615E0
6.689488167E0,-1.609902191E0,-9.482481079E0,6.562353516E-1,9.640533041E0
6.699545167E0,-1.967358856E0,-9.597741394E0,8.216413879E-1,9.831695444E0
6.709601167E0,-2.207908630E0,-9.656868439E0,1.029259644E0,9.959384719E0
6.719657167E0,-2.226170654E0,-9.752968597E0,1.338815918E0,1.009300056E1
6.729714167E0,-2.198029175E0,-9.700128479E0,1.607806549E0,1.007516088E1
6.739770167E0,-2.273621979E0,-9.399104462E0,1.792073364E0,9.834838510E0
6.749827167E0,-2.352807312E0,-9.035660248E0,1.985321503E0,9.545698499E0
6.759883167E0,-2.329455872E0,-8.925040283E0,2.189347229E0,9.480292717E0
6.769939167E0,-2.334844666E0,-9.101822662E0,2.190844116E0,9.648547732E0
6.779996250E0,-2.873873749E0,-8.734336853E0,2.268831940E0,9.470764962E0
6.790052250E0,-2.904559937E0,-8.364905090E0,2.646197205E0,9.241778251E0
6.800109250E0,-2.348166962E0,-8.670419769E0,3.013683014E0,9.474827300E0
6.810165250E0,-1.964814148E0,-8.738977203E0,3.226390686E0,9.520494423E0
6.820222250E0,-1.763782196E0,-8.613238678E0,3.235372009E0,9.368374469E0
6.830278250E0,-1.445543976E0,-8.590036926E0,3.153791656E0,9.264163945E0
6.840334250E0,-1.277293854E0,-8.753646698E0,2.893482971E0,9.307526729E0
6.850391250E0,-1.184337158E0,-8.902437286E0,2.276615753E0,9.264935155E0
6.860447250E0,-9.627978516E-1,-9.034013672E0,1.513802032E0,9.210427749E0
6.870503250E0,-7.408094788E-1,-9.087751923E0,7.545808411E-1,9.149066943E0
6.880560250E0,-6.656657410E-1,-9.059760132E0,8.457412720E-2,9.084575791E0
6.890616250E0,-5.486091614E-1,-9.176517334E0,-4.366419983E-1,9.203265650E0
6.900673250E0,-5.995033264E-1,-9.333690491E0,-8.494834900E-1,9.391421863E0
6.910729250E0,-7.662565613E-1,-9.482630768E0,-1.170715485E0,9.585301776E0
6.920785250E0,-8.560697937E-1,-9.584419098E0,-1.365909576E0,9.719035647E0
6.930842250E0,-9.241781616E-1,-9.651779022E0,-1.499431915E0,9.811179319E0
6.940898250E0,-9.466314697E-1,-9.619595947E0,-1.501527557E0,9.781989692E0
6.950955250E0,-9.217831421E-1,-9.513616333E0,-1.495390320E0,9.674439110E0
6.961011250E0,-8.641529846E-1,-9.416168976E0,-1.401834869E0,9.559086754E0
6.971067250E0,-8.494834900E-1,-9.361083527E0,-1.292262726E0,9.487963424E0
6.981124250E0,-8.414002991E-1,-9.350305939E0,-1.243164825E0,9.470038775E0
6.991180250E0,-8.669970703E-1,-9.340725861E0,-1.240320740E0,9.462517586E0
7.001237250E0,-8.601113892E-1,-9.377998352E0,-1.270857239E0,9.502721863E0
7.011293250E0,-8.482859802E-1,-9.445058899E0,-1.338815918E0,9.577116203E0
7.021349250E0,-8.894503784E-1,-9.435778198E0,-1.386117554E0,9.578431712E0
7.031406250E0,-9.607022095E-1,-9.387728119E0,-1.459165649E0,9.548903202E0
7.041462250E0,-1.008003845E0,-9.389225006E0,-1.560654602E0,9.571272682E0
7.051519250E0,-1.012344818E0,-9.609267426E0,-1.646875305E0,9.801788651E0
7.061575250E0,-1.024469604E0,-1.005309448E1,-1.684297485E0,1.024456464E1
7.071632250E0,-1.079854431E0,-1.040516235E1,-1.731150055E0,1.060331881E1
7.081688250E0,-1.137484589E0,-1.046129562E1,-1.743125153E0,1.066635189E1
7.091744250E0,-1.119821320E0,-1.026729904E1,-1.688788147E0,1.046534447E1
7.101801250E0,-9.171427917E-1,-9.748927002E0,-1.516346741E0,9.908684879E0
7.111857250E0,-7.324269104E-1,-9.205107880E0,-1.207987976E0,9.312877923E0
7.121914250E0,-5.213658142E-1,-8.855135651E0,-9.135502625E-1,8.917388843E0
7.131970250E0,-2.082170105E-1,-8.749455414E0,-7.209008789E-1,8.781572891E0
7.142026250E0,3.203338623E-2,-8.948990479E0,-5.345384216E-1,8.964997939E0
7.152083250E0,2.163002014E-1,-9.398206329E0,-3.242257690E-1,9.406284619E0
7.162139250E0,4.569996643E-1,-9.932445374E0,-9.145980835E-2,9.943373909E0
7.172196250E0,7.111711121E-1,-1.054347473E1,1.550775146E-1,1.056857005E1
7.182252250E0,9.081614685E-1,-1.118414246E1,4.297563171E-1,1.122918030E1
7.192308250E0,1.212179260E0,-1.173005722E1,7.092251587E-1,1.181383178E1
7.202365250E0,1.565444641E0,-1.205143890E1,9.961784363E-1,1.219344775E1
7.212421250E0,2.043999481E0,-1.208631638E1,1.292711792E0,1.232591097E1
7.222477250E0,2.596650238E0,-1.195668594E1,1.511556702E0,1.232841169E1
7.232534250E0,2.957549744E0,-1.161988632E1,1.701960754E0,1.211055445E1
7.242590250E0,3.418141937E0,-1.095541809E1,1.734143829E0,1.160655568E1
7.252647250E0,3.944297791E0,-1.018302429E1,1.744472351E0,1.105869127E1
7.262703250E0,4.545896759E0,-9.536967773E0,1.786235504E0,1.071492272E1
7.272760250E0,5.204676819E0,-9.037905579E0,1.888921967E0,1.059907657E1
7.282816250E0,5.605393524E0,-8.560248871E0,1.980082397E0,1.042204508E1
7.292872250E0,5.754932556E0,-8.364006958E0,1.982627106E0,1.034440290E1
7.302929250E0,5.477259979E0,-8.444090424E0,1.855092316E0,1.023447153E1
7.312985250E0,5.171745300E0,-8.427924042E0,1.495090942E0,1.000060748E1
7.323041250E0,5.072052612E0,-8.251291351E0,1.085692291E0,9.746191791E0
7.333098250E0,4.874762878E0,-7.991731110E0,7.831713867E-1,9.393851003E0
7.343154250E0,4.439019012E0,-7.756570129E0,4.296066284E-1,8.947280694E0
7.353211250E0,4.079915771E0,-7.559729462E0,9.834548950E-2,8.590977481E0
7.363267250E0,3.892505493E0,-7.466772766E0,-1.107696533E-1,8.421197330E0
7.373323250E0,3.996688843E0,-7.501500549E0,-2.706372070E-1,8.504074123E0
7.383380250E0,4.182153168E0,-7.580236816E0,-4.267625427E-1,8.667901798E0
7.393436250E0,4.362677765E0,-7.699838104E0,-5.713618469E-1,8.868309787E0
7.403493250E0,4.331542511E0,-7.907456360E0,-6.873706055E-1,9.042267689E0
7.413549250E0,4.190835114E0,-8.187074890E0,-8.226892090E-1,9.234073410E0
7.423605250E0,4.403243408E0,-8.459358673E0,-1.007255402E0,9.589779201E0
7.433662250E0,4.729714508E0,-8.709937592E0,-1.176253967E0,9.980820887E0
7.443718250E0,4.766388245E0,-8.891360321E0,-1.304686890E0,1.017236222E1
7.453775250E0,4.636308746E0,-9.059909821E0,-1.436862030E0,1.027822442E1
7.463831250E0,4.533622284E0,-9.233698425E0,-1.564696198E0,1.040495996E1
7.473887250E0,4.569996643E0,-9.421857147E0,-1.647174683E0,1.060044555E1
7.483944250E0,4.565955048E0,-9.541907501E0,-1.776954803E0,1.072630004E1
7.494000250E0,4.531975708E0,-9.599837036E0,-1.910177765E0,1.078630864E1
7.504057250E0,4.367168427E0,-9.646539917E0,-2.199376373E0,1.081504271E1
7.514113250E0,4.168232117E0,-9.762698364E0,-2.730471954E0,1.096083553E1
7.524169250E0,4.093986511E0,-9.847871246E0,-3.334166565E0,1.117398587E1
7.534226250E0,3.706442413E0,-1.001761826E1,-3.995641022E0,1.140418950E1
7.544282250E0,2.788700867E0,-1.024783951E1,-5.248385925E0,1.184654473E1
7.554339250E0,1.822011108E0,-1.010683273E1,-6.301745453E0,1.204905756E1
7.564395250E0,1.535806274E0,-9.770033112E0,-6.241121521E0,1.169460755E1
7.574451250E0,1.656455383E0,-9.780211945E0,-5.243595886E0,1.122014652E1
7.584508250E0,2.067201233E0,-1.005653732E1,-3.879781952E0,1.097542582E1
7.594564250E0,2.497556305E0,-1.035711227E1,-2.858455811E0,1.103079017E1
7.604621250E0,2.772384796E0,-1.048135391E1,-2.265538788E0,1.107599040E1
7.614677250E0,2.893932037E0,-1.042252625E1,-1.873204651E0,1.097783183E1
7.624733250E0,2.976410522E0,-1.032762360E1,-1.724114685E0,1.088537552E1
7.634790250E0,2.984793091E0,-1.018871246E1,-1.649270325E0,1.074425168E1
7.644846250E0,2.905907135E0,-1.013841705E1,-1.613644409E0,1.066937884E1
7.654903250E0,2.791245575E0,-1.013721954E1,-1.581461334E0,1.063274621E1
7.664959250E0,2.737507324E0,-1.010862900E1,-1.451381836E0,1.057283480E1
7.675015250E0,2.744393005E0,-1.011162277E1,-1.265019379E0,1.055352463E1
7.685072250E0,2.860551453E0,-1.044797333E1,-1.106798401E0,1.088888901E1
7.695128250E0,3.259920959E0,-1.141765686E1,-1.065334625E0,1.192161527E1
7.705185250E0,3.805835724E0,-1.272952881E1,-9.473799133E-1,1.332001569E1
7.715241250E0,4.132306824E0,-1.377255981E1,-6.596781921E-1,1.439425367E1
7.725297250E0,3.956721954E0,-1.369981110E1,-2.848576355E-1,1.426259502E1
7.735354250E0,3.249143372E0,-1.233524872E1,-1.242416382E-2,1.275599655E1
7.745410250E0,2.409539337E0,-1.051548294E1,9.729766846E-2,1.078845346E1
7.755467250E0,1.879042511E0,-9.087302856E0,2.152523804E-1,9.282036821E0
7.765523250E0,1.441203003E0,-8.126001892E0,3.909869385E-1,8.262072599E0
7.775579250E0,1.070573730E0,-7.529642029E0,6.179150391E-1,7.630429620E0
7.785636667E0,8.439450073E-1,-7.282206573E0,8.672964478E-1,7.382071449E0
7.795692667E0,8.337661743E-1,-7.461683350E0,1.116228790E0,7.590642341E0
7.805749667E0,1.159039764E0,-8.248297577E0,1.186283112E0,8.413385390E0
7.815805667E0,1.753453674E0,-9.394314423E0,1.197958832E0,9.631347186E0
7.825861667E0,2.217638397E0,-1.051712952E1,1.139879608E0,1.080866591E1
7.835918667E0,2.410437469E0,-1.126168121E1,1.045575714E0,1.156412129E1
7.845974667E0,2.298021240E0,-1.134984787E1,9.327104187E-1,1.161765454E1
7.856031667E0,2.103126526E0,-1.087638245E1,7.915539551E-1,1.110609715E1
7.866087667E0,2.188449097E0,-1.016670822E1,6.378236389E-1,1.041912110E1
7.876143667E0,2.266436920E0,-9.602232056E0,4.258644104E-1,9.875269984E0
7.886200667E0,2.292632446E0,-9.155261536E0,2.667453003E-1,9.441722850E0
7.896256667E0,2.426603851E0,-8.923992462E0,-5.478607178E-2,9.248191673E0
7.906313667E0,2.640808411E0,-8.682694244E0,-6.505471802E-1,9.098695513E0
7.916369667E0,2.738106079E0,-8.450527039E0,-1.182840271E0,8.961458767E0
7.926425667E0,2.608475647E0,-8.230334930E0,-1.270108795E0,8.726725309E0
7.936482667E0,2.252515869E0,-7.971523132E0,-1.033600616E0,8.347894287E0
7.946538667E0,2.028581543E0,-7.776029663E0,-8.387059021E-1,8.079926237E0
7.956595667E0,2.018103333E0,-7.710615692E0,-8.455915833E-1,8.015070838E0
7.966651667E0,2.046544189E0,-7.743247833E0,-1.007854156E0,8.072298318E0
7.976707667E0,1.984573059E0,-7.963589630E0,-1.131047974E0,8.284718435E0
7.986764667E0,1.866019592E0,-8.176446991E0,-1.090931396E0,8.457330893E0
7.996820667E0,1.713935852E0,-8.301736450E0,-9.756710815E-1,8.532780218E0
8.006877667E0,1.720821533E0,-8.388406219E0,-9.404942322E-1,8.614587341E0
8.016933667E0,1.556313629E0,-8.541388092E0,-9.430389404E-1,8.733083367E0
8.026989667E0,1.274000702E0,-8.650660858E0,-9.199868774E-1,8.792234467E0
8.037046667E0,1.072070618E0,-8.771908722E0,-9.294172668E-1,8.885917763E0
8.047102667E0,1.135688324E0,-8.856033783E0,-9.743238831E-1,8.981560519E0
8.057159667E0,1.285826111E0,-8.932824097E0,-1.065933380E0,9.087623952E0
8.067215667E0,1.391057281E0,-9.069040833E0,-1.227746887E0,9.256884163E0
8.077271667E0,1.310674438E0,-9.356742554E0,-1.525178375E0,9.570405831E0
8.087328667E0,1.120270386E0,-9.656569061E0,-1.998643799E0,9.924661647E0
8.097384667E0,9.532177734E-1,-9.908345490E0,-2.665507050E0,1.030479802E1
8.107441667E0,8.406518555E-1,-1.008348129E1,-3.431613922E0,1.068453390E1
8.117497667E0,9.324110413E-1,-1.016161880E1,-4.217779083E0,1.104162794E1
8.127553667E0,1.289718018E0,-1.000414627E1,-4.707111511E0,1.113118206E1
8.137610667E0,1.262923737E0,-9.608369293E0,-4.791685638E0,1.081091985E1
8.147666667E0,8.622070313E-1,-9.272168427E0,-4.749024353E0,1.045321676E1
8.157722667E0,6.340814209E-1,-9.148824921E0,-4.678371277E0,1.029515490E1
8.167779667E0,5.126838684E-1,-9.317224731E0,-4.519850922E0,1.036834480E1
8.177835667E0,4.290078735E-1,-1.005533981E1,-4.419260101E0,1.099198646E1
8.187892667E0,4.965174866E-1,-1.127919479E1,-4.478985901E0,1.214611376E1
8.197948667E0,1.188079376E0,-1.239811798E1,-4.160148926E0,1.313132519E1
8.208004667E0,2.153721313E0,-1.289523422E1,-3.180436249E0,1.345513864E1
8.218061667E0,2.724185028E0,-1.256277557E1,-1.700314178E0,1.296671055E1
8.228117667E0,2.989283752E0,-1.168305496E1,-4.379891968E-1,1.206737027E1
8.238174667E0,3.294499054E0,-1.078252762E1,2.827619934E-1,1.127814613E1
8.248230667E0,3.642525330E0,-1.006866211E1,4.620890808E-1,1.071725122E1
8.258286667E0,4.081113281E0,-9.478589172E0,3.097059631E-1,1.032448818E1
8.268343667E0,4.550836487E0,-8.759185181E0,-1.272354126E-2,9.870845944E0
8.278399667E0,3.673361206E0,-8.627908173E0,7.738906860E-2,9.377652748E0
8.288456667E0,4.294569397E0,-8.527766418E0,9.804611206E-2,9.548598820E0
8.298512667E0,4.942122803E0,-8.529113617E0,-1.829196167E-1,9.859199586E0
8.308568667E0,5.335055695E0,-8.682394867E0,-5.132826233E-1,1.020344348E1
8.318625667E0,5.094954987E0,-8.794212341E0,-5.405259705E-1,1.017786350E1
8.328681667E0,4.185446320E0,-8.773255920E0,-1.971400452E-1,9.722491684E0
8.338738667E0,2.745889893E0,-9.142987061E0,1.132245483E0,9.613329471E0
8.348794667E0,3.269650726E0,-9.287137299E0,2.070344696E0,1.006120580E1
8.358850667E0,3.751648407E0,-8.967402191E0,1.781744843E0,9.882498799E0
8.368907667E0,3.248544617E0,-9.080117798E0,1.282383270E0,9.728622112E0
8.378963667E0,2.720143433E0,-9.257798309E0,9.122030640E-1,9.692168192E0
8.389020667E0,2.566562805E0,-9.184600525E0,5.237608337E-1,9.550835400E0
8.399076667E0,2.400857391E0,-9.047934723E0,3.638932800E-1,9.368119197E0
8.409132667E0,2.261197815E0,-8.867859192E0,2.538720703E-1,9.155129340E0
8.419189667E0,2.231559448E0,-8.666677551E0,9.834548950E-2,8.949906658E0
8.429245667E0,1.976190491E0,-8.582402802E0,-6.855743408E-2,8.807250810E0
8.439302667E0,1.704206085E0,-8.577163696E0,-3.534150696E-1,8.751968788E0
8.449358667E0,1.642684021E0,-8.512947235E0,-6.691085815E-1,8.695768380E0
8.459414667E0,1.566342773E0,-8.446485443E0,-9.684860229E-1,8.644912446E0
8.469471667E0,1.436263275E0,-8.385711823E0,-1.256337433E0,8.600081320E0
8.479527667E0,1.311572571E0,-8.364306335E0,-1.450932770E0,8.589938823E0
8.489584667E0,1.191372528E0,-8.329877930E0,-1.551822968E0,8.556540735E0
8.499640667E0,1.185684357E0,-8.296197968E0,-1.668131104E0,8.544905470E0
8.509696667E0,1.227896576E0,-8.356372833E0,-1.802102509E0,8.636218523E0
8.519753667E0,1.199006653E0,-8.520731049E0,-1.913770294E0,8.814930022E0
8.529809667E0,1.224603424E0,-8.794811096E0,-2.026036835E0,9.107863691E0
8.539866667E0,1.334924011E0,-9.074579315E0,-2.155218201E0,9.422047408E0
8.549922667E0,1.514251099E0,-9.307794342E0,-2.246528320E0,9.694064235E0
8.559978667E0,1.707798615E0,-9.468859406E0,-2.245031433E0,9.880083030E0
8.570035667E0,1.996847534E0,-9.645641785E0,-2.127226410E0,1.007724653E1
8.580091667E0,2.361788635E0,-9.849966888E0,-1.983974304E0,1.032163007E1
8.590148667E0,2.655178528E0,-9.969568176E0,-1.870061188E0,1.048519869E1
8.600204667E0,2.967578888E0,-9.994865570E0,-1.787882080E0,1.057829781E1
8.610260667E0,3.243455200E0,-1.001896545E1,-1.748064880E0,1.067498952E1
8.620317667E0,3.445085907E0,-1.003333557E1,-1.718127136E0,1.074655296E1
8.630373667E0,3.690276031E0,-1.002106110E1,-1.707948303E0,1.081466089E1
8.640430667E0,3.973187714E0,-9.996212769E0,-1.766626282E0,1.090098430E1
8.650486667E0,4.288282471E0,-9.915979614E0,-1.863175507E0,1.096300329E1
8.660542667E0,4.662204895E0,-9.844877472E0,-1.889221344E0,1.105562862E1
8.670599667E0,5.152285767E0,-9.781409454E0,-1.837129669E0,1.120700963E1
8.680655667E0,5.718707886E0,-9.934840393E0,-1.801204376E0,1.160383603E1
8.690712667E0,5.980214081E0,-1.027762756E1,-1.687590637E0,1.201001877E1
8.700768667E0,6.203998718E0,-1.076067307E1,-1.589095459E0,1.252225656E1
8.710824667E0,6.566095734E0,-1.138741974E1,-1.571132813E0,1.323840624E1
8.720881667E0,6.764882355E0,-1.187944656E1,-1.470841370E0,1.374948211E1
8.730937667E0,6.516698456E0,-1.194620773E1,-1.351090393E0,1.367496557E1
8.740993667E0,6.068231049E0,-1.152782776E1,-1.348545685E0,1.309705373E1
8.751050667E0,5.430257721E0,-1.076022400E1,-1.461560669E0,1.214109876E1
8.761106667E0,4.599635010E0,-9.890233154E0,-1.655407562E0,1.103239449E1
8.771163667E0,3.390449524E0,-9.475745087E0,-1.759141846E0,1.021662728E1
8.781219750E0,2.135758667E0,-9.160650330E0,-1.699116669E0,9.558555173E0
8.791275750E0,1.167272644E0,-8.718170471E0,-1.372196503E0,8.902356151E0
8.801332750E0,3.751199341E-1,-8.371192017E0,-9.216334534E-1,8.430123307E0
8.811388750E0,-2.486329651E-1,-8.348289642E0,-6.059399414E-1,8.373943009E0
8.821445750E0,-5.966592407E-1,-8.767567749E0,-4.635859680E-1,8.800065820E0
8.831501750E0,-6.605763245E-1,-9.516161041E0,-4.475692749E-1,9.549554979E0
8.841557750E0,-5.743556213E-1,-1.027074188E1,-4.902305603E-1,1.029846344E1
8.851614750E0,-6.459068298E-1,-1.082758392E1,-5.236111450E-1,1.085946306E1
8.861670750E0,-6.863227844E-1,-1.120973923E1,-6.542893982E-1,1.124977276E1
8.871727750E0,-3.912863159E-1,-1.121168518E1,-8.607101440E-1,1.125148041E1
8.881783750E0,-1.552272034E-1,-1.097936829E1,-1.107995911E0,1.103622573E1
8.891839750E0,-6.975494385E-2,-1.045845154E1,-1.604663086E0,1.058106885E1
8.901896750E0,4.191284180E-2,-9.807305603E0,-2.329904938E0,1.008035004E1
8.911952750E0,6.182144165E-2,-9.180109863E0,-2.889441376E0,9.624297920E0
8.922009750E0,-1.260379028E-1,-8.603658600E0,-2.902015228E0,9.080777458E0
8.932065750E0,-2.983296204E-1,-8.324489136E0,-2.463876343E0,8.686587740E0
8.942121750E0,-3.643423462E-1,-8.231532440E0,-1.832938385E0,8.441003186E0
8.952178750E0,-3.854484558E-1,-8.308921509E0,-1.190175018E0,8.402574827E0
8.962234750E0,-3.484753418E-1,-8.438551941E0,-6.566844177E-1,8.471235350E0
8.972291750E0,-1.580712891E-1,-8.510103149E0,-3.601510620E-1,8.519187223E0
8.982347750E0,-2.619552612E-2,-8.500223694E0,-1.975891113E-1,8.502560233E0
8.992403750E0,1.495390320E-1,-8.477321320E0,-1.300794983E-1,8.479637926E0
9.002460750E0,3.121009827E-1,-8.452922058E0,-1.207987976E-1,8.459544355E0
9.012516750E0,4.156855774E-1,-8.446335754E0,-2.089654541E-1,8.459139953E0
9.022573750E0,6.526428223E-1,-8.524772644E0,-3.281176758E-1,8.556012652E0
9.032629750E0,7.530839539E-1,-8.591982880E0,-2.258802795E-1,8.627880803E0
9.042685750E0,8.640032959E-1,-8.691226501E0,1.736389160E-2,8.734083884E0
9.052742750E0,1.043629761E0,-8.907227325E0,6.286926270E-3,8.968160415E0
9.062798750E0,1.291364594E0,-9.022637329E0,-1.082249451E-1,9.115224601E0
9.072855750E0,1.440155182E0,-9.079968109E0,-1.222956848E-1,9.194282139E0
9.082911750E0,1.626517639E0,-9.178612976E0,-1.088237000E-1,9.322249642E0
9.092967750E0,1.698966980E0,-9.224717102E0,-1.167572021E-1,9.380593087E0
9.103024750E0,1.772464142E0,-9.324559479E0,-1.425036621E-1,9.492594266E0
9.113080750E0,1.831890564E0,-9.490414581E0,-2.043251038E-1,9.667757791E0
9.123136750E0,1.854942627E0,-9.574539642E0,-3.287164307E-1,9.758108218E0
9.133193750E0,1.887724457E0,-9.524693298E0,-6.206094360E-1,9.729770918E0
9.143249750E0,1.953288116E0,-9.373058624E0,-1.100062408E0,9.637411465E0
9.153306750E0,2.074685669E0,-9.190737762E0,-1.701511688E0,9.574399369E0
9.163362750E0,2.299967194E0,-8.968300323E0,-2.498304749E0,9.589670818E0
9.173418750E0,2.565365295E0,-8.863218842E0,-3.387306061E0,9.829119476E0
9.183475750E0,2.998265076E0,-8.941506042E0,-4.335284729E0,1.037953840E1
9.193531750E0,3.420387268E0,-9.196575623E0,-5.323230286E0,1.116301182E1
9.203588750E0,3.626358948E0,-9.651030579E0,-6.224206696E0,1.204299047E1
9.213644750E0,3.234024811E0,-9.814640350E0,-6.689139862E0,1.230977960E1
9.223700750E0,2.183808746E0,-9.760003967E0,-6.913972321E0,1.215852423E1
9.233757750E0,4.830455017E-1,-9.780062256E0,-7.625891876E0,1.241117148E1
9.243813750E0,-1.205742645E0,-1.025307861E1,-7.977211304E0,1.304665998E1
9.253870750E0,-2.222129059E0,-1.125808868E1,-7.976163483E0,1.397503497E1
9.263926750E0,-2.017354889E0,-1.202389618E1,-6.770570526E0,1.394576729E1
9.273982750E0,-6.945556641E-1,-1.261920822E1,-4.746180267E0,1.350011299E1
9.284039750E0,6.617738342E-1,-1.270063889E1,-2.778222656E0,1.301778375E1
9.294095750E0,1.410367126E0,-1.200398758E1,-8.454418945E-1,1.211608952E1
9.304152750E0,1.850302277E0,-1.089165070E1,4.532574463E-1,1.105699397E1
9.314208750E0,2.221081238E0,-9.874964905E0,1.055754547E0,1.017657857E1
9.324264750E0,2.298320618E0,-9.460027771E0,1.050665131E0,9.791746540E0
9.334321750E0,2.720742188E0,-9.131011963E0,9.333091736E-1,9.573342339E0
9.344377750E0,3.238515472E0,-8.894204407E0,8.999285889E-1,9.508139984E0
9.354434750E0,2.982996826E0,-9.179062042E0,9.930349731E-1,9.702554741E0
9.364490750E0,2.872077484E0,-9.486372986E0,9.053173828E-1,9.952874010E0
9.374546750E0,2.994073792E0,-9.844278717E0,8.340655518E-1,1.032327306E1
9.384603750E0,3.190465393E0,-1.033929932E1,8.228388977E-1,1.085160097E1
9.394659750E0,3.207978973E0,-1.060020676E1,7.548802185E-1,1.110069171E1
9.404716750E0,3.071762238E0,-1.045695465E1,5.896238708E-1,1.091472767E1
9.414772750E0,2.643652496E0,-1.015218842E1,4.257147217E-1,1.049938385E1
9.424828750E0,2.261048126E0,-9.792336731E0,3.514691162E-1,1.005612887E1
9.434885750E0,1.955683136E0,-9.516161041E0,3.531156921E-1,9.721456073E0
9.444941750E0,1.728305969E0,-9.341174927E0,2.881507874E-1,9.504084459E0
9.454997750E0,1.629810791E0,-9.188193054E0,1.954934692E-1,9.333669831E0
9.465054750E0,1.472787323E0,-9.022188263E0,8.756790161E-2,9.142026673E0
9.475110750E0,1.159039764E0,-8.898246002E0,-5.343887329E-2,8.973572912E0
9.485167750E0,1.033001862E0,-8.703650665E0,-2.451901245E-1,8.768166624E0
9.495223750E0,9.370513916E-1,-8.503067780E0,-4.487667847E-1,8.566307174E0
9.505279750E0,8.045768738E-1,-8.337362366E0,-6.593788147E-1,8.402007831E0
9.515336750E0,8.270301819E-1,-8.222850494E0,-8.764274597E-1,8.310678328E0
9.525392750E0,8.174501038E-1,-8.135581970E0,-1.040785675E0,8.242521064E0
9.535449750E0,7.614665222E-1,-8.120613098E0,-1.204844513E0,8.244746124E0
9.545505750E0,7.822732544E-1,-8.186326447E0,-1.320104828E0,8.328899621E0
9.555561750E0,7.800279236E-1,-8.349187775E0,-1.451980591E0,8.510324770E0
9.565618750E0,8.719367981E-1,-8.553063812E0,-1.590742035E0,8.743319426E0
9.575674750E0,1.077010345E0,-8.680748291E0,-1.694925385E0,8.910000799E0
9.585731750E0,1.205592957E0,-8.751850433E0,-1.793420563E0,9.014693433E0
9.595787750E0,1.356479187E0,-8.860524445E0,-1.866618347E0,9.156046815E0
9.605843750E0,1.596430206E0,-8.917106781E0,-1.907333679E0,9.257499906E0
9.615900750E0,1.839375000E0,-9.009315033E0,-1.854792938E0,9.380368575E0
9.625956750E0,2.116149445E0,-9.059011688E0,-1.771266632E0,9.470014082E0
9.636013750E0,2.345921631E0,-9.024882660E0,-1.708247681E0,9.479977081E0
9.646069750E0,2.510728912E0,-8.983119507E0,-1.692380676E0,9.479680802E0
9.656125750E0,2.654130707E0,-8.997190247E0,-1.681453400E0,9.530011945E0
9.666182750E0,2.787203979E0,-9.204359436E0,-1.738335114E0,9.772949791E0
9.676238750E0,2.998714142E0,-9.546248474E0,-1.826651459E0,1.017151916E1
9.686295750E0,3.159629517E0,-9.818083191E0,-1.900747375E0,1.048765259E1
9.696351750E0,3.346890106E0,-9.907597046E0,-1.998793488E0,1.064693984E1
9.706407750E0,3.432661743E0,-9.712402954E0,-2.066303101E0,1.050635742E1
9.716464750E0,3.456312561E0,-9.387129364E0,-2.131866760E0,1.022786146E1
9.726520750E0,3.579955444E0,-9.213939514E0,-2.203867035E0,1.012767457E1
9.736577750E0,3.764072571E0,-9.365723877E0,-2.327060852E0,1.035858283E1
9.746633750E0,3.970343628E0,-1.005384293E1,-2.502795410E0,1.109537611E1
9.756689750E0,4.084855499E0,-1.124536514E1,-2.646197205E0,1.225343386E1
9.766746750E0,4.178560638E0,-1.266067200E1,-2.840044098E0,1.363153824E1
9.776802750E0,3.991000671E0,-1.375579468E1,-2.961142273E0,1.462594739E1
9.786858625E0,3.108585663E0,-1.386252274E1,-2.755919037E0,1.447162504E1
9.796915625E0,1.695524139E0,-1.262474670E1,-2.228565674E0,1.293157130E1
9.806971625E0,6.116281128E-1,-1.099852844E1,-1.620230713E0,1.113404079E1
9.817028625E0,-8.741821289E-2,-1.020023849E1,-1.053509216E0,1.025487147E1
9.827084625E0,-4.794529724E-1,-9.990225220E0,-5.510041809E-1,1.001688977E1
9.837140625E0,-8.288264465E-1,-9.992769928E0,-1.227447510E-1,1.002783478E1
9.847197625E0,-1.259929962E0,-1.018751495E1,1.088237000E-1,1.026570636E1
9.857253625E0,-1.521136780E0,-1.041549088E1,2.248324585E-1,1.052838339E1
9.867310625E0,-1.641037445E0,-1.061712158E1,2.387535095E-1,1.074584933E1
9.877366625E0,-1.643881531E0,-1.078941330E1,1.122665405E-1,1.091450364E1
9.887422625E0,-9.300160217E-1,-1.063957489E1,-5.834866333E-1,1.069607126E1
9.897479625E0,6.601272583E-2,-1.030981064E1,-1.452878723E0,1.041188790E1
9.907535625E0,4.409829712E-1,-9.914482727E0,-2.081870728E0,1.014029681E1
9.917592625E0,5.459147644E-1,-9.394164734E0,-2.340832214E0,9.696795833E0
9.927648625E0,5.120851135E-1,-9.167685699E0,-2.248324585E0,9.453235197E0
9.937704625E0,7.683522034E-1,-9.058263245E0,-2.095342712E0,9.329145684E0
9.947761625E0,1.097817078E0,-8.785829773E0,-1.764680328E0,9.028294623E0
9.957817625E0,1.121916962E0,-8.481362915E0,-1.100212097E0,8.625698883E0
9.967874625E0,1.181642761E0,-8.272247772E0,-4.457730103E-1,8.368098732E0
9.977930625E0,1.446591797E0,-8.039631500E0,2.514770508E-2,8.168778054E0
9.987986625E0,1.605561218E0,-7.845335541E0,3.381468201E-1,8.015077033E0
9.998043625E0,1.800755310E0,-7.708669739E0,5.933660889E-1,7.938412445E0
1.000809963E1,2.043101349E0,-7.653584290E0,7.942483521E-1,7.961309317E0
1.001815563E1,2.223625946E0,-7.651937714E0,9.208850098E-1,8.021514341E0
1.002821263E1,2.417323151E0,-7.813900909E0,7.858657837E-1,8.216938826E0
1.003826862E1,2.533780975E0,-8.243058472E0,3.324586487E-1,8.630097783E0
1.004832563E1,2.759661255E0,-8.672216034E0,-1.279838562E-1,9.101617496E0
1.005838162E1,3.032094727E0,-9.146280212E0,-3.767665100E-1,9.643131916E0
1.006843763E1,3.185525665E0,-9.490863647E0,-4.528083801E-1,1.002143213E1
1.007849462E1,3.281476135E0,-9.676327972E0,-4.014651489E-1,1.022548693E1
1.008855063E1,3.283571777E0,-9.742041321E0,-2.691403198E-1,1.028404829E1
1.009860762E1,3.246299286E0,-9.791887665E0,-1.972897339E-1,1.031787024E1
1.010866363E1,3.338956604E0,-9.817185059E0,-2.803669739E-1,1.037325211E1
1.011871962E1,3.377576294E0,-9.767937469E0,-7.060816956E-1,1.035949687E1
1.012877663E1,3.165766754E0,-9.801467743E0,-1.390159149E0,1.039343021E1
1.013883263E1,2.861748962E0,-9.877359924E0,-2.202968903E0,1.051688729E1
1.014888962E1,2.536175995E0,-9.865983582E0,-3.482059021E0,1.076543337E1
1.015894563E1,2.524949341E0,-9.672436066E0,-6.245911560E0,1.178740005E1
1.016900163E1,2.835553436E0,-9.374256134E0,-9.300908661E0,1.350644081E1
1.017905863E1,2.997516632E0,-9.296717377E0,-1.033795212E1,1.422277448E1
1.018911462E1,2.529290314E0,-9.216184845E0,-1.040875488E1,1.413073072E1
1.019917163E1,1.919608154E0,-8.949888611E0,-1.056952057E1,1.398213741E1
1.020922762E1,9.219328308E-1,-8.363557892E0,-9.805209961E0,1.292057286E1
1.021928363E1,7.843688965E-2,-8.551566925E0,-7.531288605E0,1.139542703E1
1.022934062E1,-4.361929321E-1,-8.901838531E0,-4.992268524E0,1.021546565E1
1.023939663E1,-7.857160950E-1,-9.534572754E0,-3.144660645E0,1.007046761E1
1.024945363E1,-4.239184570E-1,-1.087249054E1,-2.265688477E0,1.111413972E1
1.025950963E1,3.281176758E-1,-1.261157410E1,-1.706002350E0,1.273066795E1
1.026956562E1,1.164129181E0,-1.412193329E1,-1.094673615E0,1.421205498E1
1.027962263E1,1.374591522E0,-1.476828918E1,-7.987390137E-1,1.485361408E1
1.028967863E1,1.232985992E0,-1.393078079E1,-4.406835938E-1,1.399218032E1
1.029973562E1,1.055904236E0,-1.165820663E1,1.907034302E-1,1.170747981E1
1.030979163E1,1.265019379E0,-9.420959015E0,7.176077271E-1,9.532560183E0
1.031984762E1,1.783690796E0,-8.152197418E0,9.930349731E-1,8.403927300E0
1.032990463E1,2.360142059E0,-7.520511017E0,1.170865173E0,7.968643658E0
1.033996062E1,2.933898926E0,-7.394024048E0,1.280587006E0,8.057248762E0
1.035001663E1,3.445534973E0,-7.748786316E0,1.224453735E0,8.568237133E0
1.036007362E1,3.769611053E0,-8.409961395E0,1.114881592E0,9.283338792E0
1.037012963E1,4.027375031E0,-9.038354645E0,1.045575714E0,9.950117230E0
1.038018662E1,4.237088928E0,-9.558822327E0,1.006806335E0,1.050417374E1
1.039024263E1,4.416416016E0,-9.918224945E0,9.370513916E-1,1.089743005E1
1.040029862E1,4.400099945E0,-1.009111542E1,8.678952026E-1,1.104285887E1
1.041035563E1,4.354295197E0,-9.887089691E0,7.851173401E-1,1.083193604E1
1.042041163E1,4.126468964E0,-9.401200104E0,7.753875732E-1,1.029619033E1
1.043046862E1,3.913461914E0,-8.754694519E0,8.024812317E-1,9.623088714E0
1.044052463E1,3.931723938E0,-8.202043762E0,7.791297913E-1,9.129020661E0
1.045058062E1,3.726500702E0,-7.902965698E0,6.553372192E-1,8.762028371E0
1.046063763E1,3.518882446E0,-7.961493988E0,3.718267822E-1,8.712415012E0
1.047069362E1,3.045117645E0,-8.302634583E0,3.385958862E-1,8.849922579E0
1.048075063E1,3.044219513E0,-8.392597504E0,3.848497009E-1,8.935942849E0
1.049080662E1,3.205583954E0,-8.322842560E0,2.498304749E-1,8.922325483E0
1.050086263E1,2.654879150E0,-8.479566650E0,-1.023870850E-1,8.886051823E0
1.051091962E1,2.560275879E0,-8.220605164E0,-6.480024719E-1,8.634423492E0
1.052097563E1,2.443668365E0,-7.980953522E0,-6.780899048E-1,8.374182952E0
1.053103162E1,2.206561432E0,-7.862400055E0,-7.689509583E-1,8.202288312E0
1.054108863E1,2.007475433E0,-7.830516357E0,-1.004710693E0,8.145943016E0
1.055114463E1,1.934577026E0,-8.000113678E0,-1.196162567E0,8.317163700E0
1.056120162E1,1.925146637E0,-8.292455750E0,-1.376088409E0,8.623492984E0
1.057125763E1,2.001936951E0,-8.621321869E0,-1.623224487E0,8.998322069E0
1.058131362E1,2.181713104E0,-8.928483124E0,-1.816023560E0,9.368864634E0
1.059137063E1,2.318229218E0,-9.159303131E0,-2.001487885E0,9.657793449E0
1.060142662E1,2.369871826E0,-9.277856598E0,-2.102976837E0,9.803949566E0
1.061148363E1,2.453398132E0,-9.327104187E0,-2.143692169E0,9.879749543E0
1.062153962E1,2.590063934E0,-9.285490723E0,-2.140548706E0,9.874751536E0
1.063159563E1,2.737058258E0,-9.170978851E0,-2.126477966E0,9.804093509E0
1.064165262E1,2.954855347E0,-9.052275696E0,-2.126627655E0,9.756916038E0
1.065170863E1,3.247347107E0,-8.955277405E0,-2.132315826E0,9.761609878E0
1.066176563E1,3.513343964E0,-8.940158844E0,-2.152074738E0,9.843853495E0
1.067182163E1,3.741319885E0,-8.908125458E0,-2.222877502E0,9.914300684E0
1.068187763E1,3.951333160E0,-8.866511993E0,-2.308349762E0,9.977802729E0
1.069193462E1,4.153562622E0,-8.893905029E0,-2.420017548E0,1.010990178E1
1.070199063E1,4.302802277E0,-9.003177795E0,-2.513273621E0,1.029018280E1
1.071204762E1,4.517156525E0,-9.038953400E0,-2.596799927E0,1.043315635E1
1.072210363E1,4.710704041E0,-9.142238617E0,-2.657872925E0,1.062240782E1
1.073215962E1,4.883594513E0,-9.306147766E0,-2.725232849E0,1.085729136E1
1.074221663E1,5.059778137E0,-9.484876099E0,-2.833158417E0,1.111714964E1
1.075227262E1,5.240751801E0,-9.708361359E0,-2.905757446E0,1.140882054E1
1.076232963E1,5.473966827E0,-1.021700363E1,-2.954256592E0,1.196156796E1
1.077238562E1,5.737119598E0,-1.106918152E1,-3.029250641E0,1.283034217E1
1.078244150E1,5.966891785E0,-1.204754700E1,-3.106040955E0,1.379835775E1
1.079249850E1,6.141877899E0,-1.298489777E1,-3.139122162E0,1.470320788E1
1.080255450E1,6.015989685E0,-1.347542770E1,-3.056194611E0,1.507048802E1
1.081261050E1,5.133424988E0,-1.313249084E1,-2.791994019E0,1.437392078E1
1.082266750E1,3.848646698E0,-1.197958832E1,-2.415526886E0,1.281239196E1
1.083272350E1,2.764151917E0,-1.065364563E1,-1.993105316E0,1.118539985E1
1.084278050E1,1.880240021E0,-9.627679138E0,-1.542991333E0,9.930172726E0
1.085283650E1,1.270857239E0,-8.923543396E0,-1.072968750E0,9.077222417E0
1.086289250E1,9.285191345E-1,-8.407716064E0,-5.782475281E-1,8.478573430E0
1.087294950E1,7.041357422E-1,-8.228538666E0,-1.770817566E-1,8.260509286E0
1.088300550E1,8.812174988E-1,-8.106242981E0,2.401007080E-1,8.157534425E0
1.089306250E1,9.026229858E-1,-8.443940735E0,7.200027466E-1,8.522515318E0
1.090311850E1,1.041534119E0,-9.243727570E0,1.032702484E0,9.359367880E0
1.091317450E1,1.440604248E0,-1.007674530E1,1.213676147E0,1.025129973E1
1.092323150E1,1.735940094E0,-1.061966629E1,1.454824677E0,1.085851348E1
1.093328750E1,2.127825165E0,-1.065948349E1,1.571432190E0,1.098278778E1
1.094334450E1,2.142195282E0,-1.054736664E1,1.598376160E0,1.088075135E1
1.095340050E1,1.937271423E0,-1.037791901E1,1.198258209E0,1.062497276E1
1.096345650E1,2.190544739E0,-1.026235931E1,5.614823914E-1,1.050855687E1
1.097351350E1,2.646646271E0,-9.844727783E0,-7.424560547E-2,1.019455315E1
1.098356950E1,3.407214661E0,-9.330097961E0,-4.981640625E-1,9.945250482E0
1.099362550E1,3.997137909E0,-8.787326660E0,-8.021818542E-1,9.686986994E0
1.100368250E1,4.019291840E0,-8.231382751E0,-1.180744629E0,9.236044975E0
1.101373850E1,3.889661407E0,-7.635022888E0,-1.426234131E0,8.686609475E0
1.102379550E1,3.889062653E0,-7.122638397E0,-1.369801483E0,8.230014712E0
1.103385150E1,3.968098297E0,-6.824308777E0,-1.116079102E0,7.972617320E0
1.104390750E1,3.941004639E0,-6.724017334E0,-7.436535645E-1,7.829236699E0
1.105396450E1,4.106710052E0,-6.740782471E0,-4.567002869E-1,7.906439839E0
1.106402050E1,4.197571106E0,-6.797364807E0,-3.811074829E-1,7.998063167E0
1.107407750E1,4.141587524E0,-6.888824615E0,-3.043171692E-1,8.043709390E0
1.108413350E1,3.948489075E0,-7.132368164E0,-1.977388000E-1,8.154774199E0
1.109418950E1,3.848047943E0,-7.529492340E0,-1.234931946E-1,8.456712035E0
1.110424650E1,3.647465057E0,-7.960296478E0,4.670288086E-2,8.756283602E0
1.111430250E1,3.289559326E0,-8.320447540E0,2.785707092E-1,8.951460745E0
1.112435950E1,2.993924103E0,-8.583600311E0,3.035687256E-1,9.095819359E0
1.113441550E1,2.618654480E0,-8.767418060E0,4.266128540E-2,9.150234462E0
1.114447150E1,2.225871277E0,-9.036408691E0,-3.264710999E-1,9.312237559E0
1.115452850E1,2.143392792E0,-9.307794342E0,-6.515950012E-1,9.573596201E0
1.116458450E1,2.127675476E0,-9.407487030E0,-9.523196411E-1,9.691992976E0
1.117464150E1,1.916464691E0,-9.405541077E0,-1.222208405E0,9.676302664E0
1.118469750E1,1.592238922E0,-9.596244507E0,-1.553469543E0,9.850705611E0
1.119475350E1,1.288819885E0,-9.899064789E0,-2.057770844E0,1.019249534E1
1.120481050E1,9.982740784E-1,-1.023870850E1,-2.829565887E0,1.066930860E1
1.121486650E1,8.321195984E-1,-1.052730835E1,-4.201912079E0,1.136541725E1
1.122492250E1,1.042581940E0,-1.055904236E1,-5.840404816E0,1.211159284E1
1.123497950E1,1.239871674E0,-1.030292496E1,-6.313271484E0,1.214680786E1
1.124503550E1,8.464897156E-1,-9.616003418E0,-5.930667114E0,1.132946949E1
1.125509250E1,2.209405518E-1,-8.681197357E0,-5.779481506E0,1.043141451E1
1.126514850E1,-2.245330811E-2,-7.860753479E0,-6.518195343E0,1.021170015E1
1.127520450E1,6.821315002E-1,-8.194409637E0,-7.524851990E0,1.114616751E1
1.128526150E1,1.578467560E0,-9.815089417E0,-7.255711670E0,1.230743239E1
1.129531750E1,2.066602478E0,-1.171059769E1,-5.817352753E0,1.323822258E1
1.130537450E1,2.921025696E0,-1.295421158E1,-3.928131409E0,1.384825639E1
1.131543050E1,3.758534088E0,-1.343665833E1,-2.249372406E0,1.413258793E1
1.132548650E1,3.644920349E0,-1.314117279E1,-1.065334625E0,1.367884515E1
1.133554350E1,3.459306335E0,-1.217912338E1,-3.010240173E-1,1.266445665E1
1.134559950E1,3.556005249E0,-1.089314758E1,3.194357300E-1,1.146332747E1
1.135565650E1,3.810775452E0,-9.743238831E0,7.315287781E-1,1.048750908E1
1.136571250E1,4.208049316E0,-8.934770050E0,8.884025574E-1,9.915999899E0
1.137576850E1,4.513264618E0,-8.408464508E0,1.016536102E0,9.597144291E0
1.138582550E1,4.554279327E0,-8.246201935E0,1.095422058E0,9.483736396E0
1.139588150E1,4.601880341E0,-8.292755127E0,1.210382996E0,9.560968427E0
1.140593750E1,4.731510773E0,-8.361611938E0,1.394350433E0,9.708138933E0
1.141599450E1,4.898114319E0,-8.456813965E0,1.558109894E0,9.896309047E0
1.142605050E1,5.112917633E0,-8.346942444E0,1.726809082E0,9.939579694E0
1.143610750E1,5.198090515E0,-8.189619598E0,1.842967529E0,9.873527408E0
1.144616350E1,5.004243622E0,-8.395441589E0,1.882784729E0,9.953430165E0
1.145621950E1,4.918471985E0,-8.584049377E0,1.597627716E0,1.002146121E1
1.146627650E1,4.707261200E0,-8.620423737E0,1.156045990E0,9.889714644E0
1.147633250E1,4.240531769E0,-8.667575684E0,8.354127502E-1,9.685395830E0
1.148638950E1,3.883224792E0,-8.728049927E0,6.204597473E-1,9.573048658E0
1.149644550E1,3.694916382E0,-8.758736115E0,4.583468628E-1,9.517244729E0
1.150650150E1,3.596271515E0,-8.734935608E0,3.541635132E-1,9.452920220E0
1.151655850E1,3.374432831E0,-8.643176422E0,2.731819153E-1,9.282560205E0
1.152661450E1,3.201542358E0,-8.601113892E0,1.697470093E-1,9.179207357E0
1.153667150E1,3.056344299E0,-8.622220001E0,3.143463135E-2,9.147945472E0
1.154672750E1,2.948269043E0,-8.650511169E0,-1.106199646E-1,9.139795983E0
1.155678350E1,2.768642578E0,-8.630153503E0,-2.330653381E-1,9.066380241E0
1.156684050E1,2.623294830E0,-8.589587860E0,-3.981719971E-1,8.990063198E0
1.157689650E1,2.572849731E0,-8.609795837E0,-6.135740662E-1,9.006920297E0
1.158695350E1,2.543361053E0,-8.677305450E0,-8.137078857E-1,9.078900586E0
1.159700950E1,2.482288055E0,-8.690178680E0,-1.037791901E0,9.097140843E0
1.160706550E1,2.361788635E0,-8.685688019E0,-1.254690857E0,9.088095018E0
1.161712250E1,2.265538788E0,-8.746910706E0,-1.454375610E0,9.151847972E0
1.162717850E1,2.313289490E0,-8.860374756E0,-1.641486511E0,9.303334190E0
1.163723450E1,2.339934082E0,-8.971144409E0,-1.800605621E0,9.444517146E0
1.164729150E1,2.295326843E0,-9.069340210E0,-1.890418854E0,9.544377434E0
1.165734750E1,2.300715637E0,-9.173224182E0,-1.918859711E0,9.650044400E0
1.166740450E1,2.348915405E0,-9.295519867E0,-1.918859711E0,9.777837990E0
1.167746050E1,2.406844940E0,-9.398805084E0,-1.904190216E0,9.887182610E0
1.168751650E1,2.480192413E0,-9.419312439E0,-1.800306244E0,9.905347233E0
1.169757350E1,2.514321442E0,-9.376052399E0,-1.724713440E0,9.859351264E0
1.170762950E1,2.541265411E0,-9.368567963E0,-1.748214569E0,9.863282909E0
1.171768650E1,2.681374054E0,-9.362730103E0,-1.860630798E0,9.915262415E0
1.172774250E1,2.915038147E0,-9.417665863E0,-2.022144928E0,1.006374422E1
1.173779850E1,3.121009827E0,-9.469009094E0,-2.179018707E0,1.020543767E1
1.174785550E1,3.531456299E0,-9.455537109E0,-2.367925873E0,1.036751844E1
1.175791150E1,3.946992188E0,-9.408834229E0,-2.537523193E0,1.051398748E1
1.176796850E1,4.290078735E0,-9.340875549E0,-2.669398956E0,1.061990689E1
1.177802450E1,4.512665863E0,-9.262887726E0,-2.786006470E0,1.067366265E1
1.178808092E1,4.596192169E0,-9.222771149E0,-2.910098419E0,1.070762172E1
1.179813792E1,4.571044464E0,-9.222471771E0,-3.045866089E0,1.073432500E1
1.180819392E1,4.595892792E0,-9.475745087E0,-3.157234497E0,1.099454888E1
1.181824992E1,4.884642334E0,-1.032747391E1,-3.306025085E0,1.189311775E1
1.182830692E1,5.358856201E0,-1.174352921E1,-3.444337463E0,1.336006282E1
1.183836292E1,5.861959991E0,-1.316721863E1,-3.379222870E0,1.480396462E1
1.184841992E1,6.102210388E0,-1.373917923E1,-3.044967957E0,1.533863903E1
1.185847592E1,5.741161194E0,-1.315314789E1,-2.500849457E0,1.456778910E1
1.186853192E1,4.850213928E0,-1.181253571E1,-1.998045044E0,1.292488913E1
1.187858892E1,3.988755341E0,-1.058269318E1,-1.509610748E0,1.140975410E1
1.188864492E1,3.134332123E0,-9.647887115E0,-1.001417542E0,1.019355682E1
1.189870192E1,2.413580933E0,-8.809480591E0,-5.608836365E-1,9.151333873E0
1.190875792E1,1.981728973E0,-8.147407379E0,-1.182540894E-1,8.385790407E0
1.191881392E1,1.783391418E0,-7.755671997E0,3.197351074E-1,7.964493933E0
1.192887092E1,1.755100250E0,-7.804919586E0,6.935078430E-1,8.029825637E0
1.193892692E1,1.840572510E0,-8.344098358E0,9.794132996E-1,8.600635731E0
1.194898292E1,2.014959869E0,-9.138646088E0,1.267115021E0,9.443542559E0
1.195903992E1,2.277813263E0,-9.908046112E0,1.457519073E0,1.027045144E1
1.196909592E1,2.468067627E0,-1.034992722E1,1.528621216E0,1.074937366E1
1.197915292E1,2.628983002E0,-1.049662216E1,1.530417480E0,1.092853174E1
1.198920892E1,2.690355377E0,-1.045515839E1,1.497186584E0,1.089907870E1
1.199926492E1,2.626438293E0,-1.027598099E1,1.469643860E0,1.070765224E1
1.200932192E1,2.553539886E0,-1.007150620E1,1.352437592E0,1.047782852E1
1.201937792E1,2.658172302E0,-9.838740234E0,1.094523926E0,1.025010595E1
1.202943492E1,2.854713593E0,-9.537716217E0,9.831555176E-1,1.000419987E1
1.203949092E1,2.955454102E0,-9.361382904E0,9.719288635E-1,9.864828662E0
1.204954692E1,3.035238190E0,-9.260193329E0,9.087602234E-1,9.787221082E0
1.205960392E1,3.097658386E0,-9.060358887E0,8.253836060E-1,9.610767333E0
1.206965992E1,3.129991150E0,-8.738228760E0,7.622149658E-1,9.313133635E0
1.207971692E1,3.108735352E0,-8.345295868E0,6.204597473E-1,8.927103052E0
1.208977292E1,3.154989166E0,-8.038883057E0,4.775070190E-1,8.649023667E0
1.209982892E1,3.192860413E0,-7.840096436E0,2.293231201E-1,8.468415367E0
1.210988592E1,3.343297577E0,-7.674091644E0,-2.471360779E-1,8.374389380E0
1.211994192E1,3.379073181E0,-7.607629852E0,-6.253994751E-1,8.347771681E0
1.212999792E1,3.474873962E0,-7.628436584E0,-8.433462524E-1,8.424905144E0
1.214005492E1,3.514840851E0,-7.755522308E0,-8.009843445E-1,8.552415355E0
1.215011092E1,3.538491669E0,-7.945626984E0,-5.878276062E-1,8.717766500E0
1.216016792E1,3.505859528E0,-8.084687805E0,-2.974314880E-1,8.817125009E0
1.217022392E1,3.238665161E0,-8.186476135E0,-1.231938171E-1,8.804687402E0
1.218027992E1,2.749332733E0,-8.456813965E0,-1.779798889E-1,8.894279609E0
1.219033692E1,2.305206299E0,-8.812025299E0,-2.556683350E-1,9.112142023E0
1.220039292E1,2.091899872E0,-9.027876434E0,-3.571572876E-1,9.273950578E0
1.221044992E1,1.967358856E0,-9.039851532E0,-5.087919617E-1,9.265435006E0
1.222050592E1,1.893262939E0,-8.965456238E0,-7.143145752E-1,9.190979024E0
1.223056192E1,1.795516205E0,-8.901090088E0,-1.037342834E0,9.139439991E0
1.224061892E1,1.693129120E0,-8.914711761E0,-1.398092651E0,9.181145629E0
1.225067492E1,1.643881531E0,-9.021140442E0,-1.762135620E0,9.337475210E0
1.226073192E1,1.562151489E0,-9.298064575E0,-2.072739716E0,9.653526405E0
1.227078792E1,1.293160858E0,-9.785151672E0,-2.370769958E0,1.015096096E1
1.228084392E1,8.334667969E-1,-1.052326675E1,-2.761756897E0,1.091151278E1
1.229090092E1,6.753955078E-1,-1.120405106E1,-3.195854187E0,1.167049284E1
1.230095692E1,6.342311096E-1,-1.149908752E1,-3.467389526E0,1.202722134E1
1.231101292E1,6.206094360E-1,-1.108145599E1,-3.492537231E0,1.163536159E1
1.232106992E1,7.932005310E-1,-1.026310776E1,-3.236270142E0,1.079045839E1
1.233112592E1,9.972262573E-1,-9.611961823E0,-2.715952148E0,1.003796127E1
1.234118292E1,1.360071716E0,-9.399403839E0,-1.898202667E0,9.685130922E0
1.235123892E1,1.857786713E0,-9.705217896E0,-1.035396881E0,9.935525782E0
1.236129492E1,2.442470856E0,-1.050470535E1,-4.454736328E-1,1.079411623E1
1.237135192E1,3.110830994E0,-1.135478760E1,-3.263214111E-2,1.177325510E1
1.238140792E1,3.462300110E0,-1.215936447E1,2.448907471E-1,1.264506378E1
1.239146492E1,3.768862610E0,-1.274105484E1,4.478686523E-1,1.329433677E1
1.240152092E1,4.112248535E0,-1.282098862E1,5.577401733E-1,1.347588258E1
1.241157692E1,4.304897919E0,-1.235051697E1,5.984555054E-1,1.309295858E1
1.242163392E1,4.348906403E0,-1.154698792E1,5.340893555E-1,1.235035094E1
1.243168992E1,4.425247650E0,-1.064780777E1,3.962260437E-1,1.153757436E1
1.244174692E1,4.515210571E0,-9.818532257E0,3.228785706E-1,1.081179693E1
1.245180292E1,4.576433258E0,-9.114097137E0,3.245251465E-1,1.020371621E1
1.246185892E1,4.699327698E0,-8.509654083E0,4.248165894E-1,9.730280703E0
1.247191592E1,4.905449066E0,-7.944279785E0,4.517605591E-1,9.347678827E0
1.248197192E1,5.069208527E0,-7.513625336E0,4.558021545E-1,9.075196768E0
1.249202792E1,5.259762268E0,-7.175628204E0,4.897814941E-1,8.910366163E0
1.250208492E1,5.492378540E0,-6.972350922E0,5.539979553E-1,8.893076697E0
1.251214092E1,5.754633179E0,-6.866520996E0,6.218069458E-1,8.980621220E0
1.252219792E1,6.049669647E0,-6.891519012E0,6.364764404E-1,9.192205361E0
1.253225392E1,6.421496429E0,-7.073390808E0,6.191125488E-1,9.573493316E0
1.254230992E1,6.802304535E0,-7.279212799E0,5.566923523E-1,9.978386259E0
1.255236692E1,6.897057495E0,-7.442672882E0,4.709207153E-1,1.015797953E1
1.256242292E1,6.779551849E0,-7.535779266E0,3.809577942E-1,1.014373803E1
1.257247992E1,6.692732391E0,-7.558681641E0,2.823129272E-1,1.009980374E1
1.258253592E1,6.470594330E0,-7.661218414E0,4.610412598E-2,1.002820942E1
1.259259192E1,6.158044281E0,-7.828720093E0,-3.306623840E-1,9.965927216E0
1.260264892E1,6.105503540E0,-7.857160950E0,-5.637277222E-1,9.966440719E0
1.261270492E1,6.097420349E0,-7.902816010E0,-7.794291687E-1,1.001202006E1
1.262276092E1,6.146518250E0,-7.695497131E0,-9.301657104E-1,9.892702914E0
1.263281792E1,6.148314514E0,-7.652985535E0,-1.016236725E0,9.869280422E0
1.264287392E1,6.334976349E0,-7.590864716E0,-8.830137634E-1,9.926372236E0
1.265293092E1,6.450835419E0,-7.369475098E0,-4.349954224E-1,9.803655534E0
1.266298692E1,6.415658569E0,-7.245532837E0,5.837860107E-3,9.677729850E0
1.267304292E1,6.436614990E0,-7.267387390E0,4.475692749E-1,9.718294617E0
1.268309992E1,6.939718781E0,-7.010371857E0,9.210346985E-1,9.907235499E0
1.269315592E1,7.145091705E0,-6.724167023E0,1.023272095E0,9.864777920E0
1.270321292E1,6.950196991E0,-6.869365082E0,8.646020508E-1,9.810247272E0
1.271326892E1,6.967411194E0,-7.152127075E0,5.834866333E-1,1.000190967E1
1.272332492E1,6.985074463E0,-7.384743347E0,4.376898193E-1,1.017434381E1
1.273338192E1,6.977440338E0,-7.545658722E0,3.185375977E-1,1.028217416E1
1.274343792E1,7.019502869E0,-7.619006195E0,2.067201233E-1,1.036172810E1
1.275349492E1,6.908433838E0,-7.640261993E0,1.547781372E-1,1.030165121E1
1.276355092E1,6.670428772E0,-7.649393005E0,1.884580994E-1,1.015102703E1
1.277360692E1,6.604715424E0,-7.700736237E0,2.424957275E-1,1.014802486E1
1.278366292E1,6.609804840E0,-7.751331024E0,3.049159241E-1,1.019144869E1
1.279371892E1,6.588848419E0,-7.796237640E0,3.308120728E-1,1.021291738E1
1.280377492E1,6.562353516E0,-7.872129822E0,3.541635132E-1,1.025477174E1
1.281383192E1,6.535858612E0,-7.933951263E0,3.603007507E-1,1.028566221E1
1.282388792E1,6.462511139E0,-7.910150757E0,3.552113342E-1,1.022060225E1
1.283394492E1,6.349645844E0,-7.819439392E0,3.652404785E-1,1.007943626E1
1.284400092E1,6.239474945E0,-7.723937988E0,3.751199341E-1,9.936346441E0
1.285405692E1,6.189628601E0,-7.664361877E0,3.998185730E-1,9.859705883E0
1.286411392E1,6.235433350E0,-7.599696350E0,4.366419983E-1,9.840054365E0
1.287416992E1,6.271807709E0,-7.482789459E0,4.977149963E-1,9.776268728E0
1.288422692E1,6.275549927E0,-7.277266846E0,5.900729370E-1,9.627529574E0
1.289428292E1,6.363566895E0,-7.108417969E0,6.539900208E-1,9.563069203E0
1.290433892E1,6.543043671E0,-7.083719330E0,6.628216553E-1,9.665910850E0
1.291439592E1,6.709796906E0,-7.142247620E0,6.102809143E-1,9.818631186E0
1.292445192E1,6.827601929E0,-7.188950500E0,5.022056580E-1,9.927203429E0
1.293450792E1,6.891519012E0,-7.187004547E0,3.832031250E-1,9.964582946E0
1.294456492E1,7.049590302E0,-7.174131317E0,2.640509033E-1,1.006154096E1
1.295462092E1,7.199728088E0,-7.241191864E0,1.407073975E-1,1.021228391E1
1.296467792E1,7.302564240E0,-7.350913696E0,3.787124634E-2,1.036169923E1
1.297473392E1,7.398215332E0,-7.460336151E0,-7.888595581E-2,1.050697048E1
1.298478992E1,7.365433502E0,-7.562723236E0,-2.227368164E-1,1.055907217E1
1.299484692E1,7.138505402E0,-7.640860748E0,-3.382965088E-1,1.046209620E1
1.300490292E1,6.725514221E0,-7.735314331E0,-4.134402466E-1,1.025858480E1
1.301495992E1,6.286626892E0,-7.983797607E0,-4.842430115E-1,1.017335703E1
1.302501592E1,5.937852173E0,-8.328830109E0,-5.649252319E-1,1.024434673E1
1.303507192E1,5.623356171E0,-8.580007782E0,-6.539900208E-1,1.027941492E1
1.304512892E1,5.236111450E0,-8.702752533E0,-6.611750793E-1,1.017801146E1
1.305518492E1,4.769681396E0,-8.734785919E0,-6.102809143E-1,9.970897075E0
1.306524192E1,4.134252777E0,-8.713530121E0,-6.289920044E-1,9.665054792E0
1.307529792E1,3.737128601E0,-8.708440704E0,-6.083349609E-1,9.495953933E0
1.308535392E1,3.398532715E0,-8.765023041E0,-5.415737915E-1,9.416419473E0
1.309541092E1,2.965483246E0,-9.020990753E0,-4.632865906E-1,9.507207766E0
1.310546692E1,2.661615143E0,-9.617051239E0,-4.848417664E-1,9.990342399E0
1.311552292E1,2.141147461E0,-1.063882645E1,-6.539900208E-1,1.087183717E1
1.312557992E1,1.565744019E0,-1.180759598E1,-1.352886658E0,1.198754268E1
1.313563592E1,1.615440674E0,-1.276934601E1,-2.787503357E0,1.316951104E1
1.314569292E1,2.553539886E0,-1.265812729E1,-3.866908722E0,1.347967861E1
1.315574892E1,2.719694366E0,-1.154219788E1,-3.789968719E0,1.244921412E1
1.316580492E1,1.983076172E0,-1.075962524E1,-3.361709290E0,1.144566363E1
1.317586192E1,1.535955963E0,-1.009560608E1,-3.054548035E0,1.065883139E1
1.318591792E1,1.261576538E0,-9.629625092E0,-3.120411072E0,1.020089310E1
1.319597492E1,1.652862854E0,-9.405840454E0,-3.430715790E0,1.014749235E1
1.320603092E1,2.118394775E0,-9.282646637E0,-3.757635956E0,1.023596371E1
1.321608692E1,2.354154510E0,-9.061257019E0,-3.509751434E0,9.998338730E0
1.322614392E1,2.311493225E0,-9.093140717E0,-2.825224915E0,9.798474618E0
1.323619992E1,2.417472839E0,-9.132957916E0,-2.126627655E0,9.683885605E0
1.324625592E1,2.755170593E0,-9.249565430E0,-1.492995300E0,9.765984876E0
1.325631292E1,2.918780365E0,-9.473799133E0,-1.236428833E0,9.990040295E0
1.326636892E1,2.956651611E0,-9.378447418E0,-1.327888641E0,9.922719031E0
1.327642592E1,2.916834412E0,-9.186845856E0,-1.217568054E0,9.715376047E0
1.328648192E1,2.982398071E0,-8.908873901E0,-1.130748596E0,9.462627797E0
1.329653792E1,3.258723450E0,-8.578959961E0,-1.000669098E0,9.231423031E0
1.330659492E1,3.317401428E0,-8.339158630E0,-8.393046570E-1,9.013942046E0
1.331665092E1,3.346291351E0,-8.107141113E0,-7.324269104E-1,8.801127883E0
1.332670792E1,3.491190033E0,-7.939938812E0,-8.508306885E-1,8.715213655E0
1.333676392E1,3.718267822E0,-7.873626709E0,-1.199156342E0,8.789623944E0
1.334681992E1,3.951333160E0,-7.843090210E0,-1.562151489E0,8.920056898E0
1.335687692E1,4.017046509E0,-7.753276978E0,-1.880838776E0,8.932386078E0
1.336693292E1,4.037404175E0,-7.614515533E0,-2.227817230E0,8.901946354E0
1.337698892E1,4.096082153E0,-7.500752106E0,-2.556533661E0,8.920484041E0
1.338704592E1,4.150718536E0,-7.496860199E0,-2.762804718E0,9.003580794E0
1.339710192E1,4.236041107E0,-7.520211639E0,-3.015778656E0,9.142896055E0
1.340715892E1,4.044589233E0,-7.739655304E0,-3.280278625E0,9.328515110E0
1.341721492E1,3.985611877E0,-7.823930054E0,-3.522624664E0,9.460859794E0
1.342727092E1,3.773502960E0,-7.951165466E0,-3.756288757E0,9.569224738E0
1.343732792E1,3.637435913E0,-8.007149048E0,-4.160597992E0,9.729129023E0
1.344738392E1,3.588637390E0,-8.002508698E0,-4.737648010E0,9.968137862E0
1.345744092E1,3.621119843E0,-7.936795349E0,-5.178930359E0,1.014527225E1
1.346749692E1,3.656745758E0,-7.798932037E0,-5.522615662E0,1.023202884E1
1.347755292E1,3.444038086E0,-7.434889069E0,-5.801485748E0,1.003973160E1
1.348760992E1,2.787054291E0,-7.146588593E0,-5.831423492E0,9.635709630E0
1.349766592E1,2.064955902E0,-7.868986359E0,-5.558540955E0,9.853038452E0
1.350772192E1,2.273172913E0,-9.699529724E0,-4.986131287E0,1.114045318E1
1.351777892E1,2.910397797E0,-1.218346436E1,-4.428840179E0,1.328615235E1
1.352783492E1,3.785927124E0,-1.468835541E1,-3.445385284E0,1.555479696E1
1.353789192E1,4.664599915E0,-1.598705475E1,-1.927990723E0,1.676489070E1
1.354794792E1,4.979694672E0,-1.518951324E1,-7.545808411E-1,1.600275176E1
1.355800392E1,4.419409790E0,-1.291529251E1,-1.423539734E-1,1.365123541E1
1.356806092E1,3.850592651E0,-1.073762100E1,1.197509766E-2,1.140717809E1
1.357811692E1,3.659739532E0,-9.274413757E0,9.669891357E-2,9.970847239E0
1.358817392E1,3.319646759E0,-8.314160614E0,3.267704773E-1,8.958353658E0
1.359822992E1,3.149450684E0,-7.617060242E0,6.553372192E-1,8.268501267E0
1.360828592E1,3.103047180E0,-7.264992371E0,9.803114319E-1,7.960529282E0
1.361834292E1,3.037333832E0,-7.452252960E0,1.328936462E0,8.156441817E0
1.362839892E1,3.030148773E0,-7.844736786E0,1.657203827E0,8.571348864E0
1.363845492E1,3.059637451E0,-8.259075165E0,1.786235504E0,8.986898307E0
1.364851192E1,3.043620758E0,-8.806786194E0,1.794019318E0,9.489026067E0
1.365856792E1,2.977608032E0,-9.160949707E0,1.778002625E0,9.795429672E0
1.366862492E1,2.746937714E0,-9.328900452E0,1.770368500E0,9.884748609E0
1.367868092E1,2.428549805E0,-9.395062866E0,1.766326904E0,9.863314410E0
1.368873692E1,2.288890228E0,-9.356592865E0,1.667831726E0,9.775812559E0
1.369879392E1,2.253563690E0,-9.365873566E0,1.421294403E0,9.737464492E0
1.370884992E1,2.288141785E0,-9.269623718E0,1.097218323E0,9.610692210E0
1.371890692E1,2.309547272E0,-9.320368195E0,7.559280396E-1,9.631962369E0
1.372896292E1,2.441722412E0,-9.402696991E0,3.616479492E-1,9.721291492E0
1.373901892E1,2.623294830E0,-9.407636719E0,1.586700439E-2,9.766552931E0
1.374907592E1,2.722837830E0,-9.290580139E0,-2.408491516E-1,9.684355089E0
1.375913192E1,2.852468262E0,-9.043144684E0,-5.077441406E-1,9.495938346E0
1.376918892E1,3.009791107E0,-8.865913239E0,-7.863148499E-1,9.395826260E0
1.377924492E1,3.091221771E0,-8.819958801E0,-1.084494781E0,9.408690357E0
1.378930200E1,3.096460876E0,-8.788075104E0,-1.368005219E0,9.417524742E0
1.379935900E1,3.113675079E0,-8.846753082E0,-1.670675812E0,9.526340864E0
1.380941500E1,3.121907959E0,-8.979227600E0,-2.018702087E0,9.718435868E0
1.381947100E1,3.086880798E0,-9.140292664E0,-2.220931549E0,9.899814139E0
1.382952800E1,3.190764771E0,-9.237290955E0,-2.520907745E0,1.009274491E1
1.383958400E1,3.264261932E0,-9.304052124E0,-2.846929779E0,1.026283592E1
1.384964100E1,3.222049713E0,-9.265432434E0,-3.072660370E0,1.027964417E1
1.385969700E1,3.181783447E0,-9.155411224E0,-3.227588196E0,1.021580277E1
1.386975300E1,3.291654968E0,-9.006171570E0,-3.311413879E0,1.014453452E1
1.387981000E1,3.550317078E0,-8.756191406E0,-3.238515472E0,9.988174095E0
1.388986600E1,3.778742065E0,-8.408913574E0,-2.891686707E0,9.661809929E0
1.389992300E1,4.044888611E0,-8.149952087E0,-2.389780426E0,9.407119293E0
1.390997900E1,4.325554962E0,-8.064030762E0,-1.951192474E0,9.356611028E0
1.392003500E1,4.558919678E0,-8.167615356E0,-1.678609314E0,9.503232001E0
1.393009200E1,4.806654510E0,-8.397387543E0,-1.519340515E0,9.794306547E0
1.394014800E1,4.996609497E0,-8.665929108E0,-1.435664520E0,1.010571949E1
1.395020400E1,5.056335297E0,-8.838819580E0,-1.417552185E0,1.028108518E1
1.396026100E1,5.098098450E0,-8.921148376E0,-1.365161133E0,1.036538282E1
1.397031700E1,5.132826233E0,-9.007518768E0,-1.274749146E0,1.044539539E1
1.398037400E1,5.158872070E0,-9.245374146E0,-1.193617859E0,1.065437130E1
1.399043000E1,5.225633240E0,-9.588460693E0,-1.227896576E0,1.098879207E1
1.400048600E1,5.273833008E0,-9.941426697E0,-1.374441833E0,1.133729993E1
1.401054300E1,5.049449615E0,-1.019275406E1,-1.486708374E0,1.147168159E1
1.402059900E1,4.865033112E0,-1.070289322E1,-1.586101685E0,1.186322844E1
1.403065600E1,4.669389954E0,-1.148651367E1,-1.657952271E0,1.250967644E1
1.404071200E1,4.225113831E0,-1.206580902E1,-1.585802307E0,1.288216221E1
1.405076800E1,3.615431671E0,-1.186627396E1,-1.373244324E0,1.248060911E1
1.406082500E1,2.860102386E0,-1.100167191E1,-1.035396881E0,1.141442145E1
1.407088100E1,2.125879211E0,-1.001971390E1,-6.929090881E-1,1.026616540E1
1.408093700E1,1.572330322E0,-9.528136139E0,-4.553530884E-1,9.667727104E0
1.409099400E1,1.285077667E0,-9.500593414E0,-3.115022278E-1,9.592170426E0
1.410105000E1,1.120270386E0,-9.855655060E0,-2.393522644E-1,9.922007453E0
1.411110700E1,1.248254242E0,-1.010264145E1,-7.050338745E-2,1.017970892E1
1.412116300E1,1.336271210E0,-1.035351974E1,1.338217163E-1,1.044025383E1
1.413121900E1,1.475631409E0,-1.066966232E1,3.580554199E-1,1.077716966E1
1.414127600E1,1.825453949E0,-1.080722626E1,6.855743408E-1,1.098173182E1
1.415133200E1,2.278711395E0,-1.059436890E1,1.046174469E0,1.088704087E1
1.416138900E1,2.733465729E0,-1.027343628E1,1.337618408E0,1.071468856E1
1.417144500E1,2.938988342E0,-1.004920258E1,1.453178101E0,1.057051803E1
1.418150100E1,3.071462860E0,-9.729766846E0,1.290915527E0,1.028439157E1
1.419155800E1,3.310515747E0,-9.255403290E0,9.330097961E-1,9.873829644E0
1.420161400E1,3.421135712E0,-8.970096588E0,3.908372498E-1,9.608306621E0
1.421167100E1,3.586392059E0,-8.771010590E0,-5.375321960E-1,9.491141956E0
1.422172700E1,4.041745148E0,-8.397537231E0,-1.029409332E0,9.376247595E0
1.423178300E1,4.175566864E0,-8.132737885E0,-1.055604858E0,9.202775981E0
1.424184000E1,4.130510559E0,-7.861501923E0,-9.912387085E-1,8.935708373E0
1.425189600E1,4.002227325E0,-7.675289154E0,-9.621990967E-1,8.709403784E0
1.426195200E1,4.166735229E0,-7.551496582E0,-8.568182373E-1,8.667232580E0
1.427200900E1,4.183200989E0,-7.418123932E0,-5.430706787E-1,8.533619334E0
1.428206500E1,4.276606750E0,-7.486381989E0,-1.995350647E-1,8.624099653E0
1.429212200E1,4.579576721E0,-7.462880859E0,-2.339634705E-1,8.759101128E0
1.430217800E1,4.619842987E0,-7.373516693E0,-2.667453003E-1,8.705334612E0
1.431223400E1,4.554578705E0,-7.413633270E0,-1.413061523E-1,8.702075205E0
1.432229100E1,4.451443176E0,-7.437733154E0,-5.718109131E-2,8.668246103E0
1.433234700E1,4.276307373E0,-7.395071869E0,-6.316864014E-2,8.542709346E0
1.434240300E1,3.990701294E0,-7.496860199E0,-1.484912109E-1,8.494154419E0
1.435246000E1,3.853736115E0,-7.814349976E0,-1.698966980E-1,8.714597665E0
1.436251600E1,3.823798370E0,-8.119265900E0,-2.177970886E-1,8.977268421E0
1.437257300E1,3.707190857E0,-8.283474426E0,-4.502636719E-1,9.086360657E0
1.438262900E1,3.441942444E0,-8.326734467E0,-1.004561005E0,9.065904118E0
1.439268500E1,3.053649902E0,-8.389753418E0,-2.124681702E0,9.177527580E0
1.440274200E1,2.752027130E0,-8.416847076E0,-4.582869873E0,9.970940994E0
1.441279800E1,2.454296265E0,-8.519982605E0,-7.560328217E0,1.165213442E1
1.442285500E1,2.346370697E0,-8.928632812E0,-8.638685760E0,1.264329194E1
1.443291100E1,1.980381775E0,-9.602681122E0,-8.913065186E0,1.325051424E1
1.444296700E1,1.181343384E0,-9.976304169E0,-9.152118073E0,1.358983010E1
1.445302400E1,2.131567383E-1,-9.718989258E0,-8.639883270E0,1.300583603E1
1.446308000E1,1.766326904E-2,-8.946894836E0,-7.480244751E0,1.166195956E1
1.447313600E1,4.514611816E-1,-8.521329803E0,-5.615871735E0,1.021542433E1
1.448319300E1,9.533674622E-1,-8.198451233E0,-3.977678375E0,9.162174272E0
1.449324900E1,1.543590088E0,-8.563991089E0,-3.073259125E0,9.228734224E0
1.450330600E1,2.334994354E0,-9.916278992E0,-2.620151367E0,1.051902946E1
1.451336200E1,3.504961395E0,-1.208167603E1,-2.153721313E0,1.276284316E1
1.452341800E1,4.609963531E0,-1.454854614E1,-1.851499786E0,1.537335390E1
1.453347500E1,5.330714722E0,-1.564247131E1,-1.448088684E0,1.658916481E1
1.454353100E1,5.181475067E0,-1.431024170E1,-5.869294739E-1,1.523073168E1
1.455358800E1,4.480632477E0,-1.143741577E1,2.853067017E-1,1.228706421E1
1.456364400E1,4.151167603E0,-9.114845581E0,7.807763672E-1,1.004600489E1
1.457370000E1,4.300257568E0,-7.964487762E0,1.114881592E0,9.119662353E0
1.458375700E1,4.790338440E0,-7.403304749E0,1.279988251E0,8.910366631E0
1.459381300E1,5.171894989E0,-7.259753265E0,1.378782806E0,9.019620684E0
1.460386900E1,5.321434021E0,-7.475754089E0,1.412313080E0,9.284351753E0
1.461392600E1,5.389243011E0,-7.773185577E0,1.390159149E0,9.560277021E0
1.462398200E1,5.481301575E0,-8.205636292E0,1.350042572E0,9.959907070E0
1.463403900E1,5.751789093E0,-8.480614471E0,1.258433075E0,1.032412482E1
1.464409500E1,5.867797852E0,-8.497379608E0,1.143472137E0,1.038961214E1
1.465415100E1,5.750741272E0,-8.518186340E0,1.007854156E0,1.032696924E1
1.466420800E1,5.630990295E0,-8.397237854E0,9.297166443E-1,1.015312899E1
1.467426400E1,5.368885345E0,-8.156987457E0,8.729846191E-1,9.804258074E0
1.468432100E1,5.200186157E0,-8.003406830E0,7.141648865E-1,9.571127856E0
1.469437700E1,5.055287476E0,-7.947572937E0,3.462300110E-1,9.425482601E0
1.470443300E1,5.048102417E0,-7.776029663E0,3.023712158E-2,9.270970263E0
1.471449000E1,4.705165558E0,-7.724087677E0,-1.227447510E-1,9.045174384E0
1.472454600E1,4.413422241E0,-7.723638611E0,-2.769241333E-1,8.899976194E0
1.473460200E1,4.329297180E0,-7.711214447E0,-4.397854614E-1,8.854324004E0
1.474465900E1,4.092190247E0,-7.738158417E0,-5.373825073E-1,8.770056822E0
1.475471500E1,3.928879852E0,-7.670050049E0,-6.209088135E-1,8.640097939E0
1.476477200E1,3.864663391E0,-7.524103546E0,-6.839277649E-1,8.486195525E0
1.477482800E1,3.783681793E0,-7.421117706E0,-7.472460938E-1,8.363468936E0
1.478488342E1,3.582799530E0,-7.459887085E0,-8.433462524E-1,8.318509524E0
1.479494042E1,3.444786530E0,-7.574997711E0,-9.795629883E-1,8.378943144E0
1.480499642E1,3.473227386E0,-7.783663788E0,-1.209035797E0,8.608745437E0
1.481505342E1,3.618575134E0,-8.086633759E0,-1.474134521E0,8.981136016E0
1.482510942E1,3.734883270E0,-8.379275208E0,-1.821262665E0,9.352999719E0
1.483516542E1,3.754791870E0,-8.622968445E0,-2.069596252E0,9.630019493E0
1.484522242E1,3.766766968E0,-8.834328918E0,-2.202220459E0,9.853104880E0
1.485527842E1,3.829636230E0,-8.971294098E0,-2.286046143E0,1.001879426E1
1.486533442E1,3.891158295E0,-9.049880676E0,-2.344873810E0,1.012619802E1
1.487539142E1,3.962709503E0,-9.037755890E0,-2.379900970E0,1.015125740E1
1.488544742E1,4.085753632E0,-9.023086395E0,-2.344424744E0,1.017869335E1
1.489550442E1,4.257745972E0,-9.017697601E0,-2.252066803E0,1.022345713E1
1.490556042E1,4.432582397E0,-9.001680908E0,-2.072590027E0,1.024566617E1
1.491561642E1,4.592000885E0,-8.998836823E0,-1.905687103E0,1.028091337E1
1.492567342E1,4.726720734E0,-9.007069702E0,-1.855092316E0,1.033975633E1
1.493572942E1,4.859794006E0,-8.996591492E0,-1.919757843E0,1.040392841E1
1.494578642E1,4.979994049E0,-8.962612152E0,-2.051783295E0,1.045650860E1
1.495584242E1,5.098697205E0,-8.917855225E0,-2.224374390E0,1.051059924E1
1.496589842E1,5.195096741E0,-8.862171021E0,-2.398462372E0,1.054892066E1
1.497595542E1,5.268893280E0,-8.821306000E0,-2.570155334E0,1.059161812E1
1.498601142E1,5.393284607E0,-8.785530396E0,-2.727029114E0,1.066347743E1
1.499606742E1,5.550906830E0,-8.731043701E0,-2.840343475E0,1.072899072E1
1.500612442E1,5.722599792E0,-8.616681519E0,-2.951861572E0,1.075680415E1
1.501618042E1,5.922883301E0,-8.440647583E0,-3.052452393E0,1.075372232E1
1.502623742E1,6.242917786E0,-8.387059021E0,-3.141217804E0,1.091714389E1
1.503629342E1,6.790479126E0,-8.794960785E0,-3.255879364E0,1.157854449E1
1.504634942E1,7.350165253E0,-9.659862213E0,-3.332819366E0,1.258751573E1
1.505640642E1,7.853119354E0,-1.082384171E1,-3.357667694E0,1.378771066E1
1.506646242E1,7.871231689E0,-1.181029037E1,-3.266507263E0,1.456397325E1
1.507651842E1,7.193441162E0,-1.204081100E1,-2.965333557E0,1.433596626E1
1.508657542E1,5.914800110E0,-1.113743958E1,-2.631078644E0,1.288215803E1
1.509663142E1,4.579427032E0,-9.616901550E0,-2.141446838E0,1.086470165E1
1.510668842E1,3.762425995E0,-8.650511169E0,-1.563049622E0,9.561920151E0
1.511674442E1,3.082090759E0,-8.091124420E0,-1.019380188E0,8.718068238E0
1.512680042E1,2.452350311E0,-7.725883942E0,-5.760021973E-1,8.126197343E0
1.513685742E1,2.106120300E0,-7.671546936E0,-3.082090759E-1,7.961367216E0
1.514691342E1,2.053130493E0,-7.875422974E0,-1.916015625E-1,8.140905539E0
1.515697042E1,2.345622253E0,-8.176147614E0,5.643264771E-2,8.506145907E0
1.516702642E1,2.534379730E0,-8.778944092E0,2.465373230E-1,9.140772431E0
1.517708242E1,2.885699158E0,-9.345066833E0,4.367916870E-1,9.790215561E0
1.518713942E1,3.363804932E0,-9.734706573E0,6.972500610E-1,1.032307383E1
1.519719542E1,3.830234985E0,-9.963430939E0,9.562115479E-1,1.071704235E1
1.520725242E1,3.945794678E0,-1.004980133E1,1.060843964E0,1.084864933E1
1.521730842E1,3.992796936E0,-9.933493195E0,9.726773071E-1,1.075001468E1
1.522736442E1,4.389172668E0,-9.422306213E0,1.187181244E0,1.046203089E1
1.523742142E1,3.959715729E0,-9.239536285E0,1.088536377E0,1.011104796E1
1.524747742E1,4.222419434E0,-8.797056427E0,5.405259705E-1,9.772880639E0
1.525753342E1,4.464915161E0,-8.272247772E0,4.206253052E-2,9.400389346E0
1.526759042E1,4.591252441E0,-7.833959198E0,-3.728746033E-1,9.087879355E0
1.527764642E1,4.609963531E0,-7.317682800E0,-1.053658905E0,8.712659893E0
1.528770342E1,4.620890808E0,-6.900650024E0,-2.061962128E0,8.557060853E0
1.529775942E1,5.002597046E0,-6.481671295E0,-3.069367218E0,8.744086865E0
1.530781542E1,4.909041595E0,-6.281687164E0,-3.521876221E0,8.715612149E0
1.531787242E1,4.442162476E0,-6.207441559E0,-3.405717773E0,8.358471853E0
1.532792842E1,4.165088654E0,-6.244264984E0,-3.183879089E0,8.153275093E0
1.533798442E1,4.152065735E0,-6.392905884E0,-3.140918427E0,8.244650633E0
1.534804142E1,4.152065735E0,-6.694378967E0,-2.821033630E0,8.367352650E0
1.535809742E1,4.239034882E0,-7.042704620E0,-2.333946533E0,8.544964103E0
1.536815442E1,4.357738037E0,-7.418872375E0,-1.933678894E0,8.818654216E0
1.537821042E1,4.392316132E0,-7.793393555E0,-1.476080475E0,9.066875849E0
1.538826642E1,4.335135040E0,-8.051606598E0,-1.108444977E0,9.211428494E0
1.539832342E1,4.443509674E0,-8.310568085E0,-1.140927429E0,9.492735934E0
1.540837942E1,4.560117188E0,-8.489146729E0,-1.264420624E0,9.719004088E0
1.541843642E1,4.549189911E0,-8.541687469E0,-1.311422882E0,9.766032134E0
1.542849242E1,4.391717377E0,-8.519234161E0,-1.436412964E0,9.691636313E0
1.543854842E1,4.008514252E0,-8.483009491E0,-1.749561768E0,9.544139715E0
1.544860542E1,3.858825531E0,-8.551117859E0,-2.002685394E0,9.592856712E0
1.545866142E1,3.815864868E0,-8.761131134E0,-2.090852051E0,9.782121740E0
1.546871742E1,3.737577667E0,-8.928483124E0,-2.219584351E0,9.930450765E0
1.547877442E1,3.624113617E0,-8.987610168E0,-2.438878326E0,9.992970706E0
1.548883042E1,3.494333496E0,-9.024283905E0,-2.711012421E0,1.004975895E1
1.549888742E1,3.259172516E0,-9.170380096E0,-3.064277802E0,1.020332667E1
1.550894342E1,3.077001343E0,-9.349258118E0,-3.543581085E0,1.046104830E1
1.551899942E1,3.026556244E0,-9.314829712E0,-4.239034882E0,1.067218403E1
1.552905642E1,3.066373444E0,-9.089548187E0,-4.978646851E0,1.080784238E1
1.553911242E1,3.102298737E0,-8.887019348E0,-5.715564423E0,1.101231343E1
1.554916942E1,3.192710724E0,-8.665180664E0,-6.404581604E0,1.123821264E1
1.555922542E1,3.098706207E0,-8.375982056E0,-6.665788422E0,1.114413706E1
1.556928142E1,2.865640869E0,-7.899971924E0,-6.403384094E0,1.056526298E1
1.557933842E1,2.589614868E0,-7.522007904E0,-5.822142792E0,9.858197338E0
1.558939442E1,2.704276428E0,-7.561525726E0,-5.111420746E0,9.519264906E0
1.559945042E1,2.864742737E0,-8.225395203E0,-4.577930145E0,9.839782599E0
1.560950742E1,3.118165741E0,-9.658814392E0,-4.181853790E0,1.097741109E1
1.561956342E1,3.547472992E0,-1.138637192E1,-3.819607086E0,1.252291613E1
1.562962042E1,4.338128815E0,-1.302681061E1,-3.518732758E0,1.417387161E1
1.563967642E1,5.307213593E0,-1.425096497E1,-3.399580536E0,1.558247947E1
1.564973242E1,5.635331268E0,-1.439541458E1,-2.802771606E0,1.571115680E1
1.565978942E1,5.102140045E0,-1.283461029E1,-1.781595154E0,1.392598778E1
1.566984542E1,4.465813293E0,-1.078971268E1,-7.685018921E-1,1.170264855E1
1.567990242E1,4.290827179E0,-9.358688507E0,-1.167572021E-1,1.029610998E1
1.568995842E1,4.320465546E0,-8.508306885E0,2.874023438E-2,9.542459566E0
1.570001442E1,4.477039948E0,-8.046517181E0,-7.694000244E-2,9.208487672E0
1.571007142E1,4.650080109E0,-7.732170868E0,-6.586303711E-2,9.022973417E0
1.572012742E1,4.793631592E0,-7.418722687E0,7.768844604E-2,8.833028112E0
1.573018342E1,4.796775055E0,-7.173532562E0,4.772076416E-1,8.642704871E0
1.574024042E1,4.824168091E0,-7.079977112E0,9.312135315E-1,8.617762605E0
1.575029642E1,5.078339539E0,-6.950346680E0,1.253643036E0,8.698762688E0
1.576035342E1,5.405708771E0,-6.763535156E0,1.337019653E0,8.760976925E0
1.577040942E1,5.726641388E0,-6.672075348E0,1.351689148E0,8.895958329E0
1.578046542E1,6.499035187E0,-6.451284485E0,1.109343109E0,9.224270811E0
1.579052275E1,7.024442596E0,-6.252647552E0,4.779560852E-1,9.416306984E0
1.580057875E1,6.927444305E0,-6.512656860E0,4.728666687E-1,9.519862755E0
1.581063475E1,6.583609314E0,-6.750661926E0,1.063688049E0,9.489298199E0
1.582069175E1,5.552553406E0,-7.310797119E0,1.915267181E0,9.377998305E0
1.583074775E1,4.581073608E0,-8.695567474E0,1.829345856E0,9.997281399E0
1.584080475E1,5.737568665E0,-9.040450287E0,7.920030212E-1,1.073669895E1
1.585086075E1,6.031557312E0,-8.857680359E0,-1.285826111E-1,1.071702937E1
1.586091675E1,5.203479309E0,-8.811576233E0,-5.984555054E-1,1.025076688E1
1.587097375E1,4.760999451E0,-8.335715790E0,-9.746232605E-1,9.648894444E0
1.588102975E1,4.292174377E0,-8.003257141E0,-7.412585449E-1,9.111769860E0
1.589108675E1,3.625311127E0,-8.139473877E0,-9.598040771E-1,8.961871435E0
1.590114275E1,3.496578827E0,-8.206235046E0,-1.160536652E0,8.995287791E0
1.591119875E1,3.072660370E0,-8.212971039E0,-1.041534119E0,8.830567839E0
1.592125575E1,2.871628418E0,-8.395740967E0,-1.250050507E0,8.960878440E0
1.593131175E1,2.888393555E0,-8.455017700E0,-1.672472076E0,9.089956242E0
1.594136775E1,3.019820251E0,-8.553961945E0,-1.914967804E0,9.271282597E0
1.595142475E1,3.082240448E0,-8.726702728E0,-2.026485901E0,9.474291097E0
1.596148075E1,3.209326172E0,-8.769813080E0,-2.117945709E0,9.575755321E0
1.597153775E1,3.357368317E0,-8.687933350E0,-2.196532288E0,9.569580032E0
1.598159375E1,3.400328979E0,-8.618328094E0,-2.161505127E0,9.513670203E0
1.599164975E1,3.414399719E0,-8.573720856E0,-2.103425903E0,9.465263614E0
1.600170675E1,3.459605713E0,-8.546178131E0,-2.075134735E0,9.450514087E0
1.601176275E1,3.516786804E0,-8.566086731E0,-2.036664734E0,9.481225372E0
1.602181875E1,3.618275757E0,-8.615184631E0,-1.950444031E0,9.545551718E0
1.603187575E1,3.829636230E0,-8.709787903E0,-1.880689087E0,9.698634461E0
1.604193175E1,4.019142151E0,-8.853638763E0,-1.811233521E0,9.890449426E0
1.605198875E1,4.153113556E0,-8.981622620E0,-1.785187683E0,1.005508787E1
1.606204475E1,4.341122589E0,-9.082512817E0,-1.842368774E0,1.023385104E1
1.607210075E1,4.583618317E0,-9.093739471E0,-1.970352631E0,1.037246084E1
1.608215775E1,4.866979065E0,-9.060059509E0,-2.161505127E0,1.050924678E1
1.609221375E1,5.109325104E0,-8.991502075E0,-2.388882294E0,1.061409776E1
1.610227075E1,5.415737915E0,-8.894354095E0,-2.674338684E0,1.075136453E1
1.611232675E1,5.821244659E0,-8.804840240E0,-3.022514648E0,1.097942147E1
1.612238275E1,6.285728760E0,-8.603957977E0,-3.230432281E0,1.113436894E1
1.613243975E1,6.765780487E0,-8.281977539E0,-3.456013184E0,1.123881509E1
1.614249575E1,7.312743073E0,-8.083340607E0,-3.751349030E0,1.152775894E1
1.615255175E1,7.859705658E0,-8.346194000E0,-4.060905304E0,1.216243722E1
1.616260875E1,8.263116760E0,-9.033863983E0,-4.293521576E0,1.297397875E1
1.617266475E1,8.495733032E0,-9.778715057E0,-4.457430725E0,1.369924949E1
1.618272175E1,8.367749176E0,-1.023975632E1,-4.413721619E0,1.394104638E1
1.619277775E1,7.669900360E0,-1.033121613E1,-4.017495575E0,1.347967614E1
1.620283375E1,6.584956512E0,-1.015772690E1,-3.273991699E0,1.254033850E1
1.621289075E1,5.334307251E0,-1.020008881E1,-2.483186188E0,1.177551949E1
1.622294675E1,4.288581848E0,-1.033495834E1,-1.861828308E0,1.134326685E1
1.623300275E1,3.478167114E0,-1.013422577E1,-1.370998993E0,1.080184321E1
1.624305975E1,2.932252350E0,-9.763147430E0,-9.060658264E-1,1.023416371E1
1.625311575E1,2.780018921E0,-9.591604156E0,-4.658312988E-1,9.997218328E0
1.626317275E1,2.744093628E0,-9.723180542E0,-4.326004028E-2,1.010307681E1
1.627322875E1,2.691852264E0,-1.003827530E1,3.552113342E-1,1.039900066E1
1.628328475E1,2.671494598E0,-1.044363235E1,7.143145752E-1,1.080354504E1
1.629334175E1,2.723436584E0,-1.082683548E1,9.976753235E-1,1.120860515E1
1.630339775E1,2.732118530E0,-1.115255814E1,1.213526459E0,1.154628387E1
1.631345475E1,2.668051758E0,-1.140493332E1,1.347946930E0,1.179016391E1
1.632351075E1,2.631976776E0,-1.143112885E1,1.592987366E0,1.183788905E1
1.633356675E1,2.809058533E0,-1.102143082E1,1.466201019E0,1.146788963E1
1.634362375E1,3.106490021E0,-1.048240173E1,4.770579529E-1,1.094342774E1
1.635367975E1,3.458108826E0,-1.002659958E1,-6.942562866E-1,1.062888553E1
1.636373575E1,4.261787567E0,-9.541159058E0,-2.190844116E0,1.067690720E1
1.637379275E1,4.863087158E0,-8.912466431E0,-3.462300110E0,1.072703112E1
1.638384875E1,4.966372375E0,-8.540639648E0,-3.096610565E0,1.035356833E1
1.639390575E1,4.929848328E0,-8.322393494E0,-2.546504517E0,1.000251585E1
1.640396175E1,4.932243347E0,-7.885601807E0,-2.550097046E0,9.644311029E0
1.641401775E1,4.647834778E0,-7.292535095E0,-2.585273895E0,9.025911442E0
1.642407475E1,4.414170685E0,-6.865173798E0,-2.808908844E0,8.631655867E0
1.643413075E1,4.202211456E0,-6.476132812E0,-2.850821686E0,8.229584535E0
1.644418775E1,3.730542297E0,-6.245013428E0,-2.702629852E0,7.760241405E0
1.645424375E1,3.023712158E0,-5.941594391E0,-2.539618835E0,7.134076181E0
1.646429975E1,2.909050598E0,-5.792654114E0,-1.927990723E0,6.762733566E0
1.647435675E1,3.094514923E0,-6.091582489E0,-1.434167633E0,6.981420817E0
1.648441275E1,2.840493164E0,-6.278843079E0,-1.647623749E0,7.085685277E0
1.649446875E1,2.665357361E0,-6.331383820E0,-1.913470917E0,7.131053350E0
1.650452575E1,2.573897552E0,-6.368356934E0,-2.215243378E0,7.217217044E0
1.651458175E1,2.527494049E0,-6.414610748E0,-2.356250153E0,7.286108152E0
1.652463875E1,2.498903503E0,-6.465504913E0,-2.304308167E0,7.304595035E0
1.653469475E1,2.493814087E0,-6.460565186E0,-2.325563965E0,7.305221350E0
1.654475075E1,2.561323700E0,-6.477030945E0,-2.437980194E0,7.379434693E0
1.655480775E1,2.699037323E0,-6.581813049E0,-2.575394440E0,7.565561579E0
1.656486375E1,2.920127563E0,-6.750811615E0,-2.644999695E0,7.816433063E0
1.657491975E1,3.298241272E0,-6.962471466E0,-2.693349152E0,8.161405152E0
1.658497675E1,3.698359222E0,-7.328909454E0,-2.646646271E0,8.625283254E0
1.659503275E1,4.044738922E0,-7.754474487E0,-2.516417084E0,9.100777025E0
1.660508975E1,4.267475739E0,-8.183931427E0,-2.372715912E0,9.529840690E0
1.661514575E1,4.344415741E0,-8.571026459E0,-2.295326843E0,9.879522661E0
1.662520175E1,4.396507416E0,-8.837472382E0,-2.395019531E0,1.015708197E1
1.663525875E1,4.429588623E0,-9.094936981E0,-2.625390472E0,1.045140226E1
1.664531475E1,4.328099670E0,-9.313332825E0,-3.031346283E0,1.070792582E1
1.665537075E1,4.182452545E0,-9.473499756E0,-3.514990540E0,1.093596202E1
