"Time (s)","Acceleration x (m/s^2)","Acceleration y (m/s^2)","Acceleration z (m/s^2)","Absolute acceleration (m/s^2)"
-1.116750005E-3,5.807922363E-1,5.536237335E0,8.677904205E0,1.030986250E1
8.939250023E-3,9.156459045E-1,5.484594727E0,8.602610779E0,1.024324650E1
1.899524999E-2,9.717791748E-1,5.446573792E0,8.542286224E0,1.017743459E1
2.905125002E-2,8.123606873E-1,5.468877411E0,8.390801239E0,1.004858674E1
3.910724999E-2,5.316943359E-1,5.505251770E0,8.013435974E0,9.736819400E0
4.916425003E-2,2.874023438E-1,5.538782043E0,7.454947357E0,9.291767686E0
5.922025000E-2,3.058140564E-1,5.606740723E0,6.968908081E0,8.949566672E0
6.927625003E-2,5.051994324E-1,5.567073212E0,6.708599396E0,8.732287012E0
7.933225000E-2,7.607180786E-1,5.349725189E0,6.677763519E0,8.590155832E0
8.938925003E-2,8.776249695E-1,5.099894714E0,6.673272858E0,8.444626831E0
9.944525000E-2,8.003855896E-1,4.937931519E0,6.616840210E0,8.294959864E0
1.095012500E-1,1.323248291E0,4.884043579E0,6.819668427E0,8.491922348E0
1.195572500E-1,2.338586884E0,4.612957306E0,7.659272461E0,9.241905558E0
1.296142500E-1,2.627785492E0,4.335883484E0,8.210276642E0,9.649548420E0
1.396702500E-1,2.910098419E0,4.182003479E0,8.517288208E0,9.924818604E0
1.497262500E-1,3.186723175E0,3.921994171E0,8.653055878E0,1.002060971E1
1.597822500E-1,3.312461700E0,3.742068329E0,8.777746582E0,1.010070854E1
1.698382500E-1,3.407663727E0,3.768114166E0,8.910221100E0,1.025684632E1
1.798952500E-1,3.372786255E0,3.776796112E0,8.943601685E0,1.027754285E1
1.899512500E-1,3.308569794E0,3.721860352E0,8.844208374E0,1.014982267E1
2.000072500E-1,3.343746643E0,3.723207550E0,8.620872803E0,9.968067213E0
2.100632500E-1,3.384611664E0,3.659589844E0,8.366252289E0,9.738704806E0
2.201202500E-1,3.493135986E0,3.621718597E0,8.151149597E0,9.579148416E0
2.301762500E-1,3.738475800E0,3.712729340E0,7.822882233E0,9.431757359E0
2.402322500E-1,4.084107056E0,3.749702454E0,7.255711670E0,9.131568911E0
2.502882500E-1,4.465064850E0,3.654650116E0,6.460864563E0,8.662334702E0
2.603452500E-1,4.865631866E0,3.690725098E0,5.654341736E0,8.322704228E0
2.704012500E-1,5.128784637E0,3.705394592E0,5.040318604E0,8.089449460E0
2.804572500E-1,5.242548065E0,3.307222595E0,4.525239716E0,7.674622205E0
2.905132500E-1,5.148992615E0,3.023412781E0,4.109853516E0,7.248727179E0
3.005692500E-1,1.844015350E0,2.674338684E0,4.122127991E0,5.248277735E0
3.106262500E-1,-3.412902832E-2,3.036136322E0,6.235882416E0,6.935814160E0
3.206822500E-1,4.543052673E-1,3.478765869E0,9.352700958E0,9.989055034E0
3.307382500E-1,1.218166809E0,2.792293396E0,1.055874298E1,1.098944430E1
3.407942500E-1,2.155068512E0,2.651735687E0,1.119821320E1,1.170794607E1
3.508512500E-1,3.323388977E0,2.471809845E0,9.332942047E0,1.021070837E1
3.609072500E-1,3.608396301E0,2.149979095E0,7.798183594E0,8.857460208E0
3.709632500E-1,3.511697388E0,2.686463470E0,7.780370636E0,8.948925732E0
3.810192500E-1,3.780238953E0,2.621049500E0,8.203840027E0,9.405482348E0
3.910752500E-1,3.870501251E0,1.421593781E0,8.915609894E0,9.822922609E0
4.011322500E-1,1.968406677E0,-1.086590424E0,9.592053223E0,9.852044895E0
4.111882500E-1,3.434158630E0,4.415817261E-1,9.821226654E0,1.041368969E1
4.212442500E-1,3.983815613E0,1.766326904E0,9.908195801E0,1.082418780E1
4.313002500E-1,4.060905304E0,2.177970886E0,9.378896484E0,1.044979466E1
4.413572500E-1,4.417164459E0,1.605112152E0,8.628506927E0,9.825419008E0
4.514132500E-1,4.529281311E0,1.163231049E0,8.125253448E0,9.374819426E0
4.614692500E-1,3.785328369E0,7.125183105E-1,7.952961731E0,8.836627948E0
4.715252500E-1,2.821183319E0,1.047821045E-1,7.588170319E0,8.096319126E0
4.815822500E-1,2.584226074E0,-1.577719116E-1,7.481891327E0,7.917184740E0
4.916382500E-1,2.959346008E0,1.631607056E-1,8.516689453E0,9.017668737E0
5.016942500E-1,3.513343964E0,2.118095398E-1,1.006387207E1,1.066161199E1
5.117502500E-1,2.483635254E0,-8.134085083E-1,1.091814560E1,1.122657476E1
5.218062500E-1,6.713539124E-1,-2.782563629E0,8.882528687E0,9.332346559E0
5.318632500E-1,3.893403625E-1,-2.954106903E0,7.616311798E0,8.178419097E0
5.419192500E-1,1.090182953E0,-1.957629089E0,7.483388214E0,7.811652174E0
5.519752500E-1,4.085753632E0,-7.713459778E-1,9.040749664E0,9.951055816E0
5.620312500E-1,4.527784424E0,1.825903015E0,1.163889679E1,1.262135778E1
5.720880417E-1,3.665727081E0,1.504072266E0,1.248373993E1,1.309746353E1
5.821440417E-1,4.397106171E0,-8.146060181E-1,1.202808746E1,1.283249834E1
5.922000417E-1,3.648662567E0,-1.035546570E0,1.123054596E1,1.185370228E1
6.022560417E-1,3.670666809E0,-9.997709656E-1,1.184426971E1,1.244025972E1
6.123130417E-1,2.951113129E0,-1.250349884E0,1.122306152E1,1.167174166E1
6.223690417E-1,2.516716461E0,-9.222322083E-1,9.129814453E0,9.515139828E0
6.324250417E-1,3.610641632E0,-2.165995789E-1,8.947643280E0,9.651112301E0
6.424810417E-1,3.290756836E0,3.186872864E-1,9.218729553E0,9.793651858E0
6.525370417E-1,3.963158569E0,2.920426941E-1,9.126072235E0,9.953748501E0
6.625940417E-1,4.826263733E0,6.107299805E-2,9.178313599E0,1.037005265E1
6.726500417E-1,5.476062469E0,2.380050659E-1,8.909173279E0,1.046027127E1
6.827060417E-1,5.653892670E0,7.985893250E-1,8.388406219E0,1.014739406E1
6.927620417E-1,5.507048035E0,1.072519684E0,8.724756775E0,1.037300618E1
7.028190417E-1,5.177583160E0,1.134939880E0,9.136251068E0,1.056250631E1
7.128750417E-1,5.654042358E0,1.002165985E0,9.269474030E0,1.090392959E1
7.229310417E-1,5.088817749E0,9.131011963E-1,9.930349731E0,1.119560921E1
7.329870417E-1,4.188140717E0,1.118773499E0,1.000803818E1,1.090655789E1
7.430440417E-1,4.057911530E0,1.333576813E0,9.869276733E0,1.075396189E1
7.531000417E-1,4.478237457E0,1.275946655E0,9.432934113E0,1.051964337E1
7.631560417E-1,5.334456940E0,9.791139221E-1,8.681496735E0,1.023638024E1
7.732120417E-1,6.062393188E0,7.855664063E-1,7.987689514E0,1.005847451E1
7.832680417E-1,6.648873596E0,1.065634003E0,7.377707977E0,9.988677136E0
7.933250417E-1,7.036417694E0,1.525028687E0,7.007527771E0,1.004700612E1
8.033810417E-1,7.232210541E0,1.724264374E0,6.838678894E0,1.010175658E1
8.134370417E-1,7.449708252E0,1.551673279E0,6.619983673E0,1.008613042E1
8.234930417E-1,6.991810455E0,1.649120636E0,6.760541382E0,9.864579671E0
8.335500417E-1,6.896608429E0,1.789229279E0,6.617289276E0,9.723840116E0
8.436060417E-1,6.767726440E0,1.886227570E0,6.533014526E0,9.593761224E0
8.536620417E-1,6.706503754E0,1.987716522E0,6.405180359E0,9.484436989E0
8.637180417E-1,6.751260681E0,2.030976563E0,6.328390045E0,9.473801093E0
8.737740417E-1,6.788832550E0,2.077829132E0,6.375242615E0,9.541977766E0
8.838310417E-1,6.873256989E0,2.171384583E0,6.343658295E0,9.602008810E0
8.938870417E-1,7.105873260E0,2.155367889E0,6.288423157E0,9.730534997E0
9.039430417E-1,7.386689301E0,2.074835358E0,6.339317322E0,9.952641091E0
9.139990417E-1,7.555388489E0,1.923050995E0,6.381080475E0,1.007473118E1
9.240560417E-1,7.519762573E0,1.827998657E0,6.355932770E0,1.001430425E1
9.341120417E-1,7.418722687E0,1.807491302E0,6.314918060E0,9.908716426E0
9.441680417E-1,7.274722137E0,1.666334839E0,6.176156616E0,9.687268166E0
9.542240417E-1,7.169191589E0,1.281784515E0,5.522765350E0,9.140088441E0
9.642800417E-1,7.260202332E0,8.195457458E-1,5.090763702E0,8.904946277E0
9.743370417E-1,7.405849457E0,6.577322388E-1,4.916675720E0,8.913636632E0
9.843930417E-1,7.716902618E0,6.610253906E-1,4.380640411E0,8.898176836E0
9.944490417E-1,8.002808075E0,6.583309937E-1,4.103865967E0,9.017763174E0
1.004505042E0,8.245004425E0,6.625222778E-1,4.441414032E0,9.388567108E0
1.014562042E0,8.633446655E0,5.629792786E-1,5.136568451E0,1.006169381E1
1.024618042E0,9.044192505E0,3.838018799E-1,5.877976685E0,1.079330032E1
1.034674042E0,9.411828003E0,-1.255888367E-1,6.370901642E0,1.136603126E1
1.044730042E0,9.385782166E0,-5.971083069E-1,6.647077332E0,1.151664371E1
1.054787042E0,8.945248260E0,-7.568261719E-1,6.736441498E0,1.122363116E1
1.064843042E0,8.712631989E0,-7.908055115E-1,6.650220795E0,1.098912035E1
1.074899042E0,8.488248596E0,-8.026309204E-1,6.363716583E0,1.063914796E1
1.084955042E0,8.494385834E0,-6.911128235E-1,5.844296722E0,1.033382948E1
1.095011042E0,8.780291290E0,-5.445675659E-1,5.040917358E0,1.013907870E1
1.105068042E0,8.804241486E0,-4.116439819E-1,4.466112671E0,9.880803677E0
1.115124042E0,8.371940460E0,-4.957690430E-1,4.083508301E0,9.327926568E0
1.125180042E0,7.722141724E0,-5.538482666E-1,3.812571716E0,8.629827565E0
1.135236042E0,7.335196381E0,-5.101391602E-1,3.467988281E0,8.129716516E0
1.145293042E0,7.192992096E0,-5.156776428E-1,3.116070099E0,7.855886429E0
1.155349042E0,7.222480774E0,-5.966592407E-1,2.951861572E0,7.825197603E0
1.165405042E0,6.999594269E0,-6.942562866E-1,3.036884766E0,7.661526010E0
1.175461042E0,6.749015350E0,-8.120613098E-1,3.161276093E0,7.496820546E0
1.185518042E0,7.005432129E0,-7.408094788E-1,2.996468811E0,7.655305568E0
1.195574042E0,8.005352783E0,-2.980302429E-1,2.457739105E0,8.379437733E0
1.205630042E0,8.520431671E0,2.113604736E-1,2.091600494E0,8.775945632E0
1.215686042E0,8.367599487E0,1.978884888E-1,2.270478516E0,8.672424904E0
1.225742042E0,7.955207062E0,-5.453160095E-1,2.732268219E0,8.428996296E0
1.235799042E0,7.601492615E0,-1.467248840E0,3.325185242E0,8.425696768E0
1.245855042E0,7.863148499E0,-2.058519287E0,3.668870544E0,8.917803375E0
1.255911042E0,8.696315918E0,-2.454296265E0,3.315754852E0,9.625160307E0
1.265967042E0,9.475296021E0,-2.737956390E0,2.662064209E0,1.021588105E1
1.276024042E0,9.972861328E0,-3.018622742E0,2.094594269E0,1.062814055E1
1.286080042E0,1.018736526E1,-3.316203918E0,1.708846436E0,1.084895274E1
1.296136042E0,1.058628571E1,-3.486549683E0,1.431772614E0,1.123723483E1
1.306192042E0,1.111932724E1,-3.564537506E0,1.088536377E0,1.172733036E1
1.316248042E0,1.143502075E1,-3.774401093E0,6.233038330E-1,1.205795633E1
1.326305042E0,1.178858551E1,-4.027973785E0,1.107696533E-1,1.245823387E1
1.336361042E0,1.208422073E1,-4.291725311E0,-2.380050659E-1,1.282590906E1
1.346417042E0,1.211640381E1,-4.791535950E0,-6.616241455E-1,1.304621802E1
1.356473042E0,1.211041626E1,-5.385949860E0,-1.040037231E0,1.329482288E1
1.366530042E0,1.186178329E1,-5.627996521E0,-1.538650360E0,1.321906550E1
1.376586042E0,1.161898819E1,-5.350323944E0,-2.654879150E0,1.306427327E1
1.386642042E0,1.191028244E1,-4.683909760E0,-3.668122101E0,1.331348783E1
1.396698042E0,1.211730194E1,-3.909270630E0,-4.423152008E0,1.347871199E1
1.406755042E0,1.179202835E1,-3.409010925E0,-5.715863800E0,1.354047219E1
1.416811042E0,1.112411728E1,-3.101250916E0,-6.637197876E0,1.331976494E1
1.426867042E0,1.068193680E1,-3.280128937E0,-7.118596802E0,1.324905431E1
1.436923042E0,1.052401520E1,-3.562441864E0,-6.932982788E0,1.309626429E1
1.446979042E0,1.015712814E1,-3.027005310E0,-5.735473022E0,1.205096113E1
1.457036042E0,9.729018402E0,-2.257305908E0,-4.425247650E0,1.092392081E1
1.467092042E0,8.717422028E0,-1.900747375E0,-4.005819855E0,9.780229041E0
1.477148042E0,8.027057648E0,-1.560205536E0,-3.325334930E0,8.827556185E0
1.487204042E0,7.866741028E0,-8.599617004E-1,-2.756368103E0,8.379899382E0
1.497261042E0,7.219936066E0,-3.852987671E-1,-2.400707703E0,7.618354770E0
1.507317042E0,6.905290375E0,-6.218069458E-1,-2.256856842E0,7.291301793E0
1.517373042E0,6.505920868E0,-1.940863953E0,-1.636397095E0,6.983677733E0
1.527429042E0,6.363267517E0,-3.309018860E0,-2.627037048E-1,7.177032294E0
1.537485042E0,7.101681976E0,-3.743116150E0,1.634451141E0,8.192449935E0
1.547542042E0,8.006699982E0,-3.651506653E0,3.179089050E0,9.356674229E0
1.557598042E0,8.631051636E0,-3.946842499E0,3.465742950E0,1.010366232E1
1.567654042E0,9.645791473E0,-4.186194763E0,3.167862396E0,1.098184283E1
1.577709750E0,1.009665390E1,-3.807931366E0,1.807640991E0,1.094122147E1
1.587766750E0,9.891131287E0,-3.576811981E0,1.862127686E-1,1.051963580E1
1.597822750E0,9.435179443E0,-3.792214050E0,-9.617500305E-1,1.021413049E1
1.607878750E0,9.748328247E0,-4.311484222E0,-1.427880707E0,1.075442435E1
1.617934750E0,1.050021469E1,-4.846621399E0,-1.313817902E0,1.163917373E1
1.627990750E0,1.167107986E1,-4.864134979E0,-7.412585449E-1,1.266583509E1
1.638047750E0,1.255424332E1,-4.607418823E0,-6.126759338E-1,1.338703497E1
1.648103750E0,1.347108673E1,-4.298461304E0,-1.256337433E0,1.419596179E1
1.658159750E0,1.351105362E1,-4.136947174E0,-1.899400177E0,1.425730069E1
1.668215750E0,1.264959503E1,-4.010609894E0,-2.215093689E0,1.345376848E1
1.678272750E0,1.222582626E1,-4.189338226E0,-2.513123932E0,1.316575765E1
1.688328750E0,1.170371201E1,-3.977678375E0,-2.035018158E0,1.252757354E1
1.698384750E0,1.077279785E1,-3.805686035E0,-1.154998169E0,1.148348556E1
1.708440750E0,1.008752289E1,-4.040697327E0,-3.115022278E-1,1.087117227E1
1.718497750E0,9.503886566E0,-3.961661682E0,5.222639465E-1,1.030977123E1
1.728553750E0,9.392368469E0,-3.894601135E0,1.297352142E0,1.025025005E1
1.738609750E0,9.156908112E0,-3.745810547E0,1.589544525E0,1.002031510E1
1.748665750E0,9.203610992E0,-3.858975220E0,1.433568878E0,1.008232437E1
1.758721750E0,1.020398071E1,-3.459605713E0,1.696721649E0,1.090728923E1
1.768778750E0,1.042028091E1,-3.578907623E0,1.311273193E0,1.109550682E1
1.778834750E0,1.044947021E1,-4.119583282E0,1.183139648E0,1.129434432E1
1.788890750E0,1.073492661E1,-3.622766418E0,1.854792938E0,1.148056369E1
1.798946750E0,1.074735077E1,-2.683769073E0,1.730401611E-1,1.107872321E1
1.809003750E0,9.718689880E0,-3.380270691E0,-1.152752838E0,1.035412971E1
1.819059750E0,9.298813019E0,-3.063529358E0,-1.220412140E0,9.866232385E0
1.829115750E0,1.048075516E1,-4.475842438E0,-6.511459351E-1,1.141505082E1
1.839171750E0,1.408825333E1,-5.347928925E0,2.802023163E0,1.532744465E1
1.849227750E0,1.252535339E1,-3.862418060E0,-6.141728210E-1,1.312173613E1
1.859284750E0,1.268851410E1,-4.492607574E0,7.469467163E-1,1.348109203E1
1.869340750E0,1.156180710E1,-4.245321808E0,2.066901855E0,1.248880394E1
1.879396750E0,1.110031677E1,-4.206552429E0,2.750679932E0,1.218516951E1
1.889452750E0,1.016506165E1,-4.183051300E0,2.775378571E0,1.133706852E1
1.899509750E0,9.196575623E0,-4.961881714E0,4.720134430E0,1.146633954E1
1.909565750E0,8.879085846E0,-5.085075531E0,4.720134430E0,1.126835514E1
1.919621750E0,8.909322968E0,-4.639302521E0,3.387156372E0,1.060056564E1
1.929677750E0,9.139394531E0,-4.011058960E0,2.565365295E0,1.030525232E1
1.939733750E0,9.548044739E0,-3.974834290E0,2.797981567E0,1.071415731E1
1.949790750E0,1.061682220E1,-3.658392334E0,3.430715790E0,1.174182946E1
1.959846750E0,1.110031677E1,-3.324586487E0,3.822600861E0,1.220172877E1
1.969902750E0,1.061592407E1,-3.764072571E0,4.650229797E0,1.218567698E1
1.979958750E0,9.458381195E0,-3.226240997E0,4.952750702E0,1.115344545E1
1.990015750E0,8.086633759E0,-3.500321045E0,4.590653687E0,9.935793588E0
2.000071750E0,7.182663574E0,-3.200195160E0,4.208348694E0,8.918638002E0
2.010127750E0,6.906787262E0,-2.835254059E0,3.992647247E0,8.466617264E0
2.020183750E0,7.244185638E0,-2.226320343E0,2.769840088E0,8.068874887E0
2.030239750E0,8.469687195E0,-5.310955811E-1,-2.484832764E-1,8.489959224E0
2.040296750E0,9.569450226E0,5.029541016E-1,-2.548899536E0,9.915857467E0
2.050352750E0,8.067323914E0,-1.992356873E-1,-1.310824127E0,8.175553185E0
2.060408750E0,6.598278809E0,-1.005459137E0,2.609074402E-1,6.679543697E0
2.070464750E0,6.036646729E0,-2.089804230E0,1.184337158E0,6.497002382E0
2.080521750E0,6.522536316E0,-2.221829681E0,2.382894745E0,7.290966636E0
2.090577750E0,8.206384735E0,-1.378034363E0,3.969146118E0,9.219427858E0
2.100633750E0,6.327192535E0,-1.861528931E0,4.354744263E0,7.903319109E0
2.110689750E0,5.526507568E0,-4.043092346E-1,5.777984619E-2,5.541578329E0
2.120745750E0,5.768254852E0,8.072712708E-1,-1.043929138E0,5.917283075E0
2.130802750E0,6.078709259E0,8.472381592E-2,1.332379303E0,6.223593736E0
2.140858750E0,6.527625732E0,-1.001118164E0,3.881129150E0,7.659980337E0
2.150914750E0,7.176825714E0,-1.454974365E0,4.693190460E0,8.697690178E0
2.160970750E0,7.508685608E0,-1.815125427E0,4.287234650E0,8.834897895E0
2.171027750E0,7.634873199E0,-2.270777893E0,3.288661194E0,8.617599054E0
2.181083750E0,8.155640259E0,-2.549947357E0,2.541265411E0,8.914860035E0
2.191139750E0,8.881181488E0,-2.713108063E0,2.052082672E0,9.510382920E0
2.201195750E0,9.932595062E0,-2.721490631E0,2.070644073E0,1.050478571E1
2.211252750E0,1.127380600E1,-3.013982391E0,3.340154114E0,1.213834507E1
2.221308750E0,1.213167206E1,-3.501069489E0,5.064268799E0,1.360447621E1
2.231364750E0,1.176523407E1,-3.523373108E0,6.654262390E0,1.396832484E1
2.241420750E0,1.117920273E1,-3.501518555E0,5.994733887E0,1.315948480E1
2.251476750E0,1.062280975E1,-2.955454102E0,4.021836548E0,1.173686352E1
2.261533750E0,1.010907806E1,-2.825973358E0,3.490142212E0,1.106167607E1
2.271589750E0,1.052715866E1,-3.327729950E0,4.326602783E0,1.185809208E1
2.281645750E0,1.096993790E1,-3.766617279E0,5.654940491E0,1.290369308E1
2.291701750E0,1.032118698E1,-4.141437836E0,6.961124268E0,1.312004798E1
2.301758750E0,8.967402191E0,-3.983216858E0,6.278992767E0,1.164929478E1
2.311814750E0,7.474556580E0,-3.437601471E0,5.456153870E0,9.871966115E0
2.321870750E0,5.990093536E0,-3.137625275E0,4.531376953E0,8.139980960E0
2.331926750E0,4.486919403E0,-2.603835297E0,2.961591339E0,5.973560684E0
2.341982750E0,3.191363525E0,-1.713187408E0,5.903723145E-1,3.669925301E0
2.352039750E0,2.550695801E0,-1.526824951E0,-9.011260986E-1,3.106327694E0
2.362095750E0,2.493365021E0,-1.884880371E0,-6.953041077E-1,3.202044806E0
2.372151750E0,4.122277679E0,-1.961820374E0,-2.612068176E-1,4.572760812E0
2.382207750E0,6.189778290E0,-1.894310760E0,3.121009827E-1,6.480677091E0
2.392264750E0,7.129973145E0,-1.867516479E0,9.355545044E-1,7.429629673E0
2.402320750E0,7.577991486E0,-1.606908417E0,1.143921204E0,7.830495855E0
2.412376750E0,7.568261719E0,-1.208437042E0,1.119971008E0,7.745530362E0
2.422432750E0,8.029602356E0,-5.089416504E-1,7.679031372E-1,8.082277577E0
2.432488750E0,8.575966187E0,-9.639953613E-2,6.382727051E-1,8.600225634E0
2.442545750E0,9.204658813E0,-1.097218323E-1,8.354127502E-1,9.243143254E0
2.452601750E0,9.177864532E0,-1.505868530E-1,1.119072876E0,9.247064284E0
2.462657750E0,8.082292786E0,-2.902464294E-1,1.642085266E0,8.252523474E0
2.472713750E0,5.884413300E0,-1.273851013E0,2.553539886E0,6.539845735E0
2.482770750E0,4.352349243E0,-1.796414337E0,3.621269531E0,5.940003487E0
2.492826750E0,4.733456726E0,-2.359543304E0,4.605023804E0,7.012795549E0
2.502882750E0,5.817801819E0,-2.519261169E0,4.336033173E0,7.680799341E0
2.512938750E0,5.468877411E0,-2.166744232E0,3.849544830E0,7.030106408E0
2.522995750E0,5.819298706E0,-2.031275940E0,3.285966797E0,6.984833367E0
2.533051750E0,6.638245697E0,-2.623444519E0,1.194815369E0,7.237150741E0
2.543107750E0,7.788902893E0,-3.211571503E0,7.792794800E-1,8.460997359E0
2.553163750E0,9.001231842E0,-3.831133118E0,1.643282776E0,9.919684164E0
2.563219750E0,9.721234589E0,-3.843407593E0,2.610870667E0,1.077454544E1
2.573276750E0,1.179966248E1,-3.956721954E0,3.107388153E0,1.282745276E1
2.583332750E0,1.873743530E1,-3.771407318E0,6.472540283E-1,1.912417142E1
2.593388750E0,1.481768646E1,-2.129771118E0,-2.206561432E0,1.513171076E1
2.603444750E0,1.198123489E1,-2.570155334E0,-2.597398682E0,1.252605955E1
2.613501750E0,1.232177673E1,-3.783831482E0,-2.039808197E0,1.305007203E1
2.623557750E0,1.219154755E1,-5.149441681E0,1.624122620E-1,1.323544328E1
2.633613750E0,1.465138229E1,-4.014950867E0,1.523831177E0,1.526777309E1
2.643669750E0,1.153755753E1,-3.838467865E0,2.082918549E0,1.233643461E1
2.653725750E0,9.962383118E0,-4.250710602E0,3.896547089E0,1.151089472E1
2.663782750E0,1.082039886E1,-4.171974335E0,2.038011932E0,1.177454433E1
2.673838750E0,1.118728592E1,-3.877536621E0,1.522933044E0,1.193775446E1
2.683894750E0,1.122380997E1,-3.508703613E0,9.545649719E-1,1.179813992E1
2.693950750E0,1.064301773E1,-3.140020294E0,-3.959266663E-1,1.110361706E1
2.704007750E0,1.008198441E1,-2.782713318E0,-1.303040314E0,1.053982054E1
2.714063750E0,9.569599915E0,-2.591710510E0,-1.104403381E0,9.975666029E0
2.724119750E0,9.417366486E0,-2.838098145E0,-4.803511047E-1,9.847452959E0
2.734175750E0,9.233399048E0,-3.079845428E0,1.200503540E-1,9.734244600E0
2.744231750E0,8.729247437E0,-2.965782623E0,5.239105225E-2,9.219456177E0
2.754288750E0,9.473499756E0,-2.818339233E0,2.077679443E-1,9.886020492E0
2.764344750E0,1.006432114E1,-2.897524567E0,2.249821472E-1,1.047553462E1
2.774400750E0,9.073082428E0,-3.550616455E0,-8.532257080E-2,9.743458416E0
2.784456750E0,8.403973846E0,-3.843856659E0,-7.855664063E-1,9.274649589E0
2.794513750E0,8.406817932E0,-3.775598602E0,-8.171507263E-1,9.251889961E0
2.804569750E0,8.184081116E0,-2.744692383E0,-7.903564453E-2,8.632425303E0
2.814625750E0,8.502019958E0,-2.372715912E0,1.297801208E-1,8.827851780E0
2.824681750E0,9.364526367E0,-2.743345184E0,5.203179932E-1,9.771951069E0
2.834737750E0,9.891879730E0,-3.294948120E0,8.556207275E-1,1.046126448E1
2.844794750E0,9.296417999E0,-3.390599213E0,8.789721680E-1,9.934391914E0
2.854850750E0,8.880732422E0,-3.290158081E0,8.318202209E-1,9.507074914E0
2.864906750E0,9.094487915E0,-3.163671112E0,4.171824646E-1,9.638078987E0
2.874962750E0,9.061107330E0,-2.797382812E0,6.376739502E-2,9.483305486E0
2.885019750E0,9.211095428E0,-2.266586609E0,3.745211792E-1,9.493258659E0
2.895075750E0,9.229058075E0,-2.163002014E0,9.659413147E-1,9.528228234E0
2.905131750E0,9.001231842E0,-2.089055786E0,1.657353516E0,9.387925725E0
2.915187750E0,8.807235260E0,-1.923949127E0,2.272125092E0,9.296855684E0
2.925243750E0,8.669821014E0,-1.916764069E0,2.563419342E0,9.241801753E0
2.935300750E0,8.951235809E0,-1.612147522E0,2.155218201E0,9.347117611E0
2.945356750E0,8.568032684E0,-1.907034302E0,1.570983124E0,8.917171742E0
2.955412750E0,8.915609894E0,-2.267335052E0,1.439706116E0,9.311372709E0
2.965468750E0,9.468709717E0,-2.372266846E0,1.391805725E0,9.860083005E0
2.975525750E0,1.009620483E1,-2.294578400E0,1.762285309E0,1.050257547E1
2.985581750E0,9.511520691E0,-2.211650848E0,1.550924835E0,9.887658629E0
2.995637750E0,9.317973175E0,-1.930086365E0,2.030078430E0,9.729906264E0
3.005693750E0,9.590855713E0,-1.764380951E0,2.224823456E0,1.000236936E1
3.015750750E0,9.260792084E0,-1.400487671E0,1.822160797E0,9.541693021E0
3.025806750E0,9.028924255E0,-7.960446167E-1,2.266586609E0,9.343049561E0
3.035862750E0,8.260572052E0,-6.542893982E-1,2.979404297E0,8.805793275E0
3.045918750E0,7.405999146E0,-8.193960571E-1,2.943778381E0,8.011620585E0
3.055974750E0,7.285350037E0,-7.493417358E-1,2.743494873E0,7.820780160E0
3.066031750E0,6.992708588E0,-1.141825562E0,3.012485504E0,7.699143324E0
3.076087750E0,7.573500824E0,-2.179767151E0,2.842588806E0,8.377924008E0
3.086143750E0,9.474547577E0,-3.190764771E0,3.219954071E0,1.050314885E1
3.096199750E0,1.201266953E1,-4.657863922E0,3.649560699E0,1.339101261E1
3.106256750E0,1.198153427E1,-5.525310059E0,2.114203491E0,1.336248746E1
3.116312750E0,9.720486145E0,-4.127217407E0,1.550924835E0,1.067366583E1
3.126368750E0,7.688162384E0,-2.884351959E0,-3.486250305E-1,8.218811744E0
3.136424750E0,5.667963409E0,-3.076402588E0,5.164260864E-2,6.449242518E0
3.146480750E0,5.018464050E0,-3.972439270E0,2.401007080E0,6.835941060E0
3.156537750E0,5.035827942E0,-4.369114380E0,2.854563904E0,7.252396749E0
3.166593750E0,6.827452240E0,-4.653073883E0,2.713407440E0,8.696423437E0
3.176649750E0,8.923992462E0,-5.182373199E0,2.630928955E0,1.064971458E1
3.186705750E0,9.968220978E0,-6.774312744E0,1.999242554E0,1.221694370E1
3.196761750E0,9.833800507E0,-7.548802185E0,3.756438446E0,1.295372057E1
3.206818750E0,1.166748734E1,-6.589596863E0,2.453248444E0,1.362246217E1
3.216874750E0,1.118668716E1,-5.737418976E0,1.501527557E0,1.266153747E1
3.226930750E0,1.050440598E1,-6.014343109E0,1.837578735E0,1.224302101E1
3.236986750E0,9.390572205E0,-6.115382996E0,2.258054352E0,1.143151630E1
3.247043750E0,9.749076691E0,-5.420378265E0,2.295027466E0,1.138824604E1
3.257099750E0,8.922645264E0,-5.455555115E0,2.430046692E0,1.073693658E1
3.267155750E0,6.537205811E0,-5.782325592E0,3.072211304E0,9.252504059E0
3.277211750E0,7.240443420E0,-5.275180206E0,2.762505341E0,9.374592412E0
3.287268750E0,7.667505341E0,-4.552483063E0,2.362237701E0,9.224744286E0
3.297324750E0,7.841293945E0,-4.326453094E0,2.575095062E0,9.318540749E0
3.307380750E0,6.763385468E0,-5.044060822E0,1.857487335E0,8.639224025E0
3.317436750E0,6.065386963E0,-5.339546356E0,1.477876740E0,8.214852035E0
3.327492750E0,9.987979889E0,-6.255791016E0,2.064057770E0,1.196473978E1
3.337549750E0,9.250463562E0,-6.215375061E0,2.213147736E0,1.136221748E1
3.347605750E0,7.513924713E0,-5.688470764E0,1.265618134E0,9.508919680E0
3.357661750E0,6.760541382E0,-6.557713165E0,4.375401306E-1,9.428677696E0
3.367717750E0,6.561156006E0,-6.495592346E0,6.273454285E-1,9.253920809E0
3.377774750E0,6.821315002E0,-6.829847260E0,9.449848938E-1,9.698976668E0
3.387830750E0,6.828649750E0,-8.184979248E0,4.575984192E-1,1.066928953E1
3.397886750E0,5.163213043E0,-6.597081299E0,5.358856201E-1,8.394487715E0
3.407942750E0,5.306764526E0,-6.342311096E0,1.117875366E0,8.344837033E0
3.417998750E0,4.340673523E0,-7.096592560E0,1.956730957E0,8.545868512E0
3.428055750E0,4.405189362E0,-9.988279266E0,1.328337708E0,1.099708584E1
3.438111750E0,5.082680511E0,-9.735904083E0,1.419797516E0,1.107417241E1
3.448167750E0,5.810616760E0,-9.114695892E0,1.582359467E0,1.092450502E1
3.458223750E0,3.077600098E0,-9.383686523E0,8.472381592E-1,9.911761076E0
3.468280750E0,1.338217163E0,-9.278305664E0,2.520758057E-1,9.377703524E0
3.478336750E0,7.750881958E-1,-8.545878754E0,-2.146536255E-1,8.583640344E0
3.488392750E0,3.088677063E0,-6.530020752E0,-4.659809875E-1,7.238662535E0
3.498448750E0,6.531367950E0,-8.308472443E0,5.114863586E-1,1.058069468E1
3.508504750E0,9.663604431E0,-1.059945831E1,3.243604889E0,1.470560233E1
3.518561750E0,9.843380585E0,-1.016506165E1,3.021616516E0,1.446895939E1
3.528617750E0,5.428461456E0,-7.618407440E0,2.530188446E0,9.690726458E0
3.538673750E0,3.225642242E0,-7.041207733E0,-5.783972168E-1,7.766461070E0
3.548729750E0,3.586691437E0,-5.569019165E0,-9.092092896E-1,6.686179137E0
3.558786750E0,4.412673798E0,-5.095404053E0,3.197351074E-1,6.748115518E0
3.568842750E0,4.515060883E0,-5.119503937E0,6.616241455E-1,6.858049420E0
3.578898750E0,3.874093781E0,-5.379662933E0,4.095483398E-1,6.642070892E0
3.588954750E0,3.633094940E0,-5.484594727E0,8.933422852E-1,6.639142911E0
3.599010750E0,4.778962097E0,-6.899452515E0,-4.387376404E-1,8.404368771E0
3.609067750E0,4.623585205E0,-5.824388123E0,3.279829559E0,8.127626904E0
3.619123750E0,3.747606812E0,-7.496111755E0,2.588417358E0,8.771325594E0
3.629179750E0,3.128045197E0,-8.975036316E0,-7.499404907E-2,9.504818132E0
3.639235750E0,3.106190643E0,-8.786578217E0,-5.869294739E-1,9.337926069E0
3.649292750E0,5.035378876E0,-6.130202179E0,1.433269501E0,8.061555721E0
3.659348750E0,8.964857483E0,-4.190386047E0,3.619024200E0,1.053685632E1
3.669404750E0,8.324788513E0,-5.805677032E0,1.714684296E0,1.029311089E1
3.679460750E0,5.107079773E0,-7.436685333E0,-5.477259979E0,1.055400064E1
3.689516750E0,1.536405029E0,-7.468419342E0,-1.155671768E1,1.384541626E1
3.699573750E0,-2.133513336E0,-7.812104645E0,-7.875872040E0,1.129646929E1
3.709629750E0,-1.351240082E0,-1.208452011E1,5.692512360E0,1.342632388E1
3.719685750E0,-2.094145203E-1,-1.534069885E1,1.251277954E1,1.979774097E1
3.729741750E0,9.924362183E-2,-1.574725342E1,8.156538391E0,1.773456958E1
3.739798750E0,-1.080303497E0,-1.753184235E1,2.465522919E0,1.773728714E1
3.749854750E0,-4.158352661E-1,-1.847503098E1,-9.949809265E-1,1.850647658E1
3.759910750E0,2.788251801E0,-1.751926849E1,-1.859882355E0,1.783699187E1
3.769966750E0,5.329666901E0,-1.591011475E1,-6.712042236E-1,1.679248688E1
3.780022750E0,4.445755005E0,-1.245844254E1,1.506766663E0,1.331344710E1
3.790079750E0,2.214944000E0,-9.283544769E0,2.799927521E0,9.946344782E0
3.800135750E0,1.954036560E0,-7.875722351E0,2.494861908E0,8.489381448E0
3.810191750E0,2.780467987E0,-7.987090759E0,1.364562378E0,8.566600931E0
3.820247750E0,2.905607758E0,-9.380393372E0,8.295748901E-1,9.855076395E0
3.830303750E0,2.177521820E0,-9.976753235E0,1.086440735E0,1.026925313E1
3.840360750E0,1.446442108E0,-9.582323456E0,1.826202393E0,9.861446789E0
3.850416750E0,2.205812988E0,-8.865314484E0,1.490151215E0,9.256347145E0
3.860472750E0,3.025358734E0,-8.592881012E0,1.537602539E0,9.238756471E0
3.870528750E0,1.877845001E0,-7.900420990E0,7.548802185E-1,8.155537862E0
3.880585750E0,1.879491577E0,-8.785530396E0,2.352807312E0,9.287288903E0
3.890641750E0,2.720891876E0,-8.307574310E0,2.836900635E0,9.190595668E0
3.900697750E0,2.573747864E0,-8.177345123E0,1.786534882E0,8.756989107E0
3.910753750E0,2.001487885E0,-8.293054504E0,1.685045929E0,8.695981057E0
3.920809750E0,2.475552063E0,-8.838370514E0,1.381477203E0,9.281898007E0
3.930866750E0,1.668280792E0,-9.836345215E0,1.819167023E0,1.014131237E1
3.940922750E0,1.253792725E0,-1.006941055E1,2.111509094E0,1.036453066E1
3.950978750E0,1.552870789E0,-9.830956421E0,2.479443970E0,1.025703438E1
3.961034750E0,1.659149780E0,-9.288484497E0,2.525697784E0,9.767695304E0
3.971091750E0,1.212927704E0,-8.955876160E0,2.029928741E0,9.262803145E0
3.981147750E0,1.398242340E0,-8.217461700E0,1.616039429E0,8.490779815E0
3.991203750E0,2.137854309E0,-5.692362671E0,1.566342773E0,6.279079830E0
4.001259750E0,1.457369385E0,-4.100572815E0,1.195264435E0,4.513012298E0
4.011316750E0,1.800605621E0,-3.020419006E0,1.304836578E0,3.750694612E0
4.021372750E0,1.531465302E0,-3.461851044E0,1.787433014E0,4.186253145E0
4.031428750E0,1.115480347E0,-4.196672974E0,1.387165375E0,4.558573047E0
4.041484750E0,8.482859802E-1,-4.533472595E0,1.554517365E0,4.867081992E0
4.051540750E0,9.565109253E-1,-5.220094757E0,1.682351532E0,5.567280225E0
4.061597750E0,1.538500671E0,-6.485563202E0,1.737287292E0,6.888227747E0
4.071653750E0,1.883233795E0,-7.067103882E0,1.301992493E0,7.428708586E0
4.081709750E0,1.564995575E0,-6.098468170E0,1.022673340E0,6.378588083E0
4.091765750E0,4.601431274E-1,-5.813760223E0,8.786727905E-1,5.897762754E0
4.101822750E0,4.794529724E-1,-6.632407837E0,2.701881409E-1,6.655201762E0
4.111878750E0,-2.426454163E-1,-7.847131805E0,-8.187973022E-1,7.893464600E0
4.121934750E0,-7.839198303E-1,-6.902745667E0,-4.263134766E-1,6.960184711E0
4.131990750E0,-9.452842712E-1,-7.184160461E0,-5.176235962E-1,7.264548030E0
4.142046750E0,-2.166893921E0,-6.555318146E0,3.571572876E-1,6.913406294E0
4.152103750E0,-2.680775299E0,-5.111570435E0,4.367916870E-1,5.788393170E0
4.162159750E0,-4.465364227E0,-4.177512817E0,-2.535726929E-1,6.120080893E0
4.172215750E0,-9.533824310E0,-1.236368958E1,-1.007405090E0,1.564511077E1
4.182271750E0,-5.287304993E0,-1.476364883E1,-1.901046753E-2,1.568187751E1
4.192328750E0,4.158652039E0,-2.240076736E1,3.992647247E0,2.313071545E1
4.202384750E0,-1.497186584E0,-2.282169205E1,6.647975464E0,2.381736285E1
4.212440750E0,2.995570679E0,-2.772639267E1,9.068442078E0,2.932512465E1
4.222496750E0,6.287375336E0,-2.740815445E1,8.822802887E0,2.947167911E1
4.232552750E0,8.097111969E0,-2.162537979E1,3.533102875E0,2.336028872E1
4.242609750E0,5.094505920E0,-1.714729202E1,-6.082301788E0,1.889386168E1
4.252665750E0,5.295986938E-1,-1.554532333E1,-8.922196198E0,1.793162395E1
4.262721750E0,-1.795366516E0,-1.398466873E1,-8.346493378E0,1.638469567E1
4.272777750E0,-1.532363434E0,-1.084674408E1,-6.963968353E0,1.298063365E1
4.282834750E0,-9.264234924E-1,-7.357050934E0,-4.553381195E0,8.701594063E0
4.292890750E0,-6.051914978E-1,-5.945486298E0,-2.239792328E0,6.382141783E0
4.302946750E0,-3.219804382E-1,-6.094426575E0,-5.951623535E-1,6.131877763E0
4.313002750E0,-9.310638428E-2,-6.983128510E0,7.372169495E-1,7.022552343E0
4.323058750E0,2.107617188E-1,-8.103997650E0,1.537452850E0,8.251239888E0
4.333115750E0,-2.219883728E-1,-9.259893951E0,2.550995178E0,9.607418552E0
4.343171750E0,-4.321513367E-1,-9.806557159E0,4.192032623E0,1.067372735E1
4.353227750E0,4.222718811E-1,-8.594976654E0,4.306694183E0,9.622866102E0
4.363283750E0,8.936416626E-2,-9.310937805E0,3.304228821E0,9.880256923E0
4.373340750E0,3.382965088E-2,-9.997260590E0,1.995650024E0,1.019455653E1
4.383396750E0,-3.562591553E-2,-9.964029694E0,1.038540344E0,1.001806982E1
4.393452750E0,-3.299139404E-1,-9.852511597E0,5.563929749E-1,9.873722759E0
4.403508750E0,-9.086105347E-1,-9.998308411E0,2.854563904E-1,1.004356657E1
4.413564750E0,-1.250499573E0,-9.842332764E0,-1.365161133E-1,9.922393867E0
4.423621750E0,-1.489103394E0,-9.860295410E0,-4.035607910E-1,9.980266319E0
4.433677750E0,-1.391955414E0,-9.856104126E0,-3.923341370E-1,9.961639147E0
4.443733750E0,-1.294508057E0,-9.859247589E0,-1.678010559E-1,9.945283874E0
4.453789750E0,-1.311871948E0,-9.918674011E0,2.803669739E-1,1.000898136E1
4.463846750E0,-1.162482605E0,-9.872120819E0,7.696994019E-1,9.970083873E0
4.473902750E0,-8.294252014E-1,-9.684411163E0,1.188528442E0,9.792260495E0
4.483958750E0,-4.575984192E-1,-9.535021820E0,1.468596039E0,9.658302736E0
4.494014750E0,-2.722837830E-1,-9.409732361E0,1.586251373E0,9.546381251E0
4.504070750E0,-2.857557678E-1,-9.312584381E0,1.567390594E0,9.447888520E0
4.514127750E0,-4.992118835E-1,-9.342971191E0,1.517244873E0,9.478520728E0
4.524183750E0,-9.876461792E-1,-9.585915985E0,1.432371368E0,9.742531395E0
4.534239750E0,-1.431772614E0,-9.852810974E0,1.249451752E0,1.003439020E1
4.544295750E0,-1.577569427E0,-9.950707397E0,9.202862549E-1,1.011692788E1
4.554352750E0,-1.566342773E0,-9.915680237E0,5.423222351E-1,1.005327099E1
4.564408750E0,-1.508113861E0,-9.925709381E0,2.535726929E-1,1.004282895E1
4.574464750E0,-1.310824127E0,-9.844877472E0,8.472381592E-2,9.932122153E0
4.584520792E0,-9.879455566E-1,-9.610914001E0,1.019380188E-1,9.662095825E0
4.594576792E0,-6.825805664E-1,-9.298064575E0,2.880010986E-1,9.327532670E0
4.604633792E0,-3.568579102E-1,-9.118138733E0,5.306465149E-1,9.140535392E0
4.614689792E0,-1.682501221E-1,-9.256900177E0,7.119195557E-1,9.285759982E0
4.624745792E0,1.218466187E-1,-9.408385162E0,7.318281555E-1,9.437591346E0
4.634801792E0,3.990701294E-1,-9.456285553E0,5.945635986E-1,9.483359073E0
4.644858792E0,1.932481384E-1,-9.614506531E0,4.611909485E-1,9.627501117E0
4.654914792E0,1.552272034E-1,-9.865684204E0,2.775228882E-1,9.870807427E0
4.664970792E0,3.147953796E-1,-1.013078293E1,2.559677124E-2,1.013570491E1
4.675026792E0,2.278262329E-1,-1.000339783E1,-1.610650635E-1,1.000728809E1
4.685082792E0,2.424957275E-2,-9.662257233E0,-2.893482971E-1,9.666619125E0
4.695139792E0,2.469863892E-2,-9.149423676E0,-6.138734436E-1,9.170027493E0
4.705195792E0,2.562670898E-1,-8.911717987E0,-1.004710693E0,8.971835591E0
4.715251792E0,4.689747620E-1,-8.884324951E0,-1.358125763E0,8.999759594E0
4.725307792E0,6.945556641E-1,-9.065897369E0,-1.304237823E0,9.185528781E0
4.735364792E0,5.556445312E-1,-9.395811310E0,-5.233117676E-1,9.426763295E0
4.745420792E0,1.695075073E0,-8.756790161E0,3.341501312E0,9.524719652E0
4.755476792E0,2.819237366E0,-9.071585541E0,1.195114746E0,9.574448433E0
4.765532792E0,2.369572449E-1,-1.170640640E1,-4.456233215E0,1.252813290E1
4.775588792E0,-1.714085541E0,-1.183723434E1,-2.839295654E0,1.229307960E1
4.785645792E0,1.248403931E-1,-1.084449875E1,-1.720971222E0,1.098091436E1
4.795701792E0,1.071172485E0,-1.051488419E1,-1.110091553E0,1.062744105E1
4.805757792E0,1.210832062E0,-9.924960938E0,-5.839356995E-1,1.001558509E1
4.815813792E0,1.332229614E0,-9.336085510E0,-5.075944519E-1,9.444309426E0
4.825870792E0,1.300345917E0,-9.536668396E0,-4.571493530E-1,9.635763028E0
4.835926792E0,1.071920929E0,-1.008123596E1,-3.231779480E-1,1.014321335E1
4.845982792E0,5.858816528E-1,-1.036579422E1,-3.107537842E-1,1.038698777E1
4.856038792E0,1.857637024E-1,-1.041713745E1,-4.619393921E-1,1.042902914E1
4.866094792E0,1.011895752E-1,-1.034753220E1,-4.930746460E-1,1.035976759E1
4.876151792E0,2.652484131E-1,-1.013153137E1,-4.225712585E-1,1.014380851E1
4.886207792E0,5.108876038E-1,-1.001118164E1,-3.097059631E-1,1.002899206E1
4.896263792E0,6.457571411E-1,-9.910740509E0,-1.113684082E-1,9.932380512E0
4.906319792E0,5.349874878E-1,-9.826465759E0,1.646575928E-2,9.841032062E0
4.916375792E0,3.650907898E-1,-9.769584045E0,-1.916015625E-2,9.776422189E0
4.926432792E0,2.167492676E-1,-9.718540192E0,-1.254391479E-1,9.721766233E0
4.936488792E0,1.363664246E-1,-9.694290619E0,-2.246827698E-1,9.697852791E0
4.946544792E0,1.694476318E-1,-9.624385986E0,-3.472778320E-1,9.632139949E0
4.956600792E0,2.094145203E-1,-9.645192719E0,-4.122427368E-1,9.656269523E0
4.966657792E0,2.808160400E-1,-9.742640076E0,-3.815565491E-1,9.754151869E0
4.976713792E0,3.603007507E-1,-9.808503113E0,-2.258802795E-1,9.817717242E0
4.986769792E0,3.857478333E-1,-9.911189575E0,2.993774414E-3,9.918693924E0
4.996825792E0,3.746708679E-1,-9.981393585E0,1.884580994E-1,9.990200830E0
5.006881792E0,3.073109436E-1,-1.001657043E1,2.128573608E-1,1.002354386E1
5.016938792E0,2.489323425E-1,-9.992021484E0,1.294807434E-1,9.995960480E0
5.026994792E0,1.583706665E-1,-9.884844360E0,6.586303711E-3,9.886115146E0
5.037050792E0,1.161584473E-1,-9.738299103E0,-1.017883301E-1,9.739523760E0
5.047106792E0,1.249900818E-1,-9.599088593E0,-1.495390320E-1,9.601066933E0
5.057163792E0,2.044747925E-1,-9.489815826E0,-9.400451660E-2,9.492483933E0
5.067219792E0,2.796185303E-1,-9.457932129E0,-1.571731567E-2,9.462077664E0
5.077275792E0,3.007246399E-1,-9.520052948E0,6.331832886E-2,9.525011950E0
5.087331792E0,3.341052246E-1,-9.629026337E0,1.495390320E-1,9.635981342E0
5.097387792E0,3.450325012E-1,-9.734856262E0,2.318678284E-1,9.743728063E0
5.107444792E0,3.481759644E-1,-9.842183075E0,2.856060791E-1,9.852480145E0
5.117500792E0,3.513194275E-1,-9.906549225E0,3.079096985E-1,9.917557727E0
5.127556792E0,3.350033569E-1,-9.933942261E0,2.761756897E-1,9.943425421E0
5.137612792E0,3.585044861E-1,-9.915530548E0,2.050735474E-1,9.924128510E0
5.147669792E0,3.974235535E-1,-9.878108368E0,8.113128662E-2,9.886432759E0
5.157725792E0,4.415817261E-1,-9.831555176E0,-1.481918335E-2,9.841478101E0
5.167781792E0,5.035528564E-1,-9.749525757E0,-9.699829102E-2,9.763002951E0
5.177837792E0,5.269042969E-1,-9.674382019E0,-1.257385254E-1,9.689535890E0
5.187893792E0,5.517526245E-1,-9.644294586E0,-1.061293030E-1,9.660647621E0
5.197950792E0,5.174739075E-1,-9.660760345E0,-5.014572144E-2,9.674739495E0
5.208006792E0,4.842430115E-1,-9.706415405E0,3.173400879E-2,9.718538901E0
5.218062792E0,4.337979126E-1,-9.756561127E0,1.068777466E-1,9.766784962E0
5.228118792E0,4.119433594E-1,-9.806706848E0,1.426533508E-1,9.816391726E0
5.238175792E0,3.908372498E-1,-9.852361908E0,1.818717957E-1,9.861788188E0
5.248231792E0,3.817062378E-1,-9.833052063E0,1.983375549E-1,9.842456518E0
5.258287792E0,3.722758484E-1,-9.787397003E0,1.968406677E-1,9.796452197E0
5.268343792E0,3.836521912E-1,-9.769584045E0,1.835183716E-1,9.778836353E0
5.278399792E0,3.995191956E-1,-9.775870972E0,1.477427673E-1,9.785146742E0
5.288456792E0,3.864962769E-1,-9.750573578E0,1.203497314E-1,9.758972719E0
5.298512792E0,3.558100891E-1,-9.760003967E0,1.058299255E-1,9.767060880E0
5.308568792E0,3.665876770E-1,-9.795031128E0,1.047821045E-1,9.802448705E0
5.318624792E0,3.992198181E-1,-9.809550934E0,9.849517822E-2,9.818165169E0
5.328681792E0,3.731739807E-1,-9.823771362E0,9.774673462E-2,9.831342585E0
5.338737792E0,3.646417236E-1,-9.819131012E0,1.053808594E-1,9.826464397E0
5.348793792E0,3.420387268E-1,-9.794132996E0,1.528321838E-1,9.801295287E0
5.358849792E0,3.463796997E-1,-9.777367859E0,1.683998108E-1,9.784950671E0
5.368905792E0,3.716770935E-1,-9.766440582E0,1.898052979E-1,9.775353270E0
5.378962792E0,4.082011414E-1,-9.760752411E0,2.207908630E-1,9.771778978E0
5.389018792E0,4.370910645E-1,-9.745184784E0,2.037263489E-1,9.757109177E0
5.399074792E0,4.742138672E-1,-9.711055756E0,1.781295776E-1,9.724258986E0
5.409130792E0,4.852908325E-1,-9.701924744E0,1.293310547E-1,9.714915205E0
5.419187792E0,5.206173706E-1,-9.724827118E0,1.071771240E-1,9.739342476E0
5.429243792E0,5.114863586E-1,-9.785151672E0,1.312770081E-1,9.799390042E0
5.439299792E0,4.941224670E-1,-9.824819183E0,1.546284485E-1,9.838452061E0
5.449355792E0,4.897814941E-1,-9.821526031E0,1.748364258E-1,9.835284809E0
5.459411792E0,4.869374084E-1,-9.816436615E0,1.895059204E-1,9.830333074E0
5.469468792E0,4.920268250E-1,-9.790989532E0,1.794767761E-1,9.804987421E0
5.479524792E0,5.153782654E-1,-9.758207703E0,1.818717957E-1,9.773500380E0
5.489580792E0,5.445675659E-1,-9.753417664E0,1.610650635E-1,9.769936126E0
5.499636792E0,5.408253479E-1,-9.772727509E0,1.266366577E-1,9.788499980E0
5.509692792E0,5.170248413E-1,-9.765243073E0,9.445358276E-2,9.779376689E0
5.519749792E0,4.752616882E-1,-9.747130737E0,8.637039185E-2,9.759092741E0
5.529805792E0,4.499642944E-1,-9.733059998E0,3.847000122E-2,9.743531430E0
5.539861792E0,4.565505981E-1,-9.719588013E0,2.035766602E-2,9.730325998E0
5.549917792E0,4.617897034E-1,-9.704918518E0,2.993774414E-4,9.715898994E0
5.559974792E0,4.746629333E-1,-9.710457001E0,-1.945953369E-2,9.722070702E0
5.570030792E0,4.680766296E-1,-9.741442566E0,-7.634124756E-3,9.752684619E0
5.580087417E0,4.815486145E-1,-9.769883423E0,-7.484436035E-3,9.781746632E0
5.590143417E0,4.784051514E-1,-9.788295135E0,-1.826202393E-2,9.799996258E0
5.600199417E0,4.453239441E-1,-9.807305603E0,-4.520599365E-2,9.817514970E0
5.610256417E0,4.305047607E-1,-9.826914825E0,-6.750961304E-2,9.836571907E0
5.620312417E0,4.179309082E-1,-9.851014709E0,-6.122268677E-2,9.860066190E0
5.630368417E0,3.876937866E-1,-9.852062531E0,-4.625381470E-2,9.859796245E0
5.640424417E0,3.405418396E-1,-9.791588287E0,-2.559677124E-2,9.797541790E0
5.650481417E0,2.615061951E-1,-9.767039337E0,-2.245330811E-3,9.770539798E0
5.660537417E0,2.396516418E-1,-9.764794006E0,2.290237427E-2,9.767761228E0
5.670593417E0,1.901046753E-1,-9.731563110E0,5.957611084E-2,9.733602091E0
5.680649417E0,9.220825195E-2,-9.658664703E0,1.061293030E-1,9.659687865E0
5.690705417E0,4.176315308E-2,-9.606872406E0,1.225950623E-1,9.607745372E0
5.700762417E0,-6.586303711E-3,-9.651180267E0,1.435514832E-1,9.652250047E0
5.710818417E0,-2.275268555E-2,-9.748927002E0,1.558259583E-1,9.750198824E0
5.720874417E0,-8.607101440E-2,-9.826465759E0,1.541793823E-1,9.828052138E0
5.730930417E0,-1.746867371E-1,-9.879605255E0,1.342707825E-1,9.882061733E0
5.740987417E0,-1.974394226E-1,-9.889035645E0,8.262817383E-2,9.891351562E0
5.751043417E0,-1.606159973E-1,-9.858648834E0,2.649490356E-2,9.859992714E0
5.761099417E0,-5.912704468E-2,-9.822424164E0,-4.071533203E-2,9.822686506E0
5.771155417E0,7.364685059E-2,-9.844428406E0,-5.748046875E-2,9.844871685E0
5.781211417E0,1.672023010E-1,-9.870773621E0,-4.984634399E-2,9.872315490E0
5.791268417E0,2.412982178E-1,-9.904453583E0,-2.155517578E-2,9.907415921E0
5.801324417E0,3.553610229E-1,-9.939181366E0,-4.999603271E-2,9.945657710E0
5.811380417E0,4.718188477E-1,-9.975406036E0,-5.628295898E-2,9.986716497E0
5.821436417E0,5.831872559E-1,-9.992919617E0,-5.478607178E-2,1.001007249E1
5.831492417E0,6.779402161E-1,-9.974058838E0,-9.145980835E-2,9.997490562E0
5.841549417E0,6.792874146E-1,-9.976902924E0,-1.002914429E-1,1.000050407E1
5.851605417E0,6.776408386E-1,-9.963580627E0,-1.145118713E-1,9.987254327E0
5.861661417E0,6.051914978E-1,-9.953850861E0,-9.669891357E-2,9.972700456E0
5.871717417E0,5.412744141E-1,-9.987830200E0,-1.453477478E-1,1.000354218E1
5.881774417E0,5.414241028E-1,-1.002390518E1,-1.077758789E-1,1.003909512E1
5.891830417E0,4.334985352E-1,-1.000249969E1,-6.271957397E-2,1.001208544E1
5.901886417E0,2.556683350E-1,-9.957293701E0,-1.312770081E-1,9.961440549E0
5.911942417E0,1.835183716E-1,-9.867779846E0,-2.176473999E-1,9.871885761E0
5.921998417E0,3.906875610E-2,-9.739496613E0,-2.377056885E-1,9.742475282E0
5.932055417E0,-5.837860107E-2,-9.647587738E0,-2.335144043E-1,9.650589941E0
5.942111417E0,-8.487350464E-2,-9.582024078E0,-2.423460388E-1,9.585464024E0
5.952167417E0,-1.826202393E-2,-9.565558319E0,-1.929487610E-1,9.567521554E0
5.962223417E0,1.287322998E-2,-9.589209137E0,-7.364685059E-2,9.589500584E0
5.972280417E0,-2.424957275E-2,-9.600136414E0,9.804611206E-2,9.600667698E0
5.982336417E0,-1.008901978E-1,-9.648785248E0,2.498304749E-1,9.652546341E0
5.992392417E0,-1.784289551E-1,-9.721833344E0,3.311114502E-1,9.729106600E0
6.002448417E0,-1.981878662E-1,-9.801018677E0,3.766168213E-1,9.810254113E0
6.012504417E0,-1.721420288E-1,-9.880204010E0,3.809577942E-1,9.889044089E0
6.022561417E0,-1.203497314E-1,-9.890233154E0,3.778143311E-1,9.898178599E0
6.032617417E0,1.167572021E-2,-9.863139496E0,3.867956543E-1,9.870727831E0
6.042673417E0,1.076261902E-1,-9.818532257E0,4.215234375E-1,9.828165703E0
6.052729417E0,1.860630798E-1,-9.796078949E0,4.924758911E-1,9.810214817E0
6.062786417E0,2.300715637E-1,-9.769883423E0,5.983058167E-1,9.790889892E0
6.072842417E0,2.552192688E-1,-9.735005951E0,7.066804504E-1,9.763957958E0
6.082898417E0,3.255729675E-1,-9.721683655E0,7.779322815E-1,9.758191916E0
6.092954417E0,3.646417236E-1,-9.781559143E0,7.866142273E-1,9.819909613E0
6.103010417E0,3.279679871E-1,-9.877509613E0,6.857240295E-1,9.906713713E0
6.113067417E0,3.179388428E-1,-9.934840393E0,5.459147644E-1,9.954906412E0
6.123123417E0,3.519181824E-1,-9.930948486E0,4.288581848E-1,9.946431701E0
6.133179417E0,4.498146057E-1,-9.929152222E0,2.866539001E-1,9.943468584E0
6.143235417E0,6.101312256E-1,-9.945168915E0,1.411564636E-1,9.964866783E0
6.153291417E0,7.430548096E-1,-9.962532806E0,-8.981323242E-3,9.990208758E0
6.163348417E0,8.544232178E-1,-9.996512146E0,-6.721023560E-2,1.003318550E1
6.173404417E0,8.825646973E-1,-9.945019226E0,3.697311401E-2,9.984172217E0
6.183460417E0,7.454498291E-1,-9.907746735E0,1.610650635E-1,9.937056041E0
6.193516417E0,6.066883850E-1,-9.932894440E0,3.439846802E-1,9.957348453E0
6.203573417E0,3.896397400E-1,-1.001073257E1,6.004014587E-1,1.003628755E1
6.213629417E0,-3.442840576E-3,-1.020338196E1,8.280780029E-1,1.023692964E1
6.223685417E0,-4.694238281E-1,-1.035741165E1,9.313632202E-1,1.040979214E1
6.233741417E0,-9.616003418E-1,-1.037717056E1,8.729846191E-1,1.045812824E1
6.243797417E0,-1.433269501E0,-1.027942383E1,6.858737183E-1,1.040150174E1
6.253854417E0,-1.722617798E0,-1.018601807E1,5.017565918E-1,1.034283016E1
6.263910417E0,-1.713037720E0,-1.014096176E1,4.324507141E-1,1.029371737E1
6.273966417E0,-1.576970673E0,-1.013198044E1,4.373904419E-1,1.026329258E1
6.284022417E0,-1.451681213E0,-1.020712418E1,5.001100159E-1,1.032196068E1
6.294079417E0,-1.363215179E0,-1.034259247E1,6.679110718E-1,1.045340518E1
6.304135417E0,-1.404379578E0,-1.048719177E1,7.879614258E-1,1.061010634E1
6.314191417E0,-1.735790405E0,-1.052760773E1,7.918533325E-1,1.069908989E1
6.324247417E0,-2.283800812E0,-1.061981598E1,5.824388123E-1,1.087821091E1
6.334303417E0,-2.746488647E0,-1.072340057E1,2.514770508E-1,1.107238730E1
6.344360417E0,-3.060535583E0,-1.074660233E1,-4.670288086E-2,1.117401095E1
6.354416417E0,-3.521876221E0,-1.074495575E1,-6.062393188E-1,1.132365720E1
6.364472417E0,-4.002826080E0,-1.085647385E1,-1.262324982E0,1.163954919E1
6.374528417E0,-4.514162750E0,-1.115195938E1,-2.344275055E0,1.225722191E1
6.384584417E0,-4.808750153E0,-1.137319931E1,-3.503913574E0,1.283554249E1
6.394641417E0,-4.451143799E0,-1.147648453E1,-4.841531982E0,1.322735084E1
6.404697417E0,-3.701951752E0,-1.138472534E1,-6.196364594E0,1.348003531E1
6.414753417E0,-2.524500275E0,-1.114672028E1,-7.138206024E0,1.347503098E1
6.424809417E0,-4.481680298E-1,-1.103116058E1,-7.465126190E0,1.332724531E1
6.434866417E0,1.405577087E0,-1.095736404E1,-6.926995239E0,1.303927670E1
6.444922417E0,2.865191803E0,-1.070648575E1,-5.989045715E0,1.259788989E1
6.454978417E0,3.865112457E0,-1.057311310E1,-4.926704865E0,1.228829670E1
6.465034417E0,4.201912079E0,-1.010743149E1,-4.068389740E0,1.167767235E1
6.475090417E0,3.801195374E0,-9.272767181E0,-3.398832092E0,1.058231341E1
6.485147417E0,2.687211914E0,-8.354726257E0,-3.087479553E0,9.303498734E0
6.495203417E0,1.150208130E0,-7.411986694E0,-2.930605774E0,8.052886172E0
6.505259417E0,-4.215234375E-1,-6.765032043E0,-2.697690125E0,7.295263708E0
6.515315417E0,-1.869612122E0,-6.242169342E0,-2.527344360E0,6.989105601E0
6.525372417E0,-2.353406067E0,-5.851781158E0,-2.506088562E0,6.786924393E0
6.535428417E0,-2.417772217E0,-5.732179871E0,-2.620301056E0,6.750517475E0
6.545484417E0,-2.088906097E0,-5.792504425E0,-2.883603516E0,6.799397432E0
6.555540417E0,-1.885778503E0,-6.094576263E0,-3.121458893E0,7.102360594E0
6.565596417E0,-1.877695312E0,-6.425687714E0,-3.642375641E0,7.621161499E0
6.575653417E0,-1.860331421E0,-6.636000366E0,-4.109853516E0,8.024227675E0
6.585708667E0,-1.684746552E0,-6.786886597E0,-4.126468964E0,8.119602621E0
6.595764667E0,-1.210832062E0,-7.020550690E0,-3.695664825E0,8.025720203E0
6.605820667E0,-5.295986938E-1,-7.179969177E0,-3.190465393E0,7.874738192E0
6.615876667E0,1.315763855E-1,-7.265291748E0,-2.806513824E0,7.789627486E0
6.625933667E0,6.987469482E-1,-7.394323425E0,-2.680026855E0,7.895999630E0
6.635989667E0,1.225800934E0,-7.507637787E0,-2.727777557E0,8.081335500E0
6.646045667E0,1.469344482E0,-7.548652496E0,-2.859653320E0,8.204800109E0
6.656101667E0,1.600621490E0,-7.643106079E0,-3.104244690E0,8.403296662E0
6.666158667E0,1.621278534E0,-7.725883942E0,-3.470233612E0,8.623244638E0
6.676214667E0,1.517244873E0,-7.772886200E0,-3.798650665E0,8.783481016E0
6.686270667E0,1.288071442E0,-7.883057098E0,-4.050726471E0,8.956009279E0
6.696326667E0,8.988807678E-1,-8.027656403E0,-4.326453094E0,9.163484617E0
6.706382667E0,5.881269836E-1,-8.132438507E0,-4.739593964E0,9.431129326E0
6.716439667E0,3.617976379E-1,-8.277337189E0,-5.098248138E0,9.728172621E0
6.726495667E0,7.214996338E-2,-8.362360382E0,-5.422024841E0,9.966575648E0
6.736551667E0,-2.463876343E-1,-8.493787079E0,-5.286107483E0,1.000740017E1
6.746607667E0,-3.860472107E-1,-8.515491943E0,-4.725074158E0,9.746228054E0
6.756663667E0,-4.652325439E-1,-8.364156647E0,-3.928730164E0,9.252593065E0
6.766720667E0,-4.138893127E-1,-8.408614197E0,-3.138673096E0,8.984840893E0
6.776776667E0,-1.580712891E-1,-8.502918091E0,-2.614463196E0,8.897191714E0
6.786832667E0,1.859133911E-1,-8.743467865E0,-2.524649963E0,9.102562910E0
6.796888667E0,6.514453125E-1,-9.139693909E0,-2.798280945E0,9.580645176E0
6.806945667E0,1.066083069E0,-9.473200378E0,-3.113675079E0,1.002861062E1
6.817001667E0,1.296304321E0,-9.701625366E0,-3.275488586E0,1.032137419E1
6.827057667E0,1.207688599E0,-9.806706848E0,-3.581452332E0,1.050984356E1
6.837113667E0,7.632627869E-1,-9.748028870E0,-3.965852966E0,1.055152248E1
6.847169667E0,1.010398865E-1,-9.629026337E0,-4.277504883E0,1.053685936E1
6.857226667E0,-8.921447754E-1,-9.466015320E0,-4.631818085E0,1.057615748E1
6.867282667E0,-2.100581818E0,-9.358538818E0,-4.759502563E0,1.070735997E1
6.877338667E0,-3.268752594E0,-9.322613525E0,-4.582869873E0,1.089029672E1
6.887394667E0,-4.020040283E0,-9.559570770E0,-4.529580688E0,1.131650204E1
6.897451667E0,-4.468507690E0,-9.890981598E0,-4.670138397E0,1.181563670E1
6.907507667E0,-4.657115479E0,-1.012090347E1,-4.787344666E0,1.212600844E1
6.917563667E0,-4.007915497E0,-1.010428802E1,-4.679419098E0,1.183456743E1
6.927619667E0,-3.462449799E0,-9.882599030E0,-4.518054657E0,1.140469816E1
6.937675667E0,-3.160827026E0,-1.016805542E1,-4.825515289E0,1.169041386E1
6.947732667E0,-2.569706268E0,-1.127994324E1,-5.149142303E0,1.266310295E1
6.957788667E0,-1.478924561E0,-1.269255569E1,-4.992717590E0,1.371916240E1
6.967844667E0,-8.358618164E-1,-1.357482101E1,-4.907544708E0,1.445885285E1
6.977900667E0,-7.767347717E-1,-1.362002701E1,-4.840933228E0,1.447560317E1
6.987956667E0,-7.929011536E-1,-1.250185226E1,-4.120631104E0,1.318728945E1
6.998013667E0,-8.107141113E-1,-1.051772827E1,-2.793640594E0,1.091257500E1
7.008069667E0,-8.316705322E-1,-8.144114227E0,-1.745370483E0,8.370459399E0
7.018125667E0,-6.601272583E-1,-6.159541168E0,-1.195863190E0,6.309184113E0
7.028181667E0,-3.158432007E-1,-5.492827606E0,-8.574169922E-1,5.568309971E0
7.038238667E0,6.496490479E-1,-6.274053040E0,-6.249504089E-1,6.338481557E0
7.048294667E0,1.917512512E0,-7.163802795E0,-1.688488770E-1,7.417913094E0
7.058350667E0,3.023263092E0,-7.982899475E0,4.062551880E-1,8.545867249E0
7.068406667E0,3.603606262E0,-8.870254211E0,6.174659729E-1,9.594198877E0
7.078462667E0,3.633693695E0,-9.833800507E0,3.613485718E-1,1.048989681E1
7.088519667E0,3.196752319E0,-1.070753357E1,-2.600093079E-1,1.117757153E1
7.098575667E0,2.774929504E0,-1.124222168E1,-6.146218872E-1,1.159592782E1
7.108631667E0,2.490820312E0,-1.130179779E1,-4.110452271E-1,1.158031853E1
7.118687667E0,2.763403473E0,-1.060559555E1,1.631607056E-2,1.095971359E1
7.128744667E0,2.736459503E0,-1.006491989E1,-1.122665405E-2,1.043028998E1
7.138800667E0,2.707120514E0,-9.983788605E0,-5.522016907E-1,1.035902810E1
7.148856667E0,2.967878265E0,-9.927206268E0,-1.233584747E0,1.043453195E1
7.158912667E0,2.801424408E0,-9.993518372E0,-1.937271423E0,1.055800212E1
7.168968667E0,2.355052643E0,-1.010114456E1,-2.071242828E0,1.057683513E1
7.179025667E0,1.937271423E0,-1.018961060E1,-1.537153473E0,1.048541966E1
7.189081667E0,1.657353516E0,-1.016625916E1,-7.794291687E-1,1.032991557E1
7.199137667E0,1.338067474E0,-1.008303223E1,-2.727328491E-1,1.017508460E1
7.209193667E0,1.114731903E0,-9.826316071E0,-2.504292297E-1,9.892513813E0
7.219249667E0,7.396119690E-1,-9.596094818E0,-6.527925110E-1,9.646667802E0
7.229306667E0,3.107537842E-1,-9.344019012E0,-1.117875366E0,9.415779551E0
7.239362667E0,2.249821472E-1,-9.087901611E0,-1.264270935E0,9.178178123E0
7.249418667E0,4.427792358E-1,-8.960815887E0,-1.219663696E0,9.054272713E0
7.259474667E0,6.087840271E-1,-8.965456238E0,-1.708247681E0,9.147028681E0
7.269531667E0,1.131946106E0,-8.978628845E0,-1.954036560E0,9.258257763E0
7.279587667E0,1.816173248E0,-9.059161377E0,-1.755399628E0,9.404696591E0
7.289643667E0,2.308948517E0,-9.224866791E0,-1.419947205E0,9.614866646E0
7.299699667E0,2.506537628E0,-9.381590881E0,-1.087488556E0,9.771366829E0
7.309755667E0,2.417921906E0,-9.473649445E0,-8.940907288E-1,9.818135178E0
7.319812667E0,2.037263489E0,-9.518705750E0,-7.937992859E-1,9.766591984E0
7.329868667E0,1.682052155E0,-9.528585205E0,-8.143066406E-1,9.710114869E0
7.339924667E0,1.386566620E0,-9.593250732E0,-1.137783966E0,9.759486614E0
7.349980667E0,1.115630035E0,-9.640702057E0,-1.504521332E0,9.820964869E0
7.360036667E0,8.226892090E-1,-9.706864471E0,-1.766775970E0,9.900582444E0
7.370093667E0,6.066883850E-1,-9.683962097E0,-1.924098816E0,9.891882983E0
7.380149667E0,3.722758484E-1,-9.676477661E0,-2.041454773E0,9.896481538E0
7.390205667E0,9.939331055E-2,-9.613458710E0,-2.105371857E0,9.841801565E0
7.400261667E0,-1.670526123E-1,-9.619895325E0,-2.035467224E0,9.834298117E0
7.410318667E0,-2.890489197E-1,-9.773176575E0,-1.973496094E0,9.974628638E0
7.420374667E0,-2.233355713E-1,-9.912387085E0,-1.861828308E0,1.008819613E1
7.430430667E0,-9.550140381E-2,-9.990075531E0,-1.838776245E0,1.015833784E1
7.440486667E0,1.306782532E-1,-1.016251694E1,-1.959724731E0,1.035057237E1
7.450542667E0,4.561015320E-1,-1.032418076E1,-1.953138428E0,1.051719956E1
7.460599667E0,7.685018921E-1,-1.030277527E1,-1.666634216E0,1.046496264E1
7.470655667E0,1.197509766E0,-1.029184799E1,-1.268911285E0,1.043869247E1
7.480711667E0,1.644031219E0,-1.036534515E1,-9.128018188E-1,1.053453492E1
7.490767667E0,1.947300568E0,-1.060005707E1,-7.110214233E-1,1.080086760E1
7.500823667E0,2.060614929E0,-1.082997894E1,-6.373745728E-1,1.104268193E1
7.510880667E0,1.999392242E0,-1.094583801E1,-5.948629761E-1,1.114283631E1
7.520936667E0,1.802551575E0,-1.102696930E1,-5.266049194E-1,1.118573005E1
7.530992667E0,1.492396545E0,-1.122500748E1,-4.352947998E-1,1.133214551E1
7.541048667E0,9.421408081E-1,-1.152917496E1,-5.167254639E-1,1.157914115E1
7.551105667E0,3.077600098E-1,-1.197839081E1,-1.084494781E0,1.203132127E1
7.561161667E0,-2.724334717E-2,-1.208062820E1,-1.606309662E0,1.218698284E1
7.571217667E0,-2.909948730E-1,-1.191088120E1,-1.928439789E0,1.206949249E1
7.581273875E0,-6.890171814E-1,-1.174727142E1,-2.531835022E0,1.203674870E1
7.591329875E0,-1.081800385E0,-1.130539032E1,-2.965932312E0,1.173792558E1
7.601386875E0,-1.992356873E0,-1.090437424E1,-3.342698822E0,1.157793154E1
7.611442875E0,-3.086431732E0,-1.109298203E1,-3.965403900E0,1.217804332E1
7.621498875E0,-3.552263031E0,-1.156764496E1,-4.271217957E0,1.283246996E1
7.631554875E0,-3.760330353E0,-1.228585144E1,-3.590433655E0,1.334066879E1
7.641610875E0,-3.881428528E0,-1.244077927E1,-1.527423706E0,1.312141377E1
7.651667875E0,-2.572849731E0,-1.207164688E1,9.698332214E-1,1.238082350E1
7.661723875E0,-1.663939819E0,-1.166614014E1,2.952011261E0,1.214832877E1
7.671779875E0,-1.610650635E-1,-1.109163483E1,3.851939850E0,1.174256129E1
7.681835875E0,9.780661011E-1,-1.055065979E1,2.722388763E0,1.094003820E1
7.691892875E0,2.311792603E0,-1.063268921E1,1.651066589E0,1.100565699E1
7.701948875E0,3.396886139E0,-1.063343765E1,9.196875000E-1,1.120065430E1
7.712004875E0,3.755989380E0,-1.060379929E1,-8.497828674E-1,1.128140711E1
7.722060875E0,3.713926849E0,-1.018781433E1,-2.365830231E0,1.109873714E1
7.732116875E0,3.300336914E0,-9.626182251E0,-2.979853363E0,1.060354349E1
7.742173875E0,3.035088501E0,-9.686207428E0,-3.661535797E0,1.079079334E1
7.752229875E0,2.295925598E0,-9.607171783E0,-3.913012848E0,1.062453263E1
7.762285875E0,1.104702759E0,-9.332942047E0,-3.201841736E0,9.928542992E0
7.772341875E0,1.422042847E-1,-8.898695068E0,-1.864822083E0,9.093104936E0
7.782397875E0,-1.959425354E-1,-8.323141937E0,-5.565426636E-1,8.344029298E0
7.792454875E0,-2.877017212E-1,-7.563022614E0,3.183879089E-1,7.575186743E0
7.802510875E0,-5.231620789E-1,-6.827751617E0,5.840853882E-1,6.872630243E0
7.812566875E0,-5.400769043E-1,-6.369704132E0,5.348377991E-1,6.414894018E0
7.822622875E0,-5.492079163E-1,-6.137686615E0,1.493893433E-1,6.164020076E0
7.832679875E0,-4.962181091E-1,-6.036197662E0,-4.599934387E-1,6.074002683E0
7.842735875E0,-5.312452698E-1,-6.014193420E0,-1.139280853E0,6.144160227E0
7.852791875E0,-4.805007935E-1,-6.041137390E0,-1.859582977E0,6.339106469E0
7.862847875E0,-2.891986084E-1,-6.242917786E0,-2.668800201E0,6.795598048E0
7.872903875E0,-1.929487610E-1,-6.559808807E0,-3.243754578E0,7.320537178E0
7.882960875E0,-9.610015869E-2,-7.030579834E0,-3.676953735E0,7.934625184E0
7.893016875E0,-2.613565063E-1,-7.481741638E0,-4.014352112E0,8.494691757E0
7.903072875E0,-3.299139404E-1,-7.870183868E0,-4.571493530E0,9.107534816E0
7.913128875E0,-1.448986816E-1,-8.222700806E0,-5.195396118E0,9.727586802E0
7.923184875E0,1.068777466E-1,-8.588540039E0,-5.617518311E0,1.026308700E1
7.933241875E0,9.624984741E-2,-8.984317017E0,-5.623206482E0,1.059941826E1
7.943297875E0,3.077600098E-1,-9.449250183E0,-5.667214966E0,1.102272066E1
7.953353875E0,1.255289612E0,-1.011416748E1,-5.828729095E0,1.174079293E1
7.963409875E0,1.730700989E0,-1.095287338E1,-6.017935638E0,1.261650945E1
7.973466875E0,1.393452301E0,-1.139071289E1,-5.956114197E0,1.292924382E1
7.983522875E0,5.658233643E-1,-1.110480743E1,-5.493126984E0,1.240207032E1
7.993578875E0,-5.933660889E-1,-1.074375824E1,-4.709207153E0,1.174551218E1
8.003634875E0,-1.941911774E0,-1.161539566E1,-4.547693024E0,1.262418114E1
8.013690875E0,-3.201093292E0,-1.376193192E1,-4.640500031E0,1.487185291E1
8.023747875E0,-3.341501312E0,-1.522513916E1,-2.849175110E0,1.584576575E1
8.033803875E0,-1.758094025E0,-1.409184586E1,-1.187181244E0,1.425062853E1
8.043859875E0,8.831634521E-2,-1.141825562E1,-6.322851562E-1,1.143608961E1
8.053915875E0,9.496252441E-1,-9.370962982E0,4.784051514E-1,9.431097858E0
8.063971875E0,1.307980042E0,-7.831264801E0,1.566193085E0,8.092742486E0
8.074028875E0,1.643731842E0,-6.715934143E0,2.238145752E0,7.267387577E0
8.084084875E0,2.354304199E0,-6.143075409E0,3.016826477E0,7.237497201E0
8.094140875E0,3.171754303E0,-6.270011444E0,3.936214600E0,8.053996166E0
8.104196875E0,3.480113068E0,-7.162455597E0,3.966751099E0,8.896463984E0
8.114253875E0,3.402873688E0,-8.553961945E0,3.149600372E0,9.729840533E0
8.124309875E0,4.107458496E0,-1.033181488E1,2.803969116E0,1.146646662E1
8.134365875E0,4.743036804E0,-1.212089447E1,2.453547821E0,1.324508882E1
8.144421875E0,3.425626373E0,-1.321541840E1,1.989961853E0,1.379645417E1
8.154477875E0,1.097218323E-1,-1.265812729E1,9.366023254E-1,1.269320485E1
8.164534875E0,-1.764979706E0,-1.130494125E1,-1.095571747E0,1.149422149E1
8.174590875E0,-2.616259460E0,-1.044453049E1,-3.390898590E0,1.128854392E1
8.184646875E0,-3.627406769E0,-1.003333557E1,-4.902006226E0,1.174119106E1
8.194702875E0,-4.262386322E0,-9.579479370E0,-4.963228912E0,1.160034497E1
8.204758875E0,-4.126169586E0,-9.367370453E0,-4.590653687E0,1.121815519E1
8.214815875E0,-2.856958923E0,-9.000932465E0,-3.511248322E0,1.007511113E1
8.224871875E0,-1.605561218E0,-8.759484558E0,-1.989363098E0,9.124908881E0
8.234927875E0,-6.303392029E-1,-8.974886627E0,-9.045689392E-1,9.042353811E0
8.244983875E0,3.252735901E-1,-8.992250519E0,-3.414399719E-1,9.004607352E0
8.255040875E0,1.408421173E0,-8.394244080E0,4.556524658E-1,8.523766951E0
8.265096875E0,2.519710236E0,-8.132588196E0,6.322851562E-1,8.537430231E0
8.275152875E0,3.516487427E0,-8.213719482E0,5.400769043E-1,8.951120300E0
8.285208875E0,4.095932465E0,-8.405770111E0,6.707551575E-1,9.374622467E0
8.295264875E0,3.695964203E0,-8.317902832E0,4.583468628E-1,9.113601964E0
8.305321875E0,2.643802185E0,-8.324938202E0,-5.306465149E-1,8.750764069E0
8.315377875E0,1.904938660E0,-8.846753082E0,-1.725761261E0,9.212604590E0
8.325433875E0,1.170715485E0,-9.527537384E0,-2.544408875E0,9.930687784E0
8.335489875E0,2.179467773E-1,-9.977501678E0,-2.855611725E0,1.038039300E1
8.345545875E0,-7.197033691E-1,-1.018077896E1,-2.806364136E0,1.058498526E1
8.355602875E0,-1.186881866E0,-1.018916153E1,-2.391277313E0,1.053308637E1
8.365658875E0,-1.337468719E0,-1.000085312E1,-1.700763245E0,1.023222758E1
8.375714875E0,-1.394799500E0,-9.861343231E0,-1.319805450E0,1.004656371E1
8.385770875E0,-1.345701599E0,-9.668993225E0,-1.126856689E0,9.827011182E0
8.395827875E0,-1.189426575E0,-9.364376678E0,-6.584806824E-1,9.462551609E0
8.405883875E0,-9.318122864E-1,-9.172176361E0,-1.914518738E-1,9.221374472E0
8.415939875E0,-5.715115356E-1,-9.141190796E0,-7.783813477E-3,9.159042264E0
8.425995875E0,-2.888992310E-1,-9.156459045E0,1.278341675E-1,9.161907366E0
8.436051875E0,1.047821045E-3,-9.330547028E0,2.076182556E-1,9.332856705E0
8.446108875E0,3.400927734E-1,-9.627230072E0,2.441423035E-1,9.636328524E0
8.456164875E0,5.164260864E-1,-9.942773895E0,2.329156494E-1,9.958900458E0
8.466220875E0,4.969665527E-1,-1.010832962E1,6.137237549E-2,1.012072478E1
8.476276875E0,3.993695068E-1,-1.001776794E1,-1.667532349E-1,1.002711211E1
8.486332875E0,5.499563599E-1,-9.826316071E0,-3.197351074E-1,9.846886313E0
8.496389875E0,9.078620911E-1,-9.757309570E0,-4.896318054E-1,9.811678905E0
8.506445875E0,1.448238373E0,-9.824968872E0,-7.652087402E-1,9.960569870E0
8.516501875E0,2.193388824E0,-1.006057892E1,-8.288264465E-1,1.033020600E1
8.526557875E0,3.005001068E0,-1.035546570E1,-5.131329346E-1,1.079486020E1
8.536614875E0,3.746409302E0,-1.062385757E1,-1.667532349E-1,1.126630991E1
8.546670875E0,4.392316132E0,-1.085617447E1,6.586303711E-3,1.171106351E1
8.556726875E0,4.850812683E0,-1.099433716E1,6.915618896E-2,1.201709681E1
8.566782875E0,4.856051788E0,-1.097113541E1,2.245330811E-2,1.199781460E1
8.576838875E0,4.538412323E0,-1.081201630E1,-2.716850281E-1,1.172905348E1
8.586896042E0,4.138893127E0,-1.061921722E1,-7.396119690E-1,1.142126248E1
8.596952042E0,4.493505707E0,-1.075842773E1,-1.333726501E0,1.173516882E1
8.607008042E0,5.591921539E0,-1.093790451E1,-1.745969238E0,1.240789064E1
8.617064042E0,6.680757294E0,-1.139924515E1,-2.101629639E0,1.337879498E1
8.627120042E0,7.653284912E0,-1.203182968E1,-2.221530304E0,1.443166284E1
8.637177042E0,7.310048676E0,-1.245320343E1,-2.091301117E0,1.459084054E1
8.647233042E0,6.119574280E0,-1.279045212E1,-1.608405304E0,1.426996224E1
8.657289042E0,4.497397614E0,-1.308069855E1,-9.160949707E-1,1.386255712E1
8.667345042E0,3.027154999E0,-1.340058334E1,-1.583706665E-1,1.373915509E1
8.677401042E0,1.660047913E0,-1.334759354E1,3.709286499E-1,1.345554162E1
8.687458042E0,1.474433899E-1,-1.272608597E1,5.040019226E-1,1.273691570E1
8.697514042E0,-1.733545074E0,-1.155806488E1,8.187973022E-1,1.171599212E1
8.707570042E0,-3.518283691E0,-1.018377274E1,1.381477203E0,1.086259760E1
8.717626042E0,-5.219046936E0,-8.875643005E0,6.373745728E-1,1.031609112E1
8.727683042E0,-6.996750183E0,-7.617808685E0,-5.063969421E-1,1.035576941E1
8.737739042E0,-8.404871979E0,-7.377408600E0,-1.707349548E0,1.131296040E1
8.747795042E0,-8.826844482E0,-8.489146729E0,-2.682870941E0,1.253700890E1
8.757851042E0,-8.206235046E0,-1.053613998E1,-3.131188660E0,1.371702890E1
8.767907042E0,-6.896009674E0,-1.252759872E1,-3.260070648E0,1.466709719E1
8.777964042E0,-4.667144623E0,-1.383557877E1,-2.741249542E0,1.485664591E1
8.788020042E0,-2.792143707E0,-1.443089081E1,-1.570534058E0,1.478219379E1
8.798076042E0,-2.149530029E0,-1.397568741E1,-9.186396790E-1,1.416983475E1
8.808132042E0,-2.001038818E0,-1.259151581E1,-7.696994019E-1,1.277273909E1
8.818188042E0,-2.349813538E0,-1.123743164E1,-2.984793091E-1,1.148436256E1
8.828245042E0,-1.881886597E0,-1.045695465E1,-3.329077148E-1,1.063015641E1
8.838301042E0,-1.716330872E0,-9.453291779E0,2.516267395E-1,9.611130689E0
8.848357042E0,-1.730251923E0,-8.683292999E0,3.414399719E-1,8.860582954E0
8.858413042E0,-1.669178925E0,-7.869136047E0,6.316864014E-2,8.044467086E0
8.868470042E0,-1.599124603E0,-7.449558563E0,3.083587646E-1,7.625497191E0
8.878526042E0,-1.032702484E0,-7.479196930E0,-8.195457458E-1,7.594505670E0
8.888582042E0,-8.622070312E-2,-8.006101227E0,-2.201022949E0,8.303589157E0
8.898638042E0,5.598358154E-2,-8.708141327E0,-2.149380341E0,8.969654139E0
8.908694042E0,4.520599365E-1,-9.006470947E0,-1.783241730E0,9.192433202E0
8.918751042E0,6.126759338E-1,-9.237440643E0,-1.881138153E0,9.446923425E0
8.928807042E0,-6.900650024E-2,-9.036109314E0,-1.501677246E0,9.160298466E0
8.938863042E0,-9.613009644E-1,-8.441246338E0,-1.297202454E0,8.594269805E0
8.948919042E0,-1.450483704E0,-7.991132355E0,-1.446891174E0,8.249581405E0
8.958975042E0,-1.693727875E0,-7.652536469E0,-1.386566620E0,7.959434371E0
8.969032042E0,-1.576072540E0,-7.419471130E0,-1.253792725E0,7.687948537E0
8.979088042E0,-1.315913544E0,-7.453600159E0,-1.239871674E0,7.669750032E0
8.989144042E0,-9.581575012E-1,-7.483388214E0,-1.536704407E0,7.699391235E0
8.999200042E0,-4.526586914E-1,-7.418572998E0,-2.089055786E0,7.720380774E0
9.009257042E0,-6.855743408E-2,-7.381150818E0,-2.573897552E0,7.817354804E0
9.019313042E0,2.038760376E-1,-7.410639496E0,-2.943329315E0,7.976360739E0
9.029369042E0,4.240681458E-1,-7.451055450E0,-3.198099518E0,8.119476685E0
9.039425042E0,6.622229004E-1,-7.446864166E0,-3.362457733E0,8.197587882E0
9.049481042E0,8.210426331E-1,-7.358697510E0,-3.392994232E0,8.144749837E0
9.059538042E0,9.487271118E-1,-7.256460114E0,-3.297941895E0,8.026999268E0
9.069594042E0,1.045126648E0,-7.151827698E0,-3.140619049E0,7.880635580E0
9.079650042E0,1.119222565E0,-6.972500610E0,-3.128494263E0,7.723723212E0
9.089706042E0,1.136736145E0,-6.694079590E0,-3.255879364E0,7.530180679E0
9.099762042E0,1.048419800E0,-6.449188843E0,-3.355721741E0,7.345208588E0
9.109819042E0,5.710624695E-1,-6.579118652E0,-3.256927185E0,7.363320533E0
9.119875042E0,4.025129700E-1,-7.038513336E0,-3.562292175E0,7.898899431E0
9.129931042E0,5.894741821E-1,-7.873477020E0,-4.431085510E0,9.053929478E0
9.139987042E0,8.801696777E-1,-8.926387482E0,-5.445076904E0,1.049304315E1
9.150044042E0,1.290765839E0,-1.007075775E1,-6.231391754E0,1.191287041E1
9.160100042E0,1.823957062E0,-1.118653748E1,-6.369704132E0,1.300148341E1
9.170156042E0,2.617007904E0,-1.207763443E1,-6.323450317E0,1.388178691E1
9.180212042E0,2.900368652E0,-1.252999374E1,-6.474935303E0,1.439922459E1
9.190268042E0,1.972298584E0,-1.233599716E1,-5.772296448E0,1.376176566E1
9.200325042E0,1.135388947E0,-1.141316620E1,-4.676575012E0,1.238627565E1
9.210381042E0,-3.074606323E-1,-1.071217392E1,-3.830234985E0,1.138050536E1
9.220437042E0,-2.022743683E0,-1.073477692E1,-4.164938965E0,1.169075036E1
9.230493042E0,-3.037932587E0,-1.210817093E1,-6.629863129E0,1.413477707E1
9.240549042E0,-4.065695343E0,-1.430410446E1,-8.718769226E0,1.723816173E1
9.250606042E0,-5.462590485E0,-1.551568497E1,-6.226152649E0,1.758810256E1
9.260662042E0,-5.330415344E0,-1.402792877E1,-2.029928741E0,1.514320719E1
9.270718042E0,-3.576662292E0,-1.063523392E1,6.712042236E-1,1.124060624E1
9.280774042E0,-2.101929016E0,-8.239615631E0,2.375709686E0,8.829120446E0
9.290830042E0,-7.954458618E-1,-7.107070770E0,3.070265350E0,7.782654969E0
9.300887042E0,1.899549866E-1,-6.648873596E0,3.656596069E0,7.590408277E0
9.310943042E0,1.182989960E0,-6.671775970E0,4.047732697E0,7.892794171E0
9.320999042E0,1.724563751E0,-6.945856018E0,4.374652863E0,8.387885528E0
9.331055042E0,1.712139587E0,-7.440876617E0,4.198319550E0,8.713435249E0
9.341112042E0,1.298549652E0,-8.282127228E0,3.330873413E0,9.020786014E0
9.351168042E0,8.502319336E-1,-9.497899017E0,2.456691284E0,9.847248964E0
9.361224042E0,4.023632813E-1,-1.094643677E1,1.947300568E0,1.112557206E1
9.371280042E0,4.704716492E-1,-1.214349747E1,9.466314697E-1,1.218942105E1
9.381336042E0,9.565109253E-1,-1.257639725E1,-5.637277222E-1,1.262531068E1
9.391393042E0,1.245110779E0,-1.209155548E1,-2.250120850E0,1.236200059E1
9.401449042E0,8.454418945E-1,-1.131631760E1,-3.770658875E0,1.195791304E1
9.411505042E0,-6.047424316E-2,-1.070049820E1,-4.425696716E0,1.157977160E1
9.421561042E0,-7.622149658E-1,-1.023766068E1,-3.832031250E0,1.095787987E1
9.431617042E0,-4.810995483E-1,-9.986483002E0,-2.451152802E0,1.029414637E1
9.441674042E0,2.182461548E-1,-9.614955597E0,-9.056167603E-1,9.659976409E0
9.451730042E0,5.180726624E-1,-9.037606201E0,6.596781921E-1,9.076447568E0
9.461786042E0,4.993615723E-1,-8.459658051E0,1.634301453E0,8.630534025E0
9.471842042E0,6.417155457E-1,-8.095764771E0,1.688339081E0,8.294799269E0
9.481899042E0,9.229806519E-1,-7.898475037E0,1.561852112E0,8.104146050E0
9.491955042E0,1.014440460E0,-7.780819702E0,1.472188568E0,7.983582145E0
9.502011042E0,6.080355835E-1,-8.044870605E0,9.566606140E-1,8.124336887E0
9.512067042E0,5.902226257E-1,-8.461304626E0,1.203497314E-1,8.482719068E0
9.522123042E0,1.116827545E0,-8.725654907E0,-5.571414185E-1,8.814463335E0
9.532180042E0,1.205742645E0,-9.261091461E0,-9.592053223E-1,9.388381396E0
9.542236042E0,8.891510010E-1,-9.625433807E0,-1.184187469E0,9.738678835E0
9.552292042E0,6.045927429E-1,-1.005773483E1,-1.306782532E0,1.016027770E1
9.562348042E0,4.129911804E-1,-1.040546173E1,-1.366059265E0,1.050287168E1
9.572404042E0,1.230441284E-1,-1.044393173E1,-1.576970673E0,1.056303396E1
9.582460792E0,1.631607056E-2,-1.038315811E1,-1.880389709E0,1.055206634E1
9.592516792E0,-3.697311401E-2,-1.014320709E1,-1.967807922E0,1.033239010E1
9.602572792E0,4.520599365E-2,-9.836195526E0,-2.022444305E0,1.004206488E1
9.612628792E0,3.234773254E-1,-9.777367859E0,-2.182910614E0,1.002330577E1
9.622685792E0,7.900570679E-1,-9.771230621E0,-1.892065430E0,9.984039744E0
9.632741792E0,1.194216614E0,-9.833501129E0,-1.377585297E0,1.000108189E1
9.642797792E0,1.566941528E0,-9.910890198E0,-9.214837646E-1,1.007621867E1
9.652853792E0,1.937271423E0,-1.003168900E1,-5.547463989E-1,1.023208426E1
9.662909792E0,2.375260620E0,-1.008752289E1,-4.085005188E-1,1.037144415E1
9.672966792E0,2.773582306E0,-1.011865814E1,-6.342311096E-1,1.051105373E1
9.683022792E0,3.078198853E0,-1.001776794E1,-1.136287079E0,1.054144824E1
9.693078792E0,2.972518616E0,-9.940378876E0,-1.743274841E0,1.052074172E1
9.703134792E0,2.742596741E0,-9.951156464E0,-2.196232910E0,1.055323604E1
9.713190792E0,2.532733154E0,-1.008677444E1,-2.056872711E0,1.060134337E1
9.723247792E0,2.240391083E0,-1.050814819E1,-1.303040314E0,1.082305154E1
9.733303792E0,1.879641266E0,-1.127694946E1,-2.574645996E-1,1.143542428E1
9.743359792E0,1.745669861E0,-1.217657867E1,5.113366699E-1,1.231169755E1
9.753415792E0,1.603465576E0,-1.325403809E1,8.234376526E-1,1.337604863E1
9.763471792E0,1.490899658E0,-1.395143784E1,1.155297546E0,1.407835615E1
9.773528792E0,8.635542297E-1,-1.383438126E1,1.133442993E0,1.390757073E1
9.783584792E0,-1.032403107E0,-1.280691788E1,3.844006348E-1,1.285421198E1
9.793640792E0,-4.286935272E0,-1.151794830E1,-1.147364044E0,1.234331363E1
9.803696792E0,-7.932005310E0,-1.102173019E1,-3.776347046E0,1.409453943E1
9.813753792E0,-1.034663406E1,-1.122276215E1,-5.059478760E0,1.608109300E1
9.823809792E0,-9.779762878E0,-1.170041885E1,-3.875740356E0,1.573419609E1
9.833865792E0,-8.591833191E0,-1.186507645E1,-2.015109558E0,1.478716684E1
9.843921792E0,-7.936196594E0,-1.242581039E1,-6.554869080E-1,1.475851088E1
9.853977792E0,-3.952680359E0,-1.386342087E1,1.423539734E-1,1.441660102E1
9.864034792E0,-2.630030823E-1,-1.434481979E1,8.086184692E-1,1.436999963E1
9.874090792E0,1.124461670E0,-1.408496017E1,1.361718292E0,1.419523842E1
9.884146792E0,2.220632172E0,-1.290915527E1,1.541943512E0,1.318920342E1
9.894202792E0,3.046614532E0,-1.083551743E1,1.156644745E0,1.131495139E1
9.904258792E0,3.888164520E0,-9.056916046E0,8.428971863E-1,9.892220543E0
9.914315792E0,4.651127930E0,-8.287366333E0,3.791615295E-1,9.510898760E0
9.924371792E0,5.406157837E0,-8.306526489E0,-1.330882416E0,9.999808642E0
9.934427792E0,4.994214478E0,-8.095315704E0,-1.770368500E0,9.675252928E0
9.944483792E0,3.670217743E0,-7.646548920E0,-1.509610748E0,8.615052714E0
9.954539792E0,1.799857178E0,-7.014263763E0,-9.038204956E-1,7.297689600E0
9.964596792E0,3.451821899E-1,-6.585255890E0,-5.161267090E-1,6.614463898E0
9.974652792E0,-5.556445312E-1,-6.584657135E0,-8.388555908E-1,6.661090686E0
9.984708792E0,-1.190624084E0,-6.878047028E0,-1.213676147E0,7.085063614E0
9.994764792E0,-1.803000641E0,-7.061266022E0,-1.196611633E0,7.385402395E0
1.000482179E1,-2.065404968E0,-6.953041077E0,-1.266965332E0,7.363143286E0
1.001487779E1,-1.864073639E0,-6.641688538E0,-1.505419464E0,7.060671705E0
1.002493379E1,-1.481768646E0,-6.265071716E0,-1.974693604E0,6.733956991E0
1.003498979E1,-1.024170227E0,-6.142626343E0,-2.243833923E0,6.619333329E0
1.004504579E1,-5.495072937E-1,-6.233038330E0,-2.501747589E0,6.738803016E0
1.005510279E1,-1.440005493E-1,-6.397396545E0,-2.855162659E0,7.007094442E0
1.006515879E1,3.426374817E-1,-6.612948303E0,-3.108136597E0,7.314984539E0
1.007521479E1,8.054750061E-1,-6.831793213E0,-3.276686096E0,7.619636491E0
1.008527079E1,1.020278320E0,-7.060068512E0,-3.457360382E0,7.927097581E0
1.009532679E1,9.151968384E-1,-7.328011322E0,-3.792064362E0,8.301631605E0
1.010538379E1,6.062393188E-1,-7.628586273E0,-4.490960999E0,8.873082065E0
1.011543979E1,2.008822632E-1,-8.101153564E0,-5.627098389E0,9.865762973E0
1.012549579E1,1.163081360E-1,-8.850495300E0,-6.840774536E0,1.118664342E1
1.013555179E1,-1.002914429E-2,-9.851314087E0,-7.898325348E0,1.262663982E1
1.014560879E1,1.823208618E-1,-1.095541809E1,-8.634793854E0,1.395041545E1
1.015566479E1,8.164022827E-1,-1.181687668E1,-8.513396301E0,1.458708345E1
1.016572079E1,1.492845612E0,-1.197030762E1,-7.578141174E0,1.424587927E1
1.017577679E1,1.663191376E0,-1.106005051E1,-6.327791290E0,1.285036441E1
1.018583279E1,7.602690125E-1,-1.030816406E1,-5.327421570E0,1.162831354E1
1.019588979E1,-2.990780640E-1,-9.687554626E0,-4.641248474E0,1.074613185E1
1.020594579E1,-1.166374512E0,-8.845555573E0,-4.289030914E0,9.899498425E0
1.021600179E1,-1.743274841E0,-7.831264801E0,-4.517306213E0,9.207267292E0
1.022605779E1,-2.123783569E0,-6.968459015E0,-4.741988983E0,8.692314836E0
1.023611379E1,-1.999990997E0,-7.686066742E0,-6.180497589E0,1.006350517E1
1.024617079E1,-1.570534058E0,-1.005953110E1,-6.914571075E0,1.230739762E1
1.025622679E1,-1.872306519E0,-1.212358887E1,-5.379812622E0,1.339512309E1
1.026628279E1,-2.189047852E0,-1.415606232E1,-3.143912201E0,1.466527241E1
1.027633879E1,-2.205513611E0,-1.578452591E1,-6.447093201E-1,1.595089962E1
1.028639479E1,-2.017803955E0,-1.594708786E1,8.241860962E-1,1.609535420E1
1.029645179E1,-1.225202179E0,-1.416519333E1,1.341510315E0,1.428122797E1
1.030650779E1,-1.437011719E-1,-1.152483398E1,1.844464417E0,1.167238182E1
1.031656379E1,5.921685791E-1,-9.076974335E0,2.313289490E0,9.385810299E0
1.032661979E1,1.637594604E0,-7.316634979E0,3.065625000E0,8.100180254E0
1.033667679E1,2.874921570E0,-6.361321564E0,4.034410400E0,8.062757180E0
1.034673279E1,3.575464783E0,-5.995781708E0,4.467908936E0,8.288278287E0
1.035678879E1,3.628903656E0,-6.094426575E0,3.792962494E0,8.043478197E0
1.036684479E1,3.619024200E0,-6.887627106E0,3.047512665E0,8.356080227E0
1.037690079E1,3.582799530E0,-8.043972473E0,2.506238251E0,9.155499756E0
1.038695779E1,3.431314545E0,-9.252708893E0,1.861977997E0,1.004258450E1
1.039701379E1,2.898722076E0,-1.037267990E1,1.348994751E0,1.085425561E1
1.040706979E1,2.184557190E0,-1.105660767E1,7.119195557E-1,1.129281598E1
1.041712579E1,8.141569519E-1,-1.137334900E1,-7.201524353E-1,1.142517127E1
1.042718179E1,-1.546434174E0,-1.147618515E1,-3.029999084E0,1.196976101E1
1.043723879E1,-3.953428802E0,-1.131452133E1,-4.897066498E0,1.294717160E1
1.044729479E1,-5.109025726E0,-1.094104797E1,-5.050347748E0,1.308872366E1
1.045735079E1,-4.058210907E0,-1.032148636E1,-3.951782227E0,1.177364596E1
1.046740679E1,-2.121987305E0,-9.673483887E0,-2.386636963E0,1.018700921E1
1.047746379E1,-5.164260864E-1,-9.052425385E0,-1.113983459E0,9.135319392E0
1.048751979E1,6.409671021E-1,-8.548124084E0,-4.330494690E-1,8.583052839E0
1.049757579E1,1.232087860E0,-8.124055939E0,1.104702759E-1,8.217696093E0
1.050763179E1,1.551673279E0,-7.859256592E0,6.087840271E-1,8.034066351E0
1.051768779E1,1.618434448E0,-7.777227173E0,6.340814209E-1,7.969106086E0
1.052774479E1,1.462907867E0,-8.034691772E0,2.158511353E-1,8.169636652E0
1.053780079E1,1.321751404E0,-8.317304077E0,-2.740800476E-1,8.426131601E0
1.054785679E1,1.451681213E0,-8.609496460E0,-6.111790466E-1,8.752390957E0
1.055791279E1,1.460662537E0,-8.988508301E0,-6.586303711E-1,9.130203201E0
1.056796879E1,1.250798950E0,-9.448950806E0,-7.018904114E-1,9.557186798E0
1.057802579E1,9.241781616E-1,-9.912686462E0,-9.569599915E-1,1.000156141E1
1.058808188E1,4.653822327E-1,-1.018077896E1,-1.247056732E0,1.026742379E1
1.059813788E1,4.041595459E-2,-1.029993118E1,-1.636546783E0,1.042921383E1
1.060819387E1,-4.183799744E-1,-1.028885422E1,-2.094294891E0,1.050816987E1
1.061824988E1,-8.131091309E-1,-1.010324020E1,-2.504891052E0,1.044083753E1
1.062830688E1,-1.019679565E0,-9.855056305E0,-2.768941956E0,1.028731844E1
1.063836288E1,-8.454418945E-1,-9.645791473E0,-2.848426666E0,1.009304709E1
1.064841888E1,-3.185375977E-1,-9.535470886E0,-2.562521210E0,9.878926367E0
1.065847488E1,4.085005188E-1,-9.502988434E0,-1.861079865E0,9.692124644E0
1.066853188E1,1.205443268E0,-9.597442017E0,-1.128652954E0,9.738472376E0
1.067858788E1,1.994452515E0,-9.874515839E0,-6.646179199E-1,1.009582195E1
1.068864388E1,2.629282379E0,-1.012284943E1,-4.134402466E-1,1.046690686E1
1.069869988E1,2.947071533E0,-1.033750305E1,-4.074526978E-1,1.075710080E1
1.070875588E1,2.874771881E0,-1.064885559E1,-8.012837219E-1,1.105913624E1
1.071881288E1,2.333796844E0,-1.087219116E1,-1.466650085E0,1.121615847E1
1.072886888E1,1.672172699E0,-1.091964249E1,-1.900298309E0,1.120918763E1
1.073892488E1,1.381477203E0,-1.097442856E1,-1.693727875E0,1.118996316E1
1.074898088E1,1.534908142E0,-1.147813110E1,-1.212778015E0,1.164363634E1
1.075903688E1,1.728006592E0,-1.228764771E1,-1.128203888E0,1.245974064E1
1.076909388E1,1.970352631E0,-1.317051178E1,-1.362766113E0,1.338662771E1
1.077914988E1,2.220332794E0,-1.349503693E1,-1.232985992E0,1.373193919E1
1.078920588E1,2.136058044E0,-1.321272400E1,-3.556604004E-1,1.338899973E1
1.079926188E1,1.257085876E0,-1.266860550E1,1.369651794E-1,1.273155881E1
1.080931788E1,-9.246272278E-1,-1.254825577E1,-1.143621826E0,1.263414141E1
1.081937487E1,-3.373983765E0,-1.263073425E1,-2.258802795E0,1.326730584E1
1.082943088E1,-4.955594788E0,-1.290661057E1,-2.556084595E0,1.405959048E1
1.083948688E1,-5.141957245E0,-1.247685425E1,-2.485880585E0,1.372192474E1
1.084954288E1,-3.880081329E0,-1.117830460E1,-1.699865112E0,1.195403974E1
1.085959987E1,-9.949809265E-1,-1.116363510E1,5.089416504E-3,1.120788837E1
1.086965588E1,9.686357117E-1,-1.158860138E1,1.866768036E0,1.177789285E1
1.087971187E1,1.828148346E0,-1.213511490E1,3.041225739E0,1.264326674E1
1.088976788E1,3.073857880E0,-1.219214630E1,3.119063873E0,1.295475176E1
1.089982387E1,4.191433868E0,-1.146361130E1,2.158211975E0,1.239517571E1
1.090988088E1,3.907324677E0,-9.835447083E0,1.029559021E0,1.063311794E1
1.091993687E1,3.071462860E0,-8.381370850E0,-4.939727783E-3,8.926437465E0
1.092999288E1,3.112776947E0,-7.976013794E0,-9.367520142E-1,8.612994874E0
1.094004887E1,3.611390076E0,-8.396489410E0,-2.105521545E0,9.379573214E0
1.095010488E1,3.331472168E0,-8.782386932E0,-2.970422974E0,9.851519663E0
1.096016188E1,2.723286896E0,-8.664581909E0,-2.587070160E0,9.443738835E0
1.097021788E1,1.925595703E0,-8.475225677E0,-1.887724457E0,8.893867141E0
1.098027388E1,9.834548950E-1,-8.333320770E0,-1.217268677E0,8.478983525E0
1.099032988E1,4.475692749E-1,-8.144862671E0,-5.560935974E-1,8.176083798E0
1.100038587E1,4.971162415E-1,-8.111332397E0,-5.408253479E-1,8.144527603E0
1.101044288E1,4.965174866E-1,-8.215815125E0,-8.746311951E-1,8.277144888E0
1.102049888E1,3.543132019E-1,-8.105793915E0,-6.942562866E-1,8.143182709E0
1.103055488E1,4.957690430E-1,-7.980654144E0,-2.787203979E-1,8.000894486E0
1.104061088E1,3.242257690E-1,-7.752079468E0,-1.862127686E-1,7.761091007E0
1.105066688E1,5.538482666E-3,-7.636968842E0,-8.352630615E-2,7.637427604E0
1.106072388E1,-2.905458069E-1,-7.726632385E0,5.553451538E-2,7.732292607E0
1.107077988E1,-6.965016174E-1,-7.809859314E0,9.939331055E-2,7.841485576E0
1.108083588E1,-1.058598633E0,-7.874674530E0,4.535568237E-2,7.945639506E0
1.109089188E1,-1.387614441E0,-7.911497955E0,-1.583706665E-1,8.033825677E0
1.110094888E1,-1.528471527E0,-8.037535858E0,-6.089337158E-1,8.204206735E0
1.111100488E1,-1.521286469E0,-8.177195435E0,-1.228645020E0,8.407758695E0
1.112106088E1,-1.393751678E0,-8.327183533E0,-1.906585236E0,8.655610700E0
1.113111688E1,-1.044378204E0,-8.490344238E0,-2.506986694E0,8.914126620E0
1.114117288E1,-6.589297485E-1,-8.682245178E0,-3.118764496E0,9.248905975E0
1.115122988E1,-6.020480347E-1,-8.878936157E0,-3.633843384E0,9.612636832E0
1.116128588E1,-2.788700867E-1,-9.180259552E0,-4.049978027E0,1.003779139E1
1.117134188E1,1.740879822E-1,-9.419911194E0,-4.561314697E0,1.046759883E1
1.118139788E1,4.903802490E-1,-9.506880341E0,-5.290598145E0,1.089089874E1
1.119145388E1,9.024732971E-1,-9.487570496E0,-5.935157776E0,1.122740174E1
1.120151088E1,1.240470428E0,-9.536069641E0,-6.035299530E0,1.135342378E1
1.121156688E1,1.572929077E0,-9.572743378E0,-5.350922699E0,1.107898440E1
1.122162288E1,1.666334839E0,-9.480834503E0,-4.551435242E0,1.064793207E1
1.123167888E1,1.350641327E0,-9.310638428E0,-4.266727295E0,1.033040085E1
1.124173488E1,6.029461670E-1,-9.056317291E0,-4.379442902E0,1.007769552E1
1.125179187E1,-2.504292297E-1,-8.816066895E0,-5.094505920E0,1.018527078E1
1.126184788E1,-1.186283112E0,-9.762848053E0,-5.801934814E0,1.141853394E1
1.127190387E1,-1.549278259E0,-1.207134750E1,-5.638175354E0,1.341293089E1
1.128195988E1,-1.685045929E0,-1.525777130E1,-4.115242310E0,1.589258268E1
1.129201687E1,-2.098336487E0,-1.762075745E1,-1.972897339E0,1.785459137E1
1.130207288E1,-1.531016235E0,-1.700838089E1,-1.168170776E0,1.711705740E1
1.131212887E1,-2.746788025E-1,-1.378588211E1,-1.190773773E0,1.383993989E1
1.132218488E1,2.975811768E-1,-1.043225601E1,-8.819659424E-1,1.047369963E1
1.133224087E1,6.753955078E-1,-8.031997375E0,2.559677124E-1,8.064407009E0
1.134229788E1,9.412426758E-1,-6.644981689E0,1.187181244E0,6.815505758E0
1.135235388E1,1.237177277E0,-5.867348785E0,1.667831726E0,6.223990043E0
1.136240988E1,1.776505737E0,-5.588329010E0,2.105671234E0,6.230509217E0
1.137246587E1,2.181413727E0,-5.999074860E0,2.885100403E0,7.005088818E0
1.138252188E1,2.563569031E0,-7.075935516E0,3.442690887E0,8.276041938E0
1.139257888E1,2.671344910E0,-8.571325836E0,3.327879639E0,9.574888673E0
1.140263488E1,2.966231689E0,-1.005833359E1,2.921025696E0,1.088581628E1
1.141269088E1,3.185525665E0,-1.113339798E1,2.737507324E0,1.189933068E1
1.142274688E1,2.737956390E0,-1.155701706E1,2.523602142E0,1.214205980E1
1.143280288E1,1.519190826E0,-1.117411331E1,1.862876129E0,1.142974438E1
1.144285988E1,-2.555186462E-1,-1.043974045E1,6.252497864E-1,1.046156813E1
1.145291588E1,-2.057321777E0,-9.989925842E0,-1.089883575E0,1.025763313E1
1.146297188E1,-3.438948669E0,-9.817185059E0,-2.697839813E0,1.074624726E1
1.147302788E1,-3.204087067E0,-9.778565369E0,-3.491938477E0,1.086646902E1
1.148308488E1,-2.068997498E0,-9.678872681E0,-2.924618225E0,1.032059682E1
1.149314088E1,-1.095571747E0,-9.684261475E0,-2.069596252E0,9.963354175E0
1.150319688E1,-3.233276367E-2,-9.658964081E0,-9.068142700E-1,9.701491877E0
1.151325288E1,8.385562134E-1,-9.519304504E0,1.589694214E-1,9.557489526E0
1.152330888E1,1.331331482E0,-9.669142914E0,5.695655823E-1,9.776971574E0
1.153336588E1,1.469793549E0,-9.742340698E0,6.258485413E-1,9.872445581E0
1.154342188E1,1.601369934E0,-9.465566254E0,8.860075378E-1,9.640868194E0
1.155347788E1,1.539997559E0,-9.274563446E0,8.382568359E-1,9.438844957E0
1.156353388E1,1.171164551E0,-9.311686249E0,2.948867798E-1,9.389679729E0
1.157358988E1,9.249266052E-1,-9.467212830E0,-2.894979858E-1,9.516691498E0
1.158364687E1,8.258326721E-1,-9.607620850E0,-4.204756165E-1,9.652211028E0
1.159370288E1,7.252418518E-1,-9.811945953E0,-3.993695068E-1,9.846814467E0
1.160375888E1,7.074288940E-1,-1.002151016E1,-4.129911804E-1,1.005493328E1
1.161381488E1,5.583389282E-1,-1.016760635E1,-4.496649170E-1,1.019284847E1
1.162387088E1,4.629872131E-1,-1.010683273E1,-3.845503235E-1,1.012473723E1
1.163392788E1,3.617976379E-1,-9.990823975E0,-3.141966248E-1,1.000230877E1
1.164398387E1,8.382568359E-3,-9.886940002E0,-5.935157776E-1,9.904741988E0
1.165403988E1,-3.924838257E-1,-9.702074432E0,-1.098715210E0,9.771973545E0
1.166409587E1,-5.135820007E-1,-9.446106720E0,-1.471140747E0,9.573763823E0
1.167415288E1,-3.918850708E-1,-9.222471771E0,-1.701960754E0,9.386385347E0
1.168420887E1,-4.730163574E-2,-9.025631104E0,-1.689686279E0,9.182553783E0
1.169426488E1,4.255650330E-1,-9.097930756E0,-1.645677795E0,9.255360881E0
1.170432087E1,8.707392883E-1,-9.320966949E0,-1.640139313E0,9.504139558E0
1.171437688E1,1.188528442E0,-9.473799133E0,-1.889670410E0,9.733258660E0
1.172443388E1,1.477727051E0,-9.626032562E0,-1.894310760E0,9.921320143E0
1.173448988E1,1.678609314E0,-9.808652802E0,-1.764530640E0,1.010648145E1
1.174454588E1,1.571132813E0,-1.002300705E1,-1.791773987E0,1.030240664E1
1.175460188E1,1.302291870E0,-1.023736130E1,-1.820813599E0,1.047926012E1
1.176465787E1,1.078656921E0,-1.038375687E1,-1.688189392E0,1.057524897E1
1.177471488E1,1.069226532E0,-1.038600220E1,-1.162781982E0,1.050544378E1
1.178477088E1,1.443148956E0,-1.068567902E1,-3.698808289E-1,1.078903271E1
1.179482688E1,2.199076996E0,-1.173170380E1,4.400848389E-2,1.193611119E1
1.180488288E1,3.061284027E0,-1.291469376E1,-6.227050781E-2,1.327270328E1
1.181493888E1,3.707789612E0,-1.361089600E1,-4.632865906E-1,1.411449000E1
1.182499588E1,3.616629181E0,-1.315733917E1,-6.135740662E-1,1.365913811E1
1.183505188E1,2.452949066E0,-1.211131439E1,-8.306227112E-1,1.238510515E1
1.184510788E1,2.682421875E-1,-1.093341385E1,-1.424587555E0,1.102909525E1
1.185516388E1,-2.635718994E0,-1.075004517E1,-2.949915619E0,1.145480196E1
1.186521988E1,-4.410877533E0,-1.131796417E1,-3.304378510E0,1.258852934E1
1.187527688E1,-3.786376190E0,-1.180071030E1,-1.892963562E0,1.253701397E1
1.188533288E1,-3.073708191E0,-1.156255554E1,5.852828979E-2,1.196427174E1
1.189538888E1,-1.742376709E0,-1.189426575E1,1.458866272E0,1.210940647E1
1.190544488E1,-5.932164001E-1,-1.263223114E1,2.258503418E0,1.284624486E1
1.191550188E1,3.914360046E-1,-1.291454407E1,2.161654816E0,1.310005428E1
1.192555788E1,2.322420502E0,-1.261307098E1,1.489851837E0,1.291134598E1
1.193561388E1,3.842359772E0,-1.188378754E1,8.931925964E-1,1.252141876E1
1.194566988E1,4.490511932E0,-1.085542603E1,5.155279541E-1,1.175885797E1
1.195572588E1,4.478686523E0,-9.783505096E0,8.382568359E-3,1.075991056E1
1.196578288E1,3.439098358E0,-9.237590332E0,-3.691323853E-1,9.863910552E0
1.197583887E1,2.246678009E0,-9.109756165E0,-5.833369446E-1,9.400824509E0
1.198589488E1,1.747615814E0,-9.270970917E0,-1.371897125E0,9.533475992E0
1.199595088E1,1.130149841E0,-9.159752197E0,-1.329984283E0,9.324545950E0
1.200600688E1,6.203100586E-1,-8.990603943E0,-1.042581940E0,9.072084707E0
1.201606387E1,4.861889648E-1,-8.928183746E0,-9.813592529E-1,8.995104819E0
1.202611988E1,3.339555359E-1,-8.772956543E0,-9.801617432E-1,8.833855888E0
1.203617587E1,5.927673340E-2,-8.368347931E0,-5.905220032E-1,8.389366905E0
1.204623188E1,2.820135498E-1,-7.850574646E0,-2.806663513E-1,7.860650578E0
1.205628787E1,4.896318054E-1,-7.396868134E0,-4.107458496E-1,7.424426553E0
1.206634488E1,6.939569092E-1,-7.163952484E0,-4.929249573E-1,7.214344489E0
1.207640087E1,1.012195129E0,-7.140301666E0,-5.739065552E-1,7.234487929E0
1.208645688E1,1.106798401E0,-7.304659882E0,-6.927593994E-1,7.420442997E0
1.209651287E1,1.067729645E0,-7.598947906E0,-8.024812317E-1,7.715441141E0
1.210656888E1,1.146166534E0,-8.038883057E0,-7.150630188E-1,8.151604360E0
1.211662588E1,1.112785950E0,-8.352181549E0,-5.679190063E-1,8.445102794E0
1.212668188E1,1.066083069E0,-8.404722290E0,-2.154020691E-1,8.474803121E0
1.213673788E1,1.132395172E0,-8.360713806E0,6.421646118E-2,8.437296838E0
1.214679388E1,1.138382721E0,-8.306825867E0,1.893562317E-1,8.386604020E0
1.215685088E1,1.028511200E0,-8.284073181E0,3.900888062E-1,8.356786047E0
1.216690688E1,3.132984924E-1,-8.489895172E0,7.813751221E-2,8.496033277E0
1.217696288E1,-6.141728210E-1,-8.835227051E0,-4.655319214E-1,8.868774733E0
1.218701888E1,-1.074615326E0,-9.224417725E0,-1.012195129E0,9.341799582E0
1.219707488E1,-1.569935303E0,-9.792486420E0,-2.170037384E0,1.015216969E1
1.220713188E1,-1.870510254E0,-1.056368271E1,-4.052971802E0,1.146807662E1
1.221718788E1,-1.987716522E0,-1.151749924E1,-5.942791901E0,1.311184889E1
1.222724388E1,-1.787283325E0,-1.222837097E1,-6.380332031E0,1.390812982E1
1.223729988E1,-1.011895752E0,-1.245889160E1,-5.854026489E0,1.380280910E1
1.224735588E1,8.891510010E-2,-1.231429230E1,-5.148094482E0,1.334738092E1
1.225741288E1,5.968089294E-1,-1.201491486E1,-3.027604065E0,1.240486785E1
1.226746888E1,3.415896606E-1,-1.173260193E1,-7.490423584E-1,1.176144957E1
1.227752488E1,-2.032772827E-1,-1.154713760E1,-3.005749512E-1,1.155283748E1
1.228758088E1,-1.531315613E-1,-1.134984787E1,-6.472540283E-1,1.136931984E1
1.229763688E1,6.262976074E-1,-1.109612549E1,-3.396437073E-1,1.111897511E1
1.230769388E1,2.129322052E0,-1.084090622E1,1.094673615E0,1.110214260E1
1.231774988E1,3.429069214E0,-1.051114197E1,3.335663452E0,1.154856146E1
1.232780588E1,4.496499481E0,-9.789342957E0,5.106031952E0,1.192146406E1
1.233786188E1,5.557642822E0,-9.170829163E0,5.775140533E0,1.217964488E1
1.234791788E1,5.476361847E0,-8.684191132E0,5.062771912E0,1.144715572E1
1.235797488E1,4.275259552E0,-8.394094391E0,3.609893188E0,1.008811150E1
1.236803088E1,3.143313446E0,-8.817563782E0,1.872007141E0,9.546426619E0
1.237808688E1,2.570305023E0,-9.451794891E0,9.116043091E-2,9.795468585E0
1.238814288E1,1.994302826E0,-9.824220428E0,-1.181792450E0,1.009401725E1
1.239819988E1,9.418414307E-1,-9.967173157E0,-1.461560669E0,1.011769567E1
1.240825587E1,-5.605842590E-1,-9.878258057E0,-8.461903381E-1,9.930270643E0
1.241831188E1,-1.738335114E0,-9.773026886E0,2.540217590E-1,9.929672227E0
1.242836787E1,-2.352058868E0,-1.008931915E1,9.385482788E-1,1.040227931E1
1.243842388E1,-2.674488373E0,-1.025233017E1,8.893006897E-1,1.063268629E1
1.244848087E1,-2.244282990E0,-1.040306671E1,2.308200073E-1,1.064489930E1
1.245853688E1,-1.702709198E0,-1.078477295E1,-3.815565491E-1,1.092502318E1
1.246859287E1,-1.038690033E0,-1.092353439E1,-5.547463989E-1,1.098682048E1
1.247864888E1,1.324745178E-1,-1.101140167E1,-8.881031799E-1,1.104795201E1
1.248870487E1,1.049018555E0,-1.114941467E1,-1.467398529E0,1.129438559E1
1.249876188E1,1.769021301E0,-1.095901062E1,-1.779798889E0,1.124264356E1
1.250881788E1,2.556084595E0,-1.046818130E1,-1.560055847E0,1.088807433E1
1.251887388E1,3.377276917E0,-9.940528564E0,-1.240021362E0,1.057155431E1
1.252892987E1,3.666625214E0,-9.532776489E0,-1.000519409E0,1.026250492E1
1.253898588E1,3.342399445E0,-9.313183136E0,-8.249345398E-1,9.929125398E0
1.254904288E1,2.817291412E0,-9.379345551E0,-5.307962036E-1,9.807700978E0
1.255909888E1,2.120640106E0,-9.619146881E0,-8.232879639E-3,9.850135479E0
1.256915488E1,1.395098877E0,-9.911788330E0,4.577481079E-1,1.001994921E1
1.257921088E1,9.391470337E-1,-1.016880386E1,6.589297485E-1,1.023331606E1
1.258926779E1,6.634204102E-1,-1.035217255E1,6.698570251E-1,1.039501378E1
1.259932379E1,3.963757324E-1,-1.045500870E1,7.068301392E-1,1.048636874E1
1.260937979E1,3.857478333E-1,-1.036968613E1,8.806187439E-1,1.041415773E1
1.261943579E1,7.927514648E-1,-1.018167709E1,8.647517395E-1,1.024903893E1
1.262949179E1,1.136586456E0,-9.907896423E0,5.870791626E-1,9.990140252E0
1.263954879E1,1.126108246E0,-9.560169525E0,2.481838989E-1,9.629462933E0
1.264960479E1,1.219963074E0,-9.250613251E0,-4.685256958E-2,9.330827969E0
1.265966079E1,1.551224213E0,-9.041647797E0,-2.284249878E-1,9.176593562E0
1.266971679E1,1.902543640E0,-8.933123474E0,-2.785707092E-1,9.137722306E0
1.267977279E1,2.210902405E0,-8.834927673E0,-1.480421448E-1,9.108564811E0
1.268982979E1,2.453996887E0,-8.696615295E0,1.294807434E-1,9.037144659E0
1.269988579E1,2.702480164E0,-8.550818481E0,3.833528137E-1,8.975904139E0
1.270994179E1,2.891087952E0,-8.503217468E0,4.493655396E-1,8.992498332E0
1.271999779E1,2.914439392E0,-8.580905914E0,2.950364685E-1,9.067135700E0
1.273005379E1,2.886447601E0,-8.763226776E0,5.987548828E-3,9.226362183E0
1.274011079E1,2.923420715E0,-8.951086121E0,-2.848576355E-1,9.420693992E0
1.275016679E1,3.091521149E0,-8.996292114E0,-4.071533203E-1,9.521373254E0
1.276022279E1,3.336112518E0,-9.087153168E0,-3.362008667E-1,9.686022427E0
1.277027879E1,3.554059296E0,-9.439969482E0,-2.088157654E-1,1.008900220E1
1.278033479E1,3.503763885E0,-9.940079498E0,-7.619155884E-2,1.053979824E1
1.279039179E1,3.204985199E0,-1.037627243E1,2.157014465E-1,1.086211245E1
1.280044779E1,2.892285461E0,-1.078597046E1,6.541397095E-1,1.118616881E1
1.281050379E1,2.631827087E0,-1.132934052E1,9.199868774E-1,1.166734101E1
1.282055979E1,2.058519287E0,-1.189306824E1,8.307723999E-1,1.209846092E1
1.283061679E1,8.687933350E-1,-1.217238739E1,3.144960022E-1,1.220740449E1
1.284067279E1,-6.959028625E-1,-1.203003342E1,-3.384461975E-1,1.205489654E1
1.285072879E1,-2.224823456E0,-1.170895111E1,-9.175918579E-1,1.195371701E1
1.286078479E1,-3.370989990E0,-1.123368942E1,-1.024170227E0,1.177320161E1
1.287084079E1,-3.706292725E0,-1.091111023E1,-1.104104004E0,1.157618149E1
1.288089779E1,-3.357368317E0,-1.074540482E1,-1.270857239E0,1.132919789E1
1.289095379E1,-2.422113190E0,-1.083267334E1,-7.217990112E-1,1.112359824E1
1.290100979E1,-1.527124329E0,-1.098550552E1,-2.001338196E-1,1.109294793E1
1.291106579E1,-3.733236694E-1,-1.094000015E1,5.313949585E-2,1.094649705E1
1.292112179E1,7.113208008E-1,-1.143262573E1,5.388793945E-3,1.145473428E1
1.293117879E1,1.240620117E0,-1.209709396E1,-4.221221924E-2,1.216061686E1
1.294123479E1,1.407523041E0,-1.250484604E1,-5.450166321E-1,1.259560791E1
1.295129079E1,1.428928528E0,-1.242670853E1,-1.325942688E0,1.257867424E1
1.296134679E1,9.813592529E-1,-1.180190781E1,-1.384171600E0,1.192325563E1
1.297140379E1,4.296066284E-1,-1.087668182E1,-6.285429382E-1,1.090329471E1
1.298145979E1,2.420466614E-1,-1.024544449E1,5.149291992E-2,1.024843261E1
1.299151579E1,-3.869453430E-1,-9.843530273E0,1.520837402E-1,9.852306553E0
1.300157179E1,-5.896238708E-1,-9.581575012E0,-1.821711731E-1,9.601428142E0
1.301162779E1,-5.183720398E-1,-9.503736877E0,-6.689588928E-1,9.541343208E0
1.302168479E1,-9.900411987E-1,-9.468260651E0,-8.050259399E-1,9.553858283E0
1.303174079E1,-1.067130890E0,-9.346114655E0,-6.125262451E-1,9.426760625E0
1.304179679E1,-6.611750793E-1,-9.206604767E0,-9.321116638E-1,9.277260154E0
1.305185279E1,-1.082249451E-1,-9.193132782E0,-1.091829529E0,9.258374301E0
1.306190879E1,9.840536499E-1,-9.351653137E0,-1.100062408E0,9.467413337E0
1.307196579E1,1.435664520E0,-9.585017853E0,-1.314716034E0,9.780704377E0
1.308202179E1,1.452130280E0,-9.793234863E0,-1.691781921E0,1.004381688E1
1.309207779E1,7.499404907E-1,-9.813143463E0,-1.589843903E0,9.969342957E0
1.310213379E1,4.266128540E-2,-9.516161041E0,-1.374292145E0,9.614978931E0
1.311218979E1,-7.021897888E-1,-9.136251068E0,-1.432071991E0,9.274426358E0
1.312224679E1,-1.067130890E0,-8.663833466E0,-1.724264374E0,8.897969785E0
1.313230279E1,-1.295705566E0,-8.249644775E0,-1.938917999E0,8.572916356E0
1.314235879E1,-1.251098328E0,-7.922275543E0,-2.063908081E0,8.281751830E0
1.315241479E1,-1.187330933E0,-7.666457520E0,-2.345921631E0,8.104793269E0
1.316247079E1,-1.140478363E0,-7.440876617E0,-2.512674866E0,7.936048810E0
1.317252779E1,-1.054407349E0,-7.393874359E0,-2.485132141E0,7.871279099E0
1.318258379E1,-7.041357422E-1,-7.448810120E0,-2.384990387E0,7.852945848E0
1.319263979E1,-3.200344849E-1,-7.538473663E0,-2.092348938E0,7.830002000E0
1.320269579E1,1.056802368E-1,-7.709567871E0,-2.045346680E0,7.976969858E0
1.321275279E1,5.622308350E-1,-8.117020569E0,-2.333347778E0,8.464433725E0
1.322280879E1,1.069525909E0,-8.429869995E0,-2.694247284E0,8.914345867E0
1.323286479E1,1.204694824E0,-8.528814240E0,-2.770887909E0,9.048192182E0
1.324292079E1,1.290167084E0,-8.523275757E0,-3.082090759E0,9.154782585E0
1.325297679E1,1.269060974E0,-8.488547974E0,-3.478316803E0,9.260920593E0
1.326303379E1,1.154100037E0,-8.378377075E0,-3.810925140E0,9.276437880E0
1.327308979E1,1.132395172E0,-8.252039795E0,-4.134701843E0,9.299152592E0
1.328314579E1,1.259031830E0,-8.105195160E0,-4.415817261E0,9.315513502E0
1.329320179E1,1.547332306E0,-8.090525665E0,-4.576283569E0,9.423015129E0
1.330325779E1,1.860032043E0,-8.289012909E0,-4.688550110E0,9.703090041E0
1.331331479E1,1.998943176E0,-8.393944702E0,-4.792434082E0,9.870233326E0
1.332337079E1,2.070045319E0,-8.447383575E0,-4.612508240E0,9.844724940E0
1.333342679E1,2.088307343E0,-8.627010040E0,-4.209695892E0,9.823841881E0
1.334348279E1,2.089953918E0,-8.642128601E0,-3.879183197E0,9.700636908E0
1.335353879E1,1.587299194E0,-8.942404175E0,-4.110302582E0,9.968986833E0
1.336359579E1,8.399034119E-1,-1.009979736E1,-4.968617706E0,1.128709469E1
1.337365179E1,3.314108276E-1,-1.265393600E1,-5.462740173E0,1.378671316E1
1.338370779E1,1.736389160E-1,-1.553304886E1,-5.078189850E0,1.634300369E1
1.339376379E1,2.885998535E-1,-1.647144745E1,-3.093916168E0,1.676198640E1
1.340381979E1,7.393125916E-1,-1.508278519E1,-1.138682098E0,1.514376403E1
1.341387679E1,7.000941467E-1,-1.219618790E1,-1.008602600E0,1.225783057E1
1.342393279E1,-2.664459229E-2,-9.702074432E0,-1.414708099E0,9.804710971E0
1.343398879E1,-1.192869415E0,-8.027057648E0,-1.100810852E0,8.189528463E0
1.344404479E1,-1.980830841E0,-6.757547607E0,-7.605683899E-1,7.082838750E0
1.345410179E1,-1.909429321E0,-6.011499023E0,-2.698887634E-1,6.313230614E0
1.346415779E1,-1.533111877E0,-5.848637695E0,1.009500732E0,6.129933658E0
1.347421379E1,-1.283880157E0,-6.099815369E0,2.261048126E0,6.630869809E0
1.348426979E1,-1.589544525E0,-6.685846710E0,2.691702576E0,7.380546103E0
1.349432579E1,-2.075284424E0,-7.596702576E0,2.497256927E0,8.261536638E0
1.350438279E1,-2.313588867E0,-8.851992188E0,2.359393616E0,9.448661142E0
1.351443879E1,-2.449506226E0,-1.046982788E1,1.765129395E0,1.089647000E1
1.352449479E1,-2.198328552E0,-1.209978836E1,8.509803772E-1,1.232727441E1
1.353455079E1,-1.703757019E0,-1.339699081E1,1.579216003E-1,1.350581690E1
1.354460679E1,-1.209035797E0,-1.401131332E1,-5.635780334E-1,1.407466834E1
1.355466379E1,-7.222480774E-1,-1.387629410E1,-7.442523193E-1,1.391499521E1
1.356471979E1,1.742376709E-1,-1.274359955E1,-8.027806091E-1,1.277004874E1
1.357477579E1,1.071471863E0,-1.131646729E1,-7.774832153E-1,1.139363699E1
1.358483163E1,1.451980591E0,-9.986483002E0,-4.445755005E-1,1.010127407E1
1.359488763E1,1.863774261E0,-9.191935272E0,2.510279846E-1,9.382342117E0
1.360494462E1,1.954635315E0,-8.669521637E0,9.195378113E-1,8.934581938E0
1.361500063E1,1.624421997E0,-8.336613922E0,1.594184875E0,8.641718806E0
1.362505662E1,1.058898010E0,-8.128396912E0,1.984123993E0,8.433792111E0
1.363511263E1,5.845344543E-1,-8.197104034E0,1.777852936E0,8.408029266E0
1.364516862E1,2.270777893E-1,-8.502768402E0,1.161285095E0,8.584708376E0
1.365522563E1,-1.164578247E-1,-8.918903046E0,5.396278381E-1,8.935971809E0
1.366528162E1,-4.052073669E-1,-9.278605042E0,-1.038839722E-1,9.288029738E0
1.367533763E1,-4.279600525E-1,-9.591454468E0,-6.550378418E-1,9.623316642E0
1.368539362E1,-3.953279114E-1,-9.783804474E0,-1.081950073E0,9.851382142E0
1.369545063E1,-1.264869690E-1,-9.889933777E0,-1.463207245E0,9.998388095E0
1.370550663E1,1.499880981E-1,-1.020532791E1,-1.590592346E0,1.032962721E1
1.371556263E1,3.770658875E-1,-1.030711624E1,-1.441951447E0,1.041431937E1
1.372561863E1,4.667294312E-1,-1.010054581E1,-1.237326965E0,1.018674825E1
1.373567463E1,5.105882263E-1,-9.838590546E0,-1.040486298E0,9.906622835E0
1.374573163E1,6.071374512E-1,-9.720486145E0,-9.666897583E-1,9.787285419E0
1.375578763E1,6.018983459E-1,-9.640851746E0,-1.027313690E0,9.714096840E0
1.376584363E1,5.137316895E-1,-9.615853729E0,-1.080153809E0,9.689958485E0
1.377589963E1,4.966671753E-1,-9.552984467E0,-9.506730652E-1,9.613010443E0
1.378595563E1,5.739065552E-1,-9.434880066E0,-8.728349304E-1,9.492532402E0
1.379601263E1,7.816744995E-1,-9.396110687E0,-7.632627869E-1,9.459412305E0
1.380606863E1,1.238674164E0,-9.451345825E0,-5.560935974E-1,9.548376390E0
1.381612463E1,1.710493011E0,-9.585317230E0,-4.110452271E-1,9.745411788E0
1.382618063E1,2.039209442E0,-9.644593964E0,-4.751119995E-1,9.869260321E0
1.383623663E1,2.151625671E0,-9.625733185E0,-5.652246094E-1,9.879459056E0
1.384629363E1,1.913919983E0,-9.685159607E0,-6.855743408E-1,9.896232540E0
1.385634963E1,1.280886383E0,-9.807006226E0,-8.301736450E-1,9.925080822E0
1.386640563E1,4.996609497E-1,-1.017883301E1,-7.083270264E-1,1.021567568E1
1.387646163E1,-2.576142883E-1,-1.072564590E1,-3.082090759E-1,1.073316533E1
1.388651863E1,-8.554710388E-1,-1.139759857E1,2.249821472E-1,1.143187215E1
1.389657463E1,-1.259929962E0,-1.204111038E1,6.866221619E-1,1.212630252E1
1.390663063E1,-1.546434174E0,-1.278401550E1,6.574328613E-1,1.289398034E1
1.391668663E1,-1.796564026E0,-1.380369507E1,-4.815486145E-1,1.392844316E1
1.392674263E1,-2.399360504E0,-1.391880569E1,-1.885928192E0,1.424944939E1
1.393679962E1,-3.649860077E0,-1.345746506E1,-2.697091370E0,1.420208246E1
1.394685563E1,-4.968767395E0,-1.294298492E1,-3.219804382E0,1.423294237E1
1.395691162E1,-5.461392975E0,-1.265109192E1,-3.665278015E0,1.425872375E1
1.396696763E1,-5.652994537E0,-1.218106934E1,-3.306324463E0,1.382991608E1
1.397702363E1,-5.176535339E0,-1.195833252E1,-2.124831390E0,1.320277029E1
1.398708063E1,-3.523672485E0,-1.220936050E1,-6.538403320E-1,1.272447480E1
1.399713662E1,-2.218237152E0,-1.280377441E1,9.250762939E-1,1.302739350E1
1.400719263E1,-1.722917175E0,-1.319985077E1,2.419867859E0,1.352997651E1
1.401724862E1,-1.032552795E0,-1.284523819E1,2.709216156E0,1.316837733E1
1.402730463E1,-5.044509888E-1,-1.156839340E1,2.050885162E0,1.175960572E1
1.403736162E1,7.441026306E-1,-1.014380585E1,1.422042847E0,1.026998986E1
1.404741763E1,2.780767365E0,-9.232351227E0,6.664141846E-1,9.665044448E0
1.405747362E1,3.892056427E0,-8.597521362E0,3.697311401E-2,9.437523182E0
1.406752963E1,3.762126617E0,-8.016429749E0,-7.458988953E-1,8.886681482E0
1.407758562E1,3.367996216E0,-7.330256653E0,-1.210233307E0,8.157249890E0
1.408764263E1,2.744692383E0,-6.721772003E0,-1.797162781E0,7.479662372E0
1.409769863E1,1.865271149E0,-6.628515930E0,-2.802921295E0,7.434569771E0
1.410775463E1,4.055067444E-1,-6.904092865E0,-2.701282654E0,7.424813936E0
1.411781063E1,-8.659492493E-1,-7.297923889E0,-2.250120850E0,7.685870480E0
1.412786763E1,-1.619182892E0,-7.423812103E0,-1.728006592E0,7.792351774E0
1.413792363E1,-1.772314453E0,-7.268734589E0,-1.330583038E0,7.599082330E0
1.414797963E1,-1.362167358E0,-7.140900421E0,-1.326990509E0,7.389780954E0
1.415803563E1,-9.358538818E-1,-7.151678009E0,-1.731599121E0,7.417597748E0
1.416809163E1,-6.518943787E-1,-7.234306183E0,-2.295476532E0,7.617700751E0
1.417814863E1,-5.501060486E-1,-7.341483307E0,-2.729723511E0,7.851839546E0
1.418820463E1,-3.564088440E-1,-7.512427826E0,-3.052901459E0,8.116884034E0
1.419826063E1,-6.242019653E-2,-7.621550903E0,-3.371439056E0,8.334178770E0
1.420831663E1,3.981719971E-1,-7.676486664E0,-3.551664276E0,8.467662462E0
1.421837263E1,8.036787415E-1,-7.834707642E0,-3.591631165E0,8.656116784E0
1.422842963E1,9.849517822E-1,-7.920778656E0,-3.693120117E0,8.794771215E0
1.423848563E1,8.752299500E-1,-7.901468811E0,-3.797752533E0,8.810343985E0
1.424854163E1,5.701643372E-1,-7.873926086E0,-4.197571106E0,8.941107458E0
1.425859763E1,3.526666260E-1,-8.009993134E0,-5.064119110E0,9.483125335E0
1.426865363E1,3.659889221E-1,-8.346194000E0,-6.055956573E0,1.031830956E1
1.427871063E1,6.954537964E-1,-8.775201874E0,-7.057523804E0,1.128257356E1
1.428876663E1,1.283131714E0,-9.289831696E0,-7.743098145E0,1.216153645E1
1.429882263E1,1.877994690E0,-9.707014160E0,-7.825876007E0,1.260941407E1
1.430887863E1,2.412682800E0,-9.942025452E0,-7.480095062E0,1.267346561E1
1.431893463E1,2.766996002E0,-9.912536774E0,-6.765780487E0,1.231626720E1
1.432899162E1,2.904410248E0,-9.655072174E0,-5.769302673E0,1.161640525E1
1.433904763E1,2.686313782E0,-9.309291229E0,-4.914580078E0,1.086426630E1
1.434910362E1,1.697919159E0,-8.739276581E0,-4.197122040E0,9.842444719E0
1.435915963E1,5.658233643E-1,-7.731721802E0,-3.683839417E0,8.583143419E0
1.436921662E1,-3.129991150E-1,-6.670877838E0,-3.304228821E0,7.450940053E0
1.437927263E1,-8.551716614E-1,-6.175707550E0,-3.953279114E0,7.382350443E0
1.438932862E1,-1.177002411E0,-7.479047241E0,-5.347030792E0,9.268884539E0
1.439938463E1,-1.767524414E0,-1.016700760E1,-5.695057068E0,1.178668151E1
1.440944062E1,-2.764600983E0,-1.309057800E1,-4.407434692E0,1.408657984E1
1.441949763E1,-4.188290405E0,-1.598480942E1,-2.472408600E0,1.670834261E1
1.442955362E1,-4.719236298E0,-1.771625885E1,-1.109941864E0,1.836760708E1
1.443960963E1,-3.395239563E0,-1.670316559E1,-2.050735474E-2,1.704475910E1
1.444966562E1,-1.652264099E0,-1.316078201E1,1.341061249E0,1.333171426E1
1.445972163E1,-1.177002411E0,-9.929002533E0,2.474953308E0,1.030028251E1
1.446977863E1,-7.557783508E-1,-7.915988617E0,3.270698547E0,8.598345520E0
1.447983463E1,-5.448669434E-2,-6.901398468E0,3.533252563E0,7.753460085E0
1.448989063E1,6.262976074E-1,-6.457721100E0,3.247347107E0,7.255320374E0
1.449994663E1,1.348695374E0,-6.362070007E0,2.806214447E0,7.083061027E0
1.451000263E1,1.964065704E0,-6.711144104E0,2.097887421E0,7.300557575E0
1.452005963E1,2.119741974E0,-7.550897827E0,1.052162018E0,7.913053073E0
1.453011563E1,2.193688202E0,-8.702453156E0,4.490661621E-1,8.985912267E0
1.454017163E1,2.393223267E0,-9.863588562E0,1.751358032E-2,1.014978835E1
1.455022763E1,2.342927856E0,-1.074540482E1,-7.164102173E-1,1.102117413E1
1.456028363E1,1.928439789E0,-1.121602615E1,-1.310824127E0,1.145584491E1
1.457034063E1,1.102607117E0,-1.131631760E1,-1.522034912E0,1.147132846E1
1.458039663E1,-5.822891235E-2,-1.108804230E1,-1.559606781E0,1.119734102E1
1.459045338E1,-1.126108246E0,-1.066891388E1,-1.549278259E0,1.083946983E1
1.460050938E1,-1.833387451E0,-1.023167313E1,-1.492695923E0,1.050126591E1
1.461056538E1,-1.841320953E0,-9.747130737E0,-1.409169617E0,1.001912069E1
1.462062237E1,-1.077459412E0,-9.295669556E0,-1.325044556E0,9.451250412E0
1.463067838E1,-2.236349487E-1,-9.024583282E0,-1.144519958E0,9.099617681E0
1.464073438E1,5.278024292E-1,-8.871152344E0,-9.446855164E-1,8.936909423E0
1.465079038E1,1.156495056E0,-8.762328644E0,-5.665718079E-1,8.856460223E0
1.466084737E1,1.423839111E0,-8.684041443E0,-6.242019653E-2,8.800215331E0
1.467090338E1,1.398541718E0,-8.694819031E0,1.603166199E-1,8.808036009E0
1.468095937E1,1.302291870E0,-8.737180939E0,-1.945953369E-3,8.833702432E0
1.469101538E1,1.402583313E0,-8.880133667E0,-4.451742554E-1,9.001232916E0
1.470107137E1,1.452429657E0,-9.171577606E0,-9.551637268E-1,9.334866118E0
1.471112838E1,1.681603088E0,-9.353150024E0,-1.057251434E0,9.561745914E0
1.472118437E1,1.765428772E0,-9.554032288E0,-8.566685486E-1,9.753468752E0
1.473124038E1,1.697320404E0,-9.866881714E0,-4.822970581E-1,1.002341567E1
1.474129637E1,1.345551910E0,-1.004007156E1,-3.038681030E-1,1.013439109E1
1.475135238E1,9.912387085E-1,-1.016476227E1,-5.099894714E-1,1.022570464E1
1.476140938E1,6.515950012E-1,-1.009949799E1,-7.857160950E-1,1.015094997E1
1.477146538E1,3.603007507E-1,-9.875713348E0,-1.155147858E0,9.949567696E0
1.478152138E1,1.763333130E-1,-9.712103577E0,-1.445394287E0,9.820652421E0
1.479157738E1,1.167572021E-1,-9.616003418E0,-1.657503204E0,9.758507614E0
1.480163337E1,1.275347900E-1,-9.483379211E0,-1.650168457E0,9.626723343E0
1.481169038E1,3.195854187E-1,-9.466165009E0,-1.487606506E0,9.587668534E0
1.482174638E1,6.807843018E-1,-9.595046997E0,-1.178948364E0,9.691146134E0
1.483180238E1,1.051712952E0,-9.766141205E0,-8.014334106E-1,9.855247824E0
1.484185838E1,1.392254791E0,-9.952803040E0,-5.493576050E-1,1.006471339E1
1.485191538E1,1.694925385E0,-1.012045441E1,-4.120930481E-1,1.026967332E1
1.486197138E1,1.985920258E0,-1.030771500E1,-5.200186157E-1,1.051015162E1
1.487202738E1,2.234253845E0,-1.045321243E1,-7.599696350E-1,1.071630040E1
1.488208338E1,2.330354004E0,-1.053673874E1,-1.154100037E0,1.085289638E1
1.489213938E1,2.373464355E0,-1.047970734E1,-1.445993042E0,1.084197836E1
1.490219638E1,2.216440887E0,-1.029409332E1,-1.415157166E0,1.062467116E1
1.491225238E1,1.734143829E0,-1.027568161E1,-1.643133087E0,1.054972861E1
1.492230838E1,1.112935638E0,-1.019095779E1,-2.007625122E0,1.044628188E1
1.493236438E1,5.649252319E-1,-1.009021729E1,-2.107018433E0,1.032333047E1
1.494242038E1,6.762936401E-1,-1.024319916E1,-1.658850403E0,1.039866755E1
1.495247738E1,1.353186035E0,-1.097487762E1,-7.044351196E-1,1.108040072E1
1.496253338E1,2.186952209E0,-1.200114349E1,1.754351807E-1,1.220004027E1
1.497258938E1,2.734812927E0,-1.306932220E1,6.991960144E-1,1.337068658E1
1.498264538E1,2.775977325E0,-1.368379440E1,9.258247375E-1,1.399319230E1
1.499270138E1,1.968107300E0,-1.326840820E1,8.566685486E-1,1.344090710E1
1.500275838E1,1.657054138E-1,-1.215756821E1,-4.149371338E-1,1.216577559E1
1.501281438E1,-3.039728851E0,-1.138712036E1,-2.876867523E0,1.213189302E1
1.502287038E1,-5.578000488E0,-1.125659180E1,-4.371958466E0,1.330184082E1
1.503292638E1,-6.375541992E0,-1.100915634E1,-3.155138855E0,1.310740097E1
1.504298238E1,-5.240302734E0,-1.073911789E1,-1.798659668E0,1.208406398E1
1.505303937E1,-3.695515137E0,-1.039333694E1,-4.324507141E-1,1.103926169E1
1.506309538E1,-1.781445465E0,-1.072549622E1,4.917274475E-1,1.088354781E1
1.507315137E1,1.024619293E0,-1.166509232E1,1.375040588E0,1.179046055E1
1.508320738E1,3.144361267E0,-1.232357300E1,2.271077271E0,1.291956854E1
1.509326437E1,4.347259827E0,-1.266680923E1,3.286864929E0,1.378949619E1
1.510332038E1,4.817881165E0,-1.180295563E1,2.938988342E0,1.308278995E1
1.511337637E1,3.777694244E0,-1.026819717E1,1.498833160E0,1.104324897E1
1.512343238E1,3.857478333E0,-8.956474915E0,1.736389160E-1,9.753395945E0
1.513348837E1,3.849395142E0,-8.620124359E0,-8.752299500E-1,9.481055552E0
1.514354538E1,3.802542572E0,-9.022038574E0,-2.225721588E0,1.004043558E1
1.515360138E1,3.332070923E0,-9.264534302E0,-2.844534760E0,1.024820328E1
1.516365738E1,2.178569641E0,-9.106762390E0,-2.343526611E0,9.652533548E0
1.517371337E1,1.101559296E0,-9.069938965E0,-1.755699005E0,9.303746810E0
1.518376938E1,-1.661544800E-2,-9.046587524E0,-1.203347626E0,9.126284426E0
1.519382638E1,-6.777905273E-1,-9.213340759E0,-6.026467896E-1,9.257874005E0
1.520388238E1,-9.122030640E-1,-9.109905853E0,7.185058594E-2,9.155744732E0
1.521393838E1,-8.071215820E-1,-8.799451447E0,2.380050659E-2,8.836422210E0
1.522399438E1,-6.753955078E-1,-8.414152679E0,-7.364685059E-1,8.473282142E0
1.523405038E1,-5.162763977E-1,-8.059540100E0,-4.709207153E-1,8.089777146E0
1.524410738E1,-4.257147217E-1,-7.731272736E0,-3.456312561E-1,7.750694943E0
1.525416338E1,-1.164578247E-1,-7.572453003E0,-3.656895447E-1,7.582172232E0
1.526421938E1,4.014651489E-1,-7.454797668E0,-5.587879944E-1,7.486482924E0
1.527427538E1,5.812413025E-1,-7.285649414E0,-8.198451233E-1,7.354636283E0
1.528433238E1,4.354444885E-1,-7.130122833E0,-1.048120422E0,7.219890577E0
1.529438838E1,9.071136475E-2,-7.079827423E0,-1.285077667E0,7.196082928E0
1.530444438E1,-1.377136230E-1,-7.248676300E0,-1.488055573E0,7.401120357E0
1.531450038E1,-3.073109436E-1,-7.613767090E0,-1.937570801E0,7.862446815E0
1.532455638E1,-3.094065857E-1,-8.099357300E0,-2.603535919E0,8.513149851E0
1.533461338E1,4.790039063E-2,-8.454119568E0,-3.382516022E0,9.105813898E0
1.534466938E1,2.883004761E-1,-8.855884094E0,-4.041296082E0,9.738679288E0
1.535472538E1,5.986051941E-1,-9.360634460E0,-4.423750763E0,1.037060155E1
1.536478138E1,8.517288208E-1,-9.667496338E0,-4.773573303E0,1.081540242E1
1.537483738E1,1.286574554E0,-9.694440308E0,-4.847818909E0,1.091507193E1
1.538489437E1,1.139430542E0,-9.790989532E0,-4.704267426E0,1.092208359E1
1.539495038E1,7.174580383E-1,-9.894873505E0,-4.682412872E0,1.097033536E1
1.540500638E1,3.851490784E-1,-9.755363617E0,-4.432881775E0,1.072221525E1
1.541506238E1,-1.471440125E-1,-9.512418823E0,-4.062252502E0,1.034454729E1
1.542511838E1,-6.017486572E-1,-9.188941498E0,-3.990401917E0,1.003603780E1
1.543517538E1,-9.990225220E-1,-8.498277740E0,-4.359833679E0,9.603484798E0
1.544523137E1,-1.246907043E0,-7.481442261E0,-4.902305603E0,9.031021853E0
1.545528738E1,-1.077758789E0,-7.281158752E0,-5.109923859E0,8.960365987E0
1.546534337E1,-5.544470215E-1,-8.951984253E0,-5.062472534E0,1.029922627E1
1.547540038E1,-4.992118835E-1,-1.167033142E1,-4.099524994E0,1.237949729E1
1.548545637E1,-5.182223511E-1,-1.493459335E1,-2.747237091E0,1.519401016E1
1.549551238E1,-1.781295776E-2,-1.731090179E1,-1.660496979E0,1.739036769E1
1.550556837E1,8.663983154E-1,-1.757150986E1,-1.395547943E0,1.764812054E1
1.551562438E1,1.848206635E0,-1.530582138E1,-1.516496429E0,1.549141044E1
1.552568138E1,2.058968353E0,-1.164937500E1,-9.250762939E-1,1.186604630E1
1.553573738E1,2.037113800E0,-8.571625214E0,3.279679871E-1,8.816470634E0
1.554579338E1,2.280956726E0,-6.668782196E0,1.678459625E0,7.245180900E0
1.555584938E1,2.783012695E0,-5.715564423E0,2.845133514E0,6.964741276E0
1.556590537E1,3.076851654E0,-5.577551422E0,3.161575470E0,7.111375072E0
1.557596238E1,3.071612549E0,-6.219266968E0,2.900368652E0,7.518392354E0
1.558601775E1,3.318748627E0,-7.188950500E0,2.664608917E0,8.354354698E0
1.559607375E1,3.659140778E0,-7.991282043E0,2.306403809E0,9.086770519E0
1.560612975E1,3.448229370E0,-8.780291290E0,1.934726715E0,9.629484326E0
1.561618575E1,2.189347229E0,-9.605375519E0,1.632205811E0,9.986019024E0
1.562624275E1,2.332150269E-1,-1.030427216E1,1.020877075E0,1.035734541E1
1.563629875E1,-1.883832550E0,-1.082863174E1,-1.107846222E0,1.104696401E1
1.564635475E1,-3.855532379E0,-1.106319397E1,-3.956272888E0,1.236573839E1
1.565641075E1,-5.085524597E0,-1.097457825E1,-5.550607452E0,1.330838725E1
1.566646775E1,-4.639003143E0,-1.047297134E1,-5.277275848E0,1.261162635E1
1.567652375E1,-2.882705383E0,-1.012135254E1,-3.970044250E0,1.124780062E1
1.568657975E1,-9.602531433E-1,-9.794132996E0,-2.563269653E0,1.016943846E1
1.569663575E1,3.912863159E-1,-9.563312988E0,-1.748364258E0,9.729688478E0
1.570669175E1,1.506467285E0,-9.483379211E0,-1.028361511E0,9.657196920E0
1.571674875E1,2.334694977E0,-9.397457886E0,-2.788700867E-1,9.687145290E0
1.572680475E1,2.707569580E0,-9.058113556E0,4.813989258E-1,9.466366734E0
1.573686075E1,2.466121674E0,-8.544531555E0,1.057101746E0,8.955905298E0
1.574691675E1,2.333347778E0,-8.158783722E0,1.226848755E0,8.574113455E0
1.575697275E1,2.289938049E0,-8.022117920E0,9.791139221E-1,8.399812871E0
1.576702975E1,2.135758667E0,-8.085136871E0,5.287005615E-1,8.379166283E0
1.577708575E1,1.944606171E0,-8.344397736E0,6.930587769E-2,8.568271123E0
1.578714175E1,1.729503479E0,-8.787476349E0,-2.909948730E-1,8.960781265E0
1.579719775E1,1.492546234E0,-9.309291229E0,-5.312452698E-1,9.443136078E0
1.580725375E1,1.131197662E0,-9.754465485E0,-6.063890076E-1,9.838542203E0
1.581731075E1,6.786886597E-1,-9.993967438E0,-5.709127808E-1,1.003324199E1
1.582736675E1,3.067121887E-1,-1.010728180E1,-5.318440247E-1,1.012591111E1
1.583742275E1,4.191284180E-2,-1.020847137E1,-4.740641785E-1,1.021955876E1
1.584747875E1,-1.489402771E-1,-1.028241760E1,-3.957769775E-1,1.029110948E1
1.585753575E1,-3.068618774E-1,-1.032956955E1,-3.839515686E-1,1.034125670E1
1.586759175E1,-4.671784973E-1,-1.034693344E1,-4.939727783E-1,1.036924763E1
1.587764775E1,-6.045927429E-1,-1.030307465E1,-7.162605286E-1,1.034562268E1
1.588770375E1,-7.349716187E-1,-1.015757721E1,-8.813671875E-1,1.022219967E1
1.589775975E1,-8.686436462E-1,-9.988279266E0,-9.463320923E-1,1.007054164E1
1.590781675E1,-9.786648560E-1,-9.832004242E0,-1.024170227E0,9.933529935E0
1.591787275E1,-9.306147766E-1,-9.761500854E0,-1.000369720E0,9.856656754E0
1.592792875E1,-6.738986206E-1,-9.708061981E0,-8.077203369E-1,9.764887041E0
1.593798475E1,-1.172062683E-1,-9.798923035E0,-7.087760925E-1,9.825222313E0
1.594804075E1,6.783892822E-1,-9.996362457E0,-5.480104065E-1,1.003433056E1
1.595809775E1,1.487756195E0,-1.019829254E1,-5.595364380E-1,1.032141804E1
1.596815375E1,2.435285797E0,-1.043764481E1,-7.854167175E-1,1.074671696E1
1.597820975E1,3.387904816E0,-1.072953781E1,-9.635462952E-1,1.129288724E1
1.598826575E1,4.211492157E0,-1.081321381E1,-8.523275757E-1,1.163566592E1
1.599832175E1,4.752616882E0,-1.076905563E1,-6.581813049E-1,1.178953473E1
1.600837875E1,4.819677429E0,-1.068298462E1,-6.962022400E-1,1.174053442E1
1.601843475E1,4.477189636E0,-1.035082535E1,-9.211843872E-1,1.131518418E1
1.602849075E1,3.977828064E0,-1.000384689E1,-1.085841980E0,1.082031060E1
1.603854675E1,3.431164856E0,-9.879904633E0,-1.149010620E0,1.052167445E1
1.604860275E1,2.922372894E0,-1.003094055E1,-1.090632019E0,1.050473750E1
1.605865975E1,2.754721527E0,-1.053299652E1,-8.881031799E-1,1.092342591E1
1.606871575E1,2.957699432E0,-1.113264954E1,-7.779322815E-1,1.154508771E1
1.607877175E1,3.160976715E0,-1.160521683E1,-7.548802185E-1,1.205166692E1
1.608882775E1,3.023712158E0,-1.189276886E1,-7.162605286E-1,1.229202243E1
1.609888475E1,2.512974243E0,-1.189980423E1,-6.899153137E-1,1.218180460E1
1.610894075E1,1.449136505E0,-1.139191040E1,-9.349557495E-1,1.152170827E1
1.611899675E1,-1.857637024E-1,-1.082668579E1,-2.311193848E0,1.107218363E1
1.612905275E1,-2.467468872E0,-1.071441925E1,-3.639830933E0,1.158169037E1
1.613910875E1,-5.009333038E0,-1.117141891E1,-3.776496735E0,1.281233568E1
1.614916575E1,-6.074667664E0,-1.147019760E1,-2.705923004E0,1.325854591E1
1.615922175E1,-5.364694061E0,-1.112067444E1,-1.127455444E0,1.239840708E1
1.616927775E1,-3.892655182E0,-1.054856415E1,4.963677979E-1,1.125483678E1
1.617933375E1,-2.322420502E0,-1.066427353E1,2.031126251E0,1.110161433E1
1.618938975E1,-2.650987244E-1,-1.165177002E1,3.268303528E0,1.210437235E1
1.619944675E1,1.609303436E0,-1.239272919E1,3.330574036E0,1.293299338E1
1.620950275E1,2.501448212E0,-1.262639328E1,2.453847198E0,1.310360319E1
1.621955875E1,2.558629303E0,-1.252325775E1,1.237626343E0,1.284174005E1
1.622961475E1,1.786983948E0,-1.238284973E1,2.209405518E-1,1.251307691E1
1.623967075E1,8.159532166E-1,-1.180804504E1,-6.023474121E-1,1.185152015E1
1.624972775E1,2.683918762E-1,-1.089629105E1,-1.545835419E0,1.100866931E1
1.625978375E1,1.962419128E-1,-1.029020142E1,-2.624642029E0,1.062146420E1
1.626983975E1,2.740800476E-1,-9.588909760E0,-2.707419891E0,9.967569048E0
1.627989575E1,3.867956543E-1,-8.918453979E0,-2.146386566E0,9.181253049E0
1.628995175E1,3.543132019E-1,-8.451425171E0,-1.319955139E0,8.561215266E0
1.630000875E1,2.528242493E-1,-8.133785706E0,-7.929011536E-1,8.176251112E0
1.631006475E1,-7.394622803E-2,-7.895780640E0,-8.186476135E-1,7.938450974E0
1.632012075E1,-1.008901978E-1,-7.702233124E0,-1.404529266E0,7.829896320E0
1.633017675E1,2.694396973E-2,-7.635172577E0,-1.989063721E0,7.890054546E0
1.634023375E1,1.219963074E-1,-7.741301880E0,-2.489323425E0,8.132611451E0
1.635028975E1,1.854643250E-1,-7.876021729E0,-2.530637512E0,8.274674707E0
1.636034575E1,1.197509766E-1,-8.050558777E0,-2.387984161E0,8.398113197E0
1.637040175E1,-3.013233948E-1,-8.289761353E0,-2.480791168E0,8.658248315E0
1.638045775E1,-5.331912231E-1,-8.419242096E0,-2.961142273E0,8.940709922E0
1.639051475E1,-6.438111877E-1,-8.656199341E0,-3.553161163E0,9.379191550E0
1.640057075E1,-7.668553162E-1,-8.939111023E0,-4.076323242E0,9.854551442E0
1.641062675E1,-7.008425903E-1,-9.335337067E0,-4.477339325E0,1.037719933E1
1.642068275E1,-7.668553162E-1,-9.767338715E0,-4.369862823E0,1.072775250E1
1.643073875E1,-8.505313110E-1,-9.972711639E0,-3.593726807E0,1.063453118E1
1.644079575E1,-8.002359009E-1,-9.848470001E0,-2.824027405E0,1.027656896E1
1.645085175E1,-5.852828979E-1,-9.476792908E0,-2.608475647E0,9.846639279E0
1.646090775E1,-1.525328064E-1,-9.052425385E0,-2.723735962E0,9.454544367E0
1.647096375E1,3.585044861E-1,-8.625363464E0,-2.959046631E0,9.125863100E0
1.648102075E1,8.705895996E-1,-8.241860962E0,-3.426823883E0,8.968239531E0
1.649107675E1,1.268013153E0,-8.020321655E0,-3.988006897E0,9.046414528E0
1.650113275E1,1.495240631E0,-7.906707916E0,-4.414619751E0,9.178270107E0
1.651118875E1,1.585203552E0,-7.899822235E0,-4.622238007E0,9.288979806E0
1.652124475E1,1.522783356E0,-8.039631500E0,-4.585264893E0,9.379722701E0
1.653130175E1,1.342408447E0,-8.351582794E0,-4.504432983E0,9.583366429E0
1.654135775E1,1.327140198E0,-8.626560974E0,-4.559518433E0,9.847236347E0
1.655141375E1,9.857002258E-1,-8.708141327E0,-4.404590607E0,9.808350968E0
1.656146975E1,2.204914856E-1,-8.677904205E0,-4.125570831E0,9.611189967E0
1.657152575E1,-4.385879517E-2,-8.576714630E0,-3.968697052E0,9.450529812E0
1.658158275E1,-4.969665527E-2,-8.553512878E0,-4.094585266E0,9.483178835E0
