"Time (s)","Acceleration x (m/s^2)","Acceleration y (m/s^2)","Acceleration z (m/s^2)","Absolute acceleration (m/s^2)"
1.679708366E-3,-5.476661224E0,1.278491364E0,8.362210693E0,1.007744640E1
1.173570834E-2,-5.447172546E0,1.292861481E0,8.161927185E0,9.897486294E0
2.179270837E-2,-5.408103790E0,1.223256226E0,7.801925812E0,9.571519669E0
3.184970835E-2,-5.350174255E0,1.250798950E0,7.457941132E0,9.263355143E0
4.190570838E-2,-5.492528229E0,1.381327515E0,7.353159027E0,9.281426600E0
5.196270836E-2,-5.563929749E0,1.539099426E0,7.688611450E0,9.614618418E0
6.201870833E-2,-5.495522003E0,1.572629700E0,8.273145905E0,1.005578786E1
7.207570836E-2,-5.379213867E0,1.518741760E0,9.035061493E0,1.062425783E1
8.213170833E-2,-5.378315735E0,1.448986816E0,9.789342957E0,1.126308477E1
9.218870837E-2,-5.411396942E0,1.309925995E0,1.022882904E1,1.164594636E1
1.022447083E-1,-5.158722382E0,9.244775391E-1,1.000863693E1,1.129778246E1
1.123015833E-1,-4.972210236E0,4.496649170E-1,9.240883484E0,1.050328523E1
1.223585833E-1,-5.062472534E0,2.326162720E-1,8.376281433E0,9.790037239E0
1.324145833E-1,-5.724396057E0,1.814227295E-1,7.817194061E0,9.690724814E0
1.424715833E-1,-6.104755096E0,2.796185303E-1,7.293882294E0,9.515615599E0
1.525275834E-1,-6.368806000E0,4.281097412E-1,7.265740814E0,9.671398937E0
1.625845833E-1,-6.819668427E0,4.896318054E-1,7.613467712E0,1.023291295E1
1.726405834E-1,-7.192692719E0,4.731660461E-1,7.796986084E0,1.061846065E1
1.826975833E-1,-7.339387665E0,4.242178345E-1,7.873027954E0,1.077177521E1
1.927535834E-1,-7.629933472E0,3.689826965E-1,7.755073242E0,1.088545791E1
2.028105833E-1,-8.100405121E0,2.501298523E-1,7.625293121E0,1.112763332E1
2.128665834E-1,-8.316855011E0,1.103205872E-1,7.443720703E0,1.116204398E1
2.229235834E-1,-7.733368378E0,-7.828720093E-2,7.013066254E0,1.044002939E1
2.329805833E-1,-7.187902679E0,-5.129832458E-1,6.633455658E0,9.794479604E0
2.430365834E-1,-7.052733765E0,-8.425978088E-1,6.453230438E0,9.596624808E0
2.530935833E-1,-7.297025757E0,-1.007704468E0,6.333778839E0,9.714875582E0
2.631495834E-1,-7.606432343E0,-9.665400696E-1,6.164031830E0,9.838053725E0
2.732065833E-1,-7.901618500E0,-8.110134888E-1,5.913752289E0,9.902816969E0
2.832625834E-1,-8.307274933E0,-5.957611084E-1,5.764812012E0,1.012910685E1
2.933195833E-1,-8.261470184E0,-3.944297791E-1,5.596711578E0,9.986523166E0
3.033755834E-1,-7.928263092E0,-2.240840149E-1,5.411247253E0,9.601518950E0
3.134325834E-1,-7.685467987E0,-2.525248718E-1,5.072501678E0,9.211973744E0
3.234895833E-1,-7.631280670E0,-2.538720703E-1,4.933440857E0,9.090639933E0
3.335455834E-1,-7.664960632E0,-2.317181396E-1,4.915478210E0,9.108635509E0
3.436025833E-1,-7.479047241E0,-2.315684509E-1,4.930297394E0,8.960893034E0
3.536585834E-1,-7.242239685E0,-1.983375549E-1,5.011428680E0,8.809301383E0
3.637155833E-1,-7.108867035E0,-1.678010559E-1,5.102738800E0,8.752262049E0
3.737715834E-1,-6.991810455E0,-1.695973206E-1,5.595514069E0,8.956782591E0
3.838285833E-1,-6.406976624E0,-6.706054688E-2,6.690187683E0,9.263501379E0
3.938845834E-1,-5.313201141E0,-2.845582581E-1,6.380481720E0,8.307925538E0
4.039415834E-1,-4.823120270E0,-5.631289673E-1,6.475534058E0,8.093957296E0
4.139975833E-1,-5.334606628E0,-7.038363647E-1,6.359974365E0,8.330827536E0
4.240545834E-1,-8.342302094E0,-4.423301697E-1,5.971232758E0,1.026865526E1
4.341115833E-1,-8.936117249E0,-4.258644104E-1,6.117328949E0,1.083777032E1
4.441675834E-1,-8.001909943E0,-9.318122864E-1,5.959706726E0,1.002082537E1
4.542245833E-1,-6.160289612E0,-1.642684021E0,6.481371918E0,9.091521370E0
4.642805834E-1,-4.547992401E0,-2.073787537E0,7.235653381E0,8.794288458E0
4.743375833E-1,-4.274660797E0,-2.065554657E0,7.937094727E0,9.248606039E0
4.843935834E-1,-4.360133057E0,-1.828298035E0,8.658444672E0,9.865196304E0
4.944505834E-1,-4.442461853E0,-1.591640167E0,9.289083252E0,1.041901403E1
5.045065833E-1,-4.217330017E0,-1.382824402E0,9.628577271E0,1.060224392E1
5.145635834E-1,-3.857777710E0,-1.255289612E0,9.443711700E0,1.027822414E1
5.246205833E-1,-3.706891479E0,-1.221609650E0,9.038204956E0,9.844923738E0
5.346765834E-1,-3.889062653E0,-1.130000153E0,8.523126068E0,9.436386312E0
5.447335833E-1,-4.049229584E0,-9.958790588E-1,8.071814575E0,9.085275222E0
5.547895834E-1,-4.044140167E0,-8.509803772E-1,7.738757172E0,8.773118024E0
5.648465834E-1,-3.804787903E0,-7.613168335E-1,7.845036163E0,8.752177255E0
5.749025833E-1,-3.570375366E0,-7.702981567E-1,8.602760468E0,9.346038047E0
5.849595834E-1,-3.353925476E0,-8.478369141E-1,9.458231506E0,1.007103703E1
5.950155833E-1,-2.926115112E0,-1.070124664E0,1.003049149E1,1.050324121E1
6.050725834E-1,-3.065475311E0,-1.195563812E0,1.021969803E1,1.073632803E1
6.151285833E-1,-3.215613098E0,-1.185085602E0,1.001462448E1,1.058476731E1
6.251855834E-1,-3.394042053E0,-1.141825562E0,9.634415131E0,1.027838713E1
6.352425833E-1,-3.528462524E0,-1.034199371E0,9.288933563E0,9.990190332E0
6.452985834E-1,-3.454965363E0,-8.792715454E-1,8.988657990E0,9.669843668E0
6.553555834E-1,-3.281326447E0,-7.728428650E-1,8.818761292E0,9.441130232E0
6.654115833E-1,-3.162024536E0,-7.943980408E-1,8.903934174E0,9.482062602E0
6.754685834E-1,-3.257226562E0,-9.122030640E-1,9.120084686E0,9.727157036E0
6.855245833E-1,-3.416345673E0,-9.592053223E-1,9.265582123E0,9.921819625E0
6.955815834E-1,-3.473826141E0,-9.422904968E-1,9.319769440E0,9.990669740E0
7.056375833E-1,-3.477268982E0,-8.864566040E-1,9.288783875E0,9.957846692E0
7.156945834E-1,-3.523073730E0,-7.999365234E-1,9.163344727E0,9.849813883E0
7.257505833E-1,-3.434907074E0,-7.378157043E-1,9.005123749E0,9.666189133E0
7.358075834E-1,-3.425476685E0,-7.071295166E-1,8.827892303E0,9.495557129E0
7.458645834E-1,-3.434907074E0,-7.276368713E-1,8.777596893E0,9.453795494E0
7.559205833E-1,-3.447929993E0,-7.191046143E-1,8.864566040E0,9.538651045E0
7.659775834E-1,-3.448379059E0,-7.301815796E-1,8.954528961E0,9.623308796E0
7.760335833E-1,-3.443439331E0,-7.488926697E-1,8.992849274E0,9.658646526E0
7.860905834E-1,-3.426674194E0,-7.590715027E-1,9.066945190E0,9.722539826E0
7.961465833E-1,-3.341501312E0,-7.661068726E-1,9.136400757E0,9.758399948E0
8.062035834E-1,-3.305875397E0,-7.818241882E-1,9.131161652E0,9.742595871E0
8.162595833E-1,-3.329975281E0,-7.940986633E-1,9.100924530E0,9.723484733E0
8.263165834E-1,-3.296894073E0,-8.072712708E-1,9.110654297E0,9.722408094E0
8.363735834E-1,-3.260669403E0,-8.189469910E-1,9.135352936E0,9.734336772E0
8.464295833E-1,-3.235970764E0,-8.271798706E-1,9.157955933E0,9.748019809E0
8.564865834E-1,-3.241509247E0,-8.370593262E-1,9.175469513E0,9.767153695E0
8.665425833E-1,-3.168161774E0,-8.243357849E-1,9.183253326E0,9.749303573E0
8.765995834E-1,-3.086880798E0,-8.128097534E-1,9.184600525E0,9.723496262E0
8.866555833E-1,-3.053051147E0,-8.277786255E-1,9.149423676E0,9.680820851E0
8.967125834E-1,-3.065325623E0,-8.340655518E-1,9.113348694E0,9.651166299E0
9.067685833E-1,-3.056044922E0,-8.123606873E-1,9.087751923E0,9.622191822E0
9.168255833E-1,-2.997516632E0,-7.972421265E-1,9.025631104E0,9.543726619E0
9.268815833E-1,-2.981949005E0,-7.867639160E-1,8.999585266E0,9.513335498E0
9.369385833E-1,-2.993325348E0,-8.231382751E-1,9.073381805E0,9.589776361E0
9.469955834E-1,-2.974614258E0,-8.526269531E-1,9.127569122E0,9.637832785E0
9.570515833E-1,-2.950364685E0,-8.644523621E-1,9.094936981E0,9.600510838E0
9.671085834E-1,-2.973716125E0,-8.860075378E-1,9.119336243E0,9.632771691E0
9.771645833E-1,-3.018922119E0,-9.113049316E-1,9.176217957E0,9.702955396E0
9.872215834E-1,-3.038082275E0,-9.476792908E-1,9.275611267E0,9.806375698E0
9.972775833E-1,-3.036585388E0,-9.642947388E-1,9.282047882E0,9.813619518E0
1.007334583E0,-3.037782898E0,-9.773176575E-1,9.258397064E0,9.792915344E0
1.017390583E0,-3.099903717E0,-9.816586304E-1,9.223669281E0,9.780037409E0
1.027447583E0,-3.150797882E0,-9.855505371E-1,9.151070251E0,9.728356691E0
1.037504583E0,-3.175346832E0,-9.672885132E-1,9.019942932E0,9.611339401E0
1.047560583E0,-3.149001617E0,-9.512718201E-1,8.985963593E0,9.569152050E0
1.057617583E0,-3.139421539E0,-9.389973450E-1,9.009015656E0,9.586451205E0
1.067673583E0,-3.114573212E0,-9.078620911E-1,9.055868225E0,9.619434972E0
1.077730583E0,-3.104095001E0,-9.033714294E-1,9.064699860E0,9.623942501E0
1.087786583E0,-3.111280060E0,-9.469308472E-1,9.039701843E0,9.606922039E0
1.097843583E0,-3.105442200E0,-9.741741943E-1,9.005572815E0,9.575652894E0
1.107899583E0,-3.091970215E0,-9.940827942E-1,9.026080170E0,9.592632779E0
1.117956292E0,-3.074606323E0,-1.005159760E0,9.048383789E0,9.609203889E0
1.128012292E0,-3.063080292E0,-1.003213806E0,9.064101105E0,9.620126176E0
1.138069292E0,-3.046315155E0,-1.009650421E0,9.079219666E0,9.629727916E0
1.148126292E0,-3.038531342E0,-1.031804352E0,9.093140717E0,9.642743439E0
1.158182292E0,-3.043620758E0,-1.037941589E0,9.085656281E0,9.637951033E0
1.168239292E0,-3.031645660E0,-1.050964508E0,9.098230133E0,9.647444914E0
1.178295292E0,-3.018023987E0,-1.039288788E0,9.090446320E0,9.634563003E0
1.188352292E0,-2.986439667E0,-1.022373962E0,9.113049316E0,9.644259341E0
1.198408292E0,-2.956801300E0,-1.037642212E0,9.232949982E0,9.750217467E0
1.208465292E0,-2.957400055E0,-1.058448944E0,9.359137573E0,9.872182401E0
1.218521292E0,-2.952310638E0,-1.075663147E0,9.417815552E0,9.928163933E0
1.228578292E0,-2.965632935E0,-1.125210114E0,9.427994385E0,9.947268702E0
1.238634292E0,-2.934946747E0,-1.152303772E0,9.401649170E0,9.916285772E0
1.248691292E0,-2.888094177E0,-1.156495056E0,9.335037689E0,9.839791535E0
1.258748292E0,-2.876717834E0,-1.144969025E0,9.278904419E0,9.781846798E0
1.268804292E0,-2.876568146E0,-1.149609375E0,9.225166168E0,9.731389256E0
1.278861292E0,-2.834206238E0,-1.172811127E0,9.178163910E0,9.677133031E0
1.288917292E0,-2.854563904E0,-1.197958832E0,9.215885468E0,9.721943499E0
1.298974292E0,-2.888842621E0,-1.207838287E0,9.247170410E0,9.762911738E0
1.309030292E0,-2.922971649E0,-1.227148132E0,9.260492706E0,9.788073404E0
1.319087292E0,-2.965632935E0,-1.241368561E0,9.242530060E0,9.785721052E0
1.329143292E0,-2.993924103E0,-1.233884125E0,9.206305389E0,9.759206448E0
1.339200292E0,-2.985541534E0,-1.182540894E0,9.193881226E0,9.738547798E0
1.349257292E0,-2.971919861E0,-1.155896301E0,9.227561188E0,9.763006166E0
1.359313292E0,-3.000211029E0,-1.137035522E0,9.248966675E0,9.789662944E0
1.369370292E0,-3.002456360E0,-1.122366028E0,9.259893951E0,9.798983911E0
1.379426292E0,-3.003504181E0,-1.110989685E0,9.265282745E0,9.803101540E0
1.389483292E0,-3.018173676E0,-1.091979218E0,9.277856598E0,9.817352698E0
1.399539292E0,-2.992876282E0,-1.054856415E0,9.283694458E0,9.811065859E0
1.409596292E0,-2.957250366E0,-1.028062134E0,9.302555237E0,9.815282748E0
1.419652292E0,-2.912493439E0,-1.003064117E0,9.366472321E0,9.859997940E0
1.429709292E0,-2.880160675E0,-9.987231445E-1,9.407337341E0,9.888921543E0
1.439766292E0,-2.878514099E0,-9.870474243E-1,9.403595123E0,9.883709186E0
1.449822292E0,-2.869682465E0,-9.894424438E-1,9.383087769E0,9.861866450E0
1.459879292E0,-2.857857056E0,-9.982740784E-1,9.384434967E0,9.860604329E0
1.469935292E0,-2.847827911E0,-9.976753235E-1,9.369017029E0,9.842964998E0
1.479992292E0,-2.838996277E0,-9.964778137E-1,9.338929596E0,9.811649907E0
1.490048292E0,-2.837649078E0,-9.880952454E-1,9.288933563E0,9.762831108E0
1.500105292E0,-2.831511841E0,-9.858499146E-1,9.245673523E0,9.719662456E0
1.510161292E0,-2.865341492E0,-1.008153534E0,9.203012238E0,9.691335804E0
1.520218292E0,-2.874322815E0,-1.034199371E0,9.192084961E0,9.686368046E0
1.530274292E0,-2.879561920E0,-1.053808594E0,9.192833405E0,9.690746896E0
1.540331292E0,-2.876717834E0,-1.076411591E0,9.186696167E0,9.686565639E0
1.550388292E0,-2.869383087E0,-1.086740112E0,9.173224182E0,9.672766164E0
1.560444292E0,-2.891836395E0,-1.081351318E0,9.129215698E0,9.637147798E0
1.570501292E0,-2.908302155E0,-1.079555054E0,9.085506592E0,9.600525536E0
1.580557292E0,-2.886896667E0,-1.071022797E0,9.076674957E0,9.584742588E0
1.590614292E0,-2.877166901E0,-1.058598633E0,9.076375580E0,9.580152092E0
1.600670292E0,-2.878065033E0,-1.035546570E0,9.110504608E0,9.610250218E0
1.610727292E0,-2.911595306E0,-1.029409332E0,9.144933014E0,9.652298723E0
1.620783292E0,-2.921025696E0,-1.036893768E0,9.161398773E0,9.671544204E0
1.630840292E0,-2.900967407E0,-1.016685791E0,9.161847839E0,9.663783820E0
1.640896292E0,-2.883004761E0,-9.955796814E-1,9.182504883E0,9.675809593E0
1.650953292E0,-2.856210480E0,-9.678872681E-1,9.209897919E0,9.691076501E0
1.661010292E0,-2.864443359E0,-9.476792908E-1,9.251511383E0,9.731063388E0
1.671066292E0,-2.853516083E0,-9.265731812E-1,9.253457336E0,9.727670048E0
1.681123292E0,-2.844235382E0,-9.217831421E-1,9.217981110E0,9.690744801E0
1.691179292E0,-2.882705383E0,-9.051676941E-1,9.207203522E0,9.690300076E0
1.701236292E0,-2.868185577E0,-8.749305725E-1,9.185498657E0,9.662576137E0
1.711292292E0,-2.838696899E0,-8.526269531E-1,9.165140991E0,9.632496156E0
1.721349292E0,-2.808459778E0,-8.394543457E-1,9.188342743E0,9.644572167E0
1.731405292E0,-2.834954681E0,-8.622070313E-1,9.244026947E0,9.707337596E0
1.741462292E0,-2.852468262E0,-8.984317017E-1,9.277706909E0,9.747799762E0
1.751518292E0,-2.862048340E0,-9.398954773E-1,9.359287262E0,9.832140269E0
1.761575292E0,-2.845582581E0,-9.722282410E-1,9.449399872E0,9.916336315E0
1.771632292E0,-2.803669739E0,-1.002165985E0,9.510173492E0,9.965355012E0
1.781688292E0,-2.773881683E0,-1.011895752E0,9.509425049E0,9.957284638E0
1.791745292E0,-2.749033356E0,-1.014889526E0,9.488917694E0,9.931099846E0
1.801801292E0,-2.709515533E0,-1.026864624E0,9.448950806E0,9.883248287E0
1.811858292E0,-2.699785767E0,-1.045126648E0,9.454938354E0,9.888224926E0
1.821914292E0,-2.688110046E0,-1.058748322E0,9.439670105E0,9.871892185E0
1.831971292E0,-2.646795959E0,-1.065634003E0,9.385931854E0,9.810036771E0
1.842027292E0,-2.641257477E0,-1.068777466E0,9.312734070E0,9.738867603E0
1.852084292E0,-2.621797943E0,-1.087787933E0,9.257199554E0,9.682605570E0
1.862140292E0,-2.624043274E0,-1.086590424E0,9.258397064E0,9.684224184E0
1.872197292E0,-2.609523468E0,-1.072070618E0,9.291478271E0,9.710330407E0
1.882254292E0,-2.619851990E0,-1.055155792E0,9.336384888E0,9.754232977E0
1.892310292E0,-2.611170044E0,-1.041384430E0,9.343120880E0,9.756874413E0
1.902367292E0,-2.618504791E0,-1.007405090E0,9.337582397E0,9.749968071E0
1.912423292E0,-2.572700043E0,-9.758207703E-1,9.326206055E0,9.723637748E0
1.922480292E0,-2.527494049E0,-9.595046997E-1,9.304501190E0,9.689304301E0
1.932536292E0,-2.510579224E0,-9.330097961E-1,9.205257568E0,9.586985043E0
1.942593292E0,-2.483784943E0,-9.000782776E-1,9.116043091E0,9.491131133E0
1.952649292E0,-2.426903229E0,-8.804690552E-1,9.099577332E0,9.458720455E0
1.962706292E0,-2.407593384E0,-9.068142700E-1,9.128467255E0,9.484077838E0
1.972763292E0,-2.417622528E0,-9.464817810E-1,9.234746246E0,9.592771481E0
1.982819292E0,-2.466870117E0,-9.889933777E-1,9.322912903E0,9.694341704E0
1.992876292E0,-2.545606384E0,-1.043031006E0,9.348359985E0,9.744734987E0
2.002932292E0,-2.583777008E0,-1.072070618E0,9.358688507E0,9.767819082E0
2.012989292E0,-2.572550354E0,-1.113085327E0,9.348509674E0,9.759692997E0
2.023045292E0,-2.489323425E0,-1.193767548E0,9.188941498E0,9.594709893E0
2.033102292E0,-2.202519836E0,-1.340163116E0,8.718619537E0,9.091834658E0
2.043158292E0,-2.221380615E0,-1.218615875E0,8.997938690E0,9.347858426E0
2.053215292E0,-2.769091644E0,-1.107397156E0,9.471254425E0,9.929695734E0
2.063271292E0,-2.608924713E0,-1.328038330E0,9.439670105E0,9.883195114E0
2.073328292E0,-2.509980469E0,-1.641336823E0,9.390272827E0,9.857545957E0
2.083385292E0,-2.579585724E0,-1.701212311E0,9.418863373E0,9.912788360E0
2.093441292E0,-2.133064270E0,-1.583856354E0,9.386231232E0,9.754993637E0
2.103498292E0,-2.330503693E0,-1.610051880E0,9.771529999E0,1.017380524E1
2.113554333E0,-2.596051483E0,-1.753603363E0,9.827812958E0,1.031506256E1
2.123611333E0,-2.369123383E0,-1.769620056E0,9.839488678E0,1.027423176E1
2.133667333E0,-2.240690460E0,-1.811383209E0,9.768835602E0,1.018488841E1
2.143724333E0,-2.182910614E0,-1.822609863E0,9.442663879E0,9.861587428E0
2.153780333E0,-2.192490692E0,-1.851948853E0,9.125323792E0,9.565995206E0
2.163837333E0,-1.993704071E0,-1.864373016E0,8.831335144E0,9.243550351E0
2.173893333E0,-1.352437592E0,-1.738185425E0,9.090146942E0,9.353135701E0
2.183950333E0,-9.214837646E-1,-1.724114685E0,9.821376343E0,1.001404699E1
2.194007333E0,-1.482666779E0,-2.010618896E0,9.999356232E0,1.030669754E1
2.204063333E0,-1.715881805E0,-2.209854584E0,1.028421387E1,1.065799055E1
2.214120333E0,-1.711091766E0,-2.397564240E0,1.026011398E1,1.067455331E1
2.224176333E0,-1.651665344E0,-2.571801910E0,9.953252106E0,1.041198305E1
2.234233333E0,-1.622925110E0,-2.669398956E0,9.912237396E0,1.039288347E1
2.244289333E0,-1.699715424E0,-2.573897552E0,1.012748978E1,1.058678565E1
2.254346333E0,-1.769769745E0,-2.472707977E0,1.015877472E1,1.060410644E1
2.264402333E0,-1.840722198E0,-2.451751556E0,1.006147705E1,1.051820633E1
2.274459333E0,-1.938019867E0,-2.396815796E0,9.917326813E0,1.038527891E1
2.284516333E0,-1.880240021E0,-2.206411743E0,9.743987274E0,1.016606331E1
2.294572333E0,-1.313518524E0,-1.682052155E0,9.464967499E0,9.702589351E0
2.304629333E0,-8.015830994E-1,-1.367406464E0,9.413025513E0,9.545542688E0
2.314685333E0,-7.550299072E-1,-1.821262665E0,9.541009369E0,9.742583211E0
2.324742333E0,-4.894821167E-1,-2.028431854E0,9.455237732E0,9.682750079E0
2.334798333E0,-7.074288940E-1,-2.214345245E0,9.912237396E0,1.018117040E1
2.344855333E0,-8.134085083E-1,-2.334694977E0,9.323960724E0,9.646174248E0
2.354911333E0,-1.084943848E0,-2.361938324E0,9.437275085E0,9.788667776E0
2.364968333E0,-1.160386963E0,-2.360142059E0,9.614207153E0,9.967434355E0
2.375024333E0,-8.123606873E-1,-2.416874084E0,9.667646027E0,9.998229339E0
2.385081333E0,-3.673361206E-1,-2.441572723E0,9.708061981E0,1.001711938E1
2.395138333E0,-3.583547974E-1,-2.603984985E0,1.005159760E1,1.038959913E1
2.405194333E0,-4.433779907E-1,-2.974763947E0,1.046967819E1,1.089311553E1
2.415251333E0,-1.317260742E-1,-3.342249756E0,1.079869400E1,1.130485636E1
2.425307333E0,3.576063538E-1,-3.534150696E0,1.096514786E1,1.152616896E1
2.435364333E0,5.704637146E-1,-3.410956879E0,1.098849930E1,1.151985992E1
2.445420333E0,5.882766724E-1,-2.583477631E0,1.131392258E1,1.162003744E1
2.455477333E0,5.628295898E-1,-2.407743073E0,1.115495316E1,1.142571590E1
2.465533333E0,6.285429382E-1,-2.657872925E0,1.084584595E1,1.118444138E1
2.475590333E0,5.990542603E-1,-2.519410858E0,1.082399139E1,1.112946929E1
2.485646333E0,5.511538696E-1,-2.481090546E0,1.087189178E1,1.116501732E1
2.495703333E0,6.463558960E-1,-2.440524902E0,1.085018692E1,1.114004012E1
2.505760333E0,7.553292847E-1,-2.253863068E0,1.090587112E1,1.116191946E1
2.515816333E0,7.301815796E-1,-2.064656525E0,1.084629501E1,1.106517452E1
2.525873333E0,7.481442261E-1,-1.868863678E0,1.066696793E1,1.085525568E1
2.535929333E0,8.015830994E-1,-1.709594879E0,1.050784882E1,1.067614803E1
2.545986333E0,9.774673462E-1,-1.609153748E0,1.033046768E1,1.050063716E1
2.556042333E0,1.222507782E0,-1.459015961E0,1.014934433E1,1.032629862E1
2.566099333E0,1.285377045E0,-1.270258484E0,9.896370392E0,1.006001480E1
2.576155333E0,1.128203888E0,-1.169817352E0,9.511969757E0,9.649812709E0
2.586212333E0,7.924520874E-1,-8.301736450E-1,9.580676880E0,9.649172921E0
2.596269333E0,4.746629333E-1,-5.054988098E-1,9.722132721E0,9.746830182E0
2.606325333E0,6.634204102E-1,-3.547622681E-1,9.471254425E0,9.501086427E0
2.616382333E0,1.052012329E0,-5.688171387E-2,8.942703552E0,9.004549533E0
2.626438333E0,1.327738953E0,3.126997375E-1,8.386460266E0,8.496669209E0
2.636495333E0,1.232087860E0,7.411088562E-1,8.173153839E0,8.298658115E0
2.646551333E0,1.128503265E0,9.695338440E-1,8.076754303E0,8.212641205E0
2.656608333E0,1.008901978E0,1.182241516E0,7.988138580E0,8.137931935E0
2.666664333E0,1.006506958E0,1.545086975E0,8.015830994E0,8.225198875E0
2.676721333E0,1.452130280E0,1.786983948E0,8.171207886E0,8.489442402E0
2.686777333E0,1.889221344E0,1.838776245E0,8.293054504E0,8.702011743E0
2.696834333E0,1.766177216E0,1.971400452E0,8.126750336E0,8.546921827E0
2.706891333E0,1.831142120E0,1.908381500E0,8.122109985E0,8.541877547E0
2.716947333E0,1.917512512E0,1.758842468E0,8.187224579E0,8.590752433E0
2.727004333E0,1.917662201E0,1.686542816E0,8.196804657E0,8.585421456E0
2.737060333E0,2.001637573E0,1.720821533E0,8.093968506E0,8.513524881E0
2.747117333E0,2.145638123E0,1.850601654E0,7.899223480E0,8.392033188E0
2.757173333E0,2.149679718E0,2.162403259E0,7.489824829E0,8.086691951E0
2.767230333E0,2.072889404E0,2.627037048E0,6.864275665E0,7.636522412E0
2.777286333E0,2.016307068E0,3.035986633E0,6.072871399E0,7.082547286E0
2.787343333E0,2.185605011E0,3.408412170E0,5.232668610E0,6.616265077E0
2.797399333E0,2.334096222E0,3.862418060E0,4.458927612E0,6.344155885E0
2.807456333E0,2.371219025E0,4.180057526E0,3.799848175E0,6.126533011E0
2.817513333E0,2.136058044E0,4.376449127E0,3.080294495E0,5.762314214E0
2.827569333E0,1.826202393E0,4.509372711E0,2.417472839E0,5.432645061E0
2.837626333E0,1.304387512E0,4.487967224E0,2.114053802E0,5.129571139E0
2.847682333E0,1.135388947E0,4.421206055E0,1.696571960E0,4.869756406E0
2.857739333E0,1.334624634E0,4.374652863E0,1.306333466E0,4.756607794E0
2.867795333E0,1.694626007E0,4.277654572E0,9.925859070E-1,4.706943033E0
2.877852333E0,2.324366455E0,3.934867401E0,8.684939575E-1,4.651896671E0
2.887908333E0,2.781964874E0,3.665577393E0,7.803273010E-1,4.667407940E0
2.897965333E0,3.270249481E0,3.409909058E0,7.369175720E-1,4.781742251E0
2.908022333E0,3.793261871E0,3.149450684E0,5.947132874E-1,4.966040589E0
2.918078333E0,4.450994110E0,3.015928345E0,3.827540588E-1,5.390145918E0
2.928135333E0,5.015021210E0,3.007695465E0,6.631210327E-2,5.848167836E0
2.938191333E0,5.345833282E0,3.096610565E0,-3.591032410E-1,6.188366959E0
2.948248333E0,5.542224884E0,3.144061890E0,-8.114625549E-1,6.423383323E0
2.958304333E0,5.323230286E0,3.104095001E0,-1.373094635E0,6.313285621E0
2.968361333E0,5.101241913E0,3.037483521E0,-2.078128510E0,6.290277680E0
2.978417333E0,4.854255524E0,2.734363861E0,-2.682870941E0,6.183715623E0
2.988474333E0,4.633614349E0,2.029180298E0,-3.242706757E0,6.008585668E0
2.998530333E0,4.658911743E0,1.375190277E0,-4.011807404E0,6.300095680E0
3.008587333E0,4.448000336E0,1.081201630E0,-4.734504547E0,6.585532420E0
3.018644333E0,4.377646637E0,1.054257660E0,-5.390889587E0,7.024025899E0
3.028700333E0,4.137545929E0,1.046324158E0,-6.198609924E0,7.525745515E0
3.038757333E0,3.832480316E0,8.123606873E-1,-6.984775085E0,8.008427951E0
3.048813333E0,4.012705536E0,9.355545044E-2,-7.511080627E0,8.516272103E0
3.058870333E0,4.373904419E0,-8.619076538E-1,-7.649842072E0,8.854039100E0
3.068926333E0,4.820575562E0,-1.960772552E0,-7.519163818E0,9.144419187E0
3.078983333E0,5.688620453E0,-3.322341156E0,-7.059020691E0,9.655471326E0
3.089039333E0,6.898105316E0,-4.627776489E0,-6.184090118E0,1.035582651E1
3.099096333E0,8.237819366E0,-5.756279755E0,-5.204377441E0,1.131733048E1
3.109152333E0,1.006147705E1,-6.835834808E0,-4.254303131E0,1.288646783E1
3.119209292E0,1.229333588E1,-7.741301880E0,-3.312761078E0,1.490061233E1
3.129266292E0,1.389500519E1,-8.402027893E0,-2.372566223E0,1.641018929E1
3.139322292E0,1.468985229E1,-8.634195099E0,-1.718875580E0,1.712587571E1
3.149379292E0,1.489043518E1,-8.575068054E0,-1.655257874E0,1.726258181E1
3.159435292E0,1.494552063E1,-8.842412109E0,-1.882635040E0,1.746714497E1
3.169492292E0,1.517259842E1,-9.505982208E0,-2.224374390E0,1.804215292E1
3.179548292E0,1.549592606E1,-1.016356476E1,-2.656226349E0,1.872103927E1
3.189605292E0,1.578572342E1,-1.079225739E1,-3.034040680E0,1.936148977E1
3.199661292E0,1.582434311E1,-1.117052078E1,-3.225043488E0,1.963647817E1
3.209718292E0,1.589948685E1,-1.132305359E1,-3.255729675E0,1.978901211E1
3.219774292E0,1.607207794E1,-1.119566849E1,-3.139571228E0,1.983712655E1
3.229831292E0,1.631741776E1,-1.093565918E1,-3.027154999E0,1.987486934E1
3.239888292E0,1.646710648E1,-1.063508423E1,-2.963237915E0,1.982552373E1
3.249944292E0,1.655482407E1,-1.043090881E1,-2.949316864E0,1.978798950E1
3.260001292E0,1.660931076E1,-1.027792694E1,-2.900817719E0,1.974638523E1
3.270057292E0,1.648641632E1,-9.793384552E0,-2.663261719E0,1.935988810E1
3.280114292E0,1.612895966E1,-8.934171295E0,-2.317630463E0,1.858316892E1
3.290170292E0,1.579245941E1,-8.090974731E0,-2.028431854E0,1.786001630E1
3.300227292E0,1.545521072E1,-7.379953308E0,-1.968556366E0,1.723956100E1
3.310283292E0,1.486633530E1,-6.677314453E0,-2.073937225E0,1.642850173E1
3.320340292E0,1.425291092E1,-6.044430542E0,-2.162253571E0,1.563188891E1
3.330396292E0,1.375908783E1,-5.548362122E0,-2.376158752E0,1.502474461E1
3.340453292E0,1.330029190E1,-5.208868103E0,-2.752476196E0,1.454669023E1
3.350510292E0,1.286140457E1,-4.896168365E0,-3.120261383E0,1.411113827E1
3.360566292E0,1.242985199E1,-4.599934387E0,-3.479065247E0,1.370271914E1
3.370623292E0,1.204096069E1,-4.321663055E0,-3.834875336E0,1.335543990E1
3.380679292E0,1.174113419E1,-4.085005188E0,-4.222569122E0,1.312903612E1
3.390736292E0,1.148022675E1,-3.888613586E0,-4.602778473E0,1.296543449E1
3.400792292E0,1.116034195E1,-3.709136810E0,-4.908742218E0,1.274388789E1
3.410849292E0,1.077264816E1,-3.558699646E0,-5.131778412E0,1.245188505E1
3.420905292E0,1.038016434E1,-3.399131470E0,-5.267995148E0,1.212656915E1
3.430962292E0,9.985884247E0,-3.318898315E0,-5.298980713E0,1.178185753E1
3.441018292E0,9.708361359E0,-3.284918976E0,-5.261109467E0,1.152051413E1
3.451075292E0,9.558972015E0,-3.319796448E0,-5.203778687E0,1.137867774E1
3.461132292E0,9.455686798E0,-3.382516022E0,-5.107828217E0,1.126682460E1
3.471188292E0,9.445957031E0,-3.466491394E0,-4.969665527E0,1.122231002E1
3.481245292E0,9.279952240E0,-3.265309753E0,-4.844525757E0,1.096581922E1
3.491301292E0,9.127269745E0,-3.044069824E0,-4.762795715E0,1.073581097E1
3.501358292E0,9.082512817E0,-2.887196045E0,-4.729864197E0,1.063952797E1
3.511414292E0,8.995543671E0,-2.692001953E0,-4.724625092E0,1.051136350E1
3.521471292E0,8.943751373E0,-2.455942841E0,-4.741839294E0,1.041668775E1
3.531527292E0,8.975934448E0,-2.267335052E0,-4.756359100E0,1.040822556E1
3.541584292E0,8.994196472E0,-2.049388275E0,-4.784051514E0,1.039147301E1
3.551640292E0,8.876092072E0,-1.809586945E0,-4.816683655E0,1.025963239E1
3.561697292E0,8.748706970E0,-1.579365692E0,-4.783752136E0,1.009547196E1
3.571754292E0,8.644074554E0,-1.430425415E0,-4.652175751E0,9.920125049E0
3.581810292E0,8.608448639E0,-1.292262726E0,-4.493655396E0,9.796339609E0
3.591867292E0,8.639134827E0,-1.237626343E0,-4.358636169E0,9.755207777E0
3.601923292E0,8.754395142E0,-1.304387512E0,-4.252806244E0,9.819736352E0
3.611980292E0,9.013506317E0,-1.528471527E0,-4.199517059E0,1.006058969E1
3.622036292E0,9.411079559E0,-1.970801697E0,-4.262386322E0,1.051762402E1
3.632093292E0,9.923613739E0,-2.650089111E0,-4.400998077E0,1.117451860E1
3.642149292E0,1.049961594E1,-3.449127502E0,-4.575535126E0,1.196135181E1
3.652206292E0,1.087428680E1,-4.002676392E0,-4.691394196E0,1.250122839E1
3.662262292E0,1.098834961E1,-4.166585541E0,-4.716990967E0,1.266310649E1
3.672319292E0,1.100257004E1,-4.071383514E0,-4.645140381E0,1.261784610E1
3.682376292E0,1.092967163E1,-3.695215759E0,-4.535568237E0,1.239692384E1
3.692432292E0,1.088686066E1,-3.248544617E0,-4.411176910E0,1.218750421E1
3.702489292E0,1.068268524E1,-2.895877991E0,-4.432133331E0,1.192265403E1
3.712545292E0,1.060364960E1,-2.797682190E0,-4.644391937E0,1.190944108E1
3.722602292E0,1.056488022E1,-2.906356201E0,-4.848567352E0,1.198216198E1
3.732658292E0,1.029693741E1,-3.112776947E0,-5.111121368E0,1.190965415E1
3.742715292E0,1.001462448E1,-3.373834076E0,-5.255720673E0,1.180245990E1
3.752771292E0,9.835447083E0,-3.685336304E0,-5.296585693E0,1.176314341E1
3.762828292E0,9.668544159E0,-3.999832306E0,-5.220543823E0,1.169330930E1
3.772885292E0,9.635013885E0,-4.430037689E0,-5.104535065E0,1.176923977E1
3.782941292E0,9.724677429E0,-4.929848328E0,-4.976102142E0,1.198475482E1
3.792998292E0,9.811047821E0,-5.378315735E0,-4.791535950E0,1.217134981E1
3.803054292E0,9.816286926E0,-5.731581116E0,-4.579277344E0,1.225480690E1
3.813111292E0,9.867480469E0,-6.010151825E0,-4.378694458E0,1.235564895E1
3.823167292E0,9.882599030E0,-6.282585297E0,-4.228406982E0,1.245054486E1
3.833224292E0,9.858798523E0,-6.467899933E0,-4.114942932E0,1.248849043E1
3.843280292E0,9.803264008E0,-6.598727875E0,-4.054618378E0,1.249348330E1
3.853337292E0,9.701775055E0,-6.683751068E0,-3.997586975E0,1.244096737E1
3.863393292E0,9.591604156E0,-6.717131653E0,-3.958518219E0,1.236076836E1
3.873450292E0,9.447004852E0,-6.703060913E0,-3.894750824E0,1.222072053E1
3.883506292E0,9.261690216E0,-6.615043945E0,-3.827989655E0,1.200796473E1
3.893563292E0,9.104966125E0,-6.528523865E0,-3.781436462E0,1.182460544E1
3.903620292E0,9.004974060E0,-6.509064331E0,-3.753744049E0,1.172808896E1
3.913676292E0,8.793613586E0,-6.439309387E0,-3.687431946E0,1.150606360E1
3.923733292E0,8.571176147E0,-6.330335999E0,-3.619473267E0,1.125339065E1
3.933789292E0,8.444090424E0,-6.255641327E0,-3.487447815E0,1.107239828E1
3.943846292E0,8.143066406E0,-6.124214630E0,-3.418591003E0,1.074719963E1
3.953902292E0,8.098159790E0,-6.127058716E0,-3.460204468E0,1.072818976E1
3.963959292E0,8.099057922E0,-6.167474670E0,-3.468886414E0,1.075479688E1
3.974015292E0,7.970475311E0,-6.155948639E0,-3.448828125E0,1.064512075E1
3.984072292E0,7.805069275E0,-6.086193695E0,-3.393892365E0,1.046323877E1
3.994129292E0,7.680378571E0,-6.088888092E0,-3.331172791E0,1.035178658E1
4.004185292E0,7.537575531E0,-6.086044006E0,-3.323388977E0,1.024206477E1
4.014242292E0,7.542814636E0,-6.170618134E0,-3.430416412E0,1.033142476E1
4.024298292E0,7.543413391E0,-6.245312805E0,-3.509002991E0,1.040288996E1
4.034355292E0,7.416627045E0,-6.234684906E0,-3.515589294E0,1.030713446E1
4.044411292E0,7.254963226E0,-6.168522491E0,-3.526366882E0,1.015482272E1
4.054468292E0,7.131919098E0,-6.111940155E0,-3.603905640E0,1.006022954E1
4.064524292E0,7.065008240E0,-6.091732178E0,-3.700754242E0,1.003589180E1
4.074581292E0,6.996450806E0,-6.096073151E0,-3.803590393E0,1.002894469E1
4.084637292E0,6.901997223E0,-6.089935913E0,-3.908372498E0,1.000001303E1
4.094694292E0,6.808292084E0,-6.107150116E0,-4.011358337E0,9.987047579E0
4.104751292E0,6.722969513E0,-6.123765564E0,-4.084107056E0,9.968889316E0
4.114807292E0,6.621181183E0,-6.147416382E0,-4.114793243E0,9.927854343E0
4.124864292E0,6.476881256E0,-6.135291595E0,-4.161945190E0,9.844469591E0
4.134920292E0,6.341412964E0,-6.130202179E0,-4.228107605E0,9.781093551E0
4.144977292E0,6.245462494E0,-6.184239807E0,-4.359534302E0,9.811022530E0
4.155033292E0,6.188730469E0,-6.279890900E0,-4.538412323E0,9.916380435E0
4.165090292E0,6.131399689E0,-6.377188568E0,-4.703219604E0,1.001912525E1
4.175146292E0,6.073619843E0,-6.446494446E0,-4.839586029E0,1.009295505E1
4.185203292E0,6.065536652E0,-6.538852386E0,-4.947810974E0,1.019941953E1
4.195259292E0,6.151308289E0,-6.647975464E0,-4.993765411E0,1.034272036E1
4.205316292E0,6.356681213E0,-6.934779053E0,-5.154231720E0,1.072681971E1
4.215372292E0,6.555617523E0,-7.292385406E0,-5.315745850E0,1.115401990E1
4.225429292E0,6.596332855E0,-7.527247009E0,-5.328768768E0,1.133873147E1
4.235486292E0,6.536008301E0,-7.572752380E0,-5.141358490E0,1.124720189E1
4.245542292E0,6.355783081E0,-7.316934357E0,-4.679419098E0,1.076245651E1
4.255599292E0,6.108647003E0,-6.782096558E0,-4.061054993E0,9.990223700E0
4.265655292E0,5.791007538E0,-6.079158325E0,-3.491489410E0,9.092988098E0
4.275712292E0,5.507646790E0,-5.304668884E0,-3.005300446E0,8.216174043E0
4.285768292E0,5.383405151E0,-4.560715942E0,-2.735112305E0,7.567167254E0
4.295825292E0,5.411846008E0,-3.907923431E0,-2.624043274E0,7.172555045E0
4.305881292E0,5.585335236E0,-3.473077698E0,-2.735261993E0,7.123194267E0
4.315938292E0,5.866899719E0,-3.393892365E0,-3.127147064E0,7.464453527E0
4.325995292E0,6.123915253E0,-3.619173889E0,-3.693419495E0,8.015117293E0
4.336051292E0,6.278693390E0,-4.070186005E0,-4.284839630E0,8.622543445E0
4.346108292E0,6.358776855E0,-4.556225281E0,-4.803361359E0,9.179624842E0
4.356164292E0,6.418203278E0,-4.977748718E0,-5.147346039E0,9.615949608E0
4.366221292E0,6.430926819E0,-5.281317444E0,-5.338648224E0,9.886875065E0
4.376277292E0,6.430777130E0,-5.486840057E0,-5.359454956E0,1.000919906E1
4.386334292E0,6.578370209E0,-5.530549164E0,-5.259911957E0,1.007614026E1
4.396390292E0,6.963070221E0,-5.457800446E0,-5.165158997E0,1.024454977E1
4.406447292E0,7.571854248E0,-5.175936584E0,-5.039869537E0,1.046535146E1
4.416503292E0,8.047265625E0,-4.705614624E0,-4.784350891E0,1.047813469E1
4.426560292E0,8.327333221E0,-4.210294647E0,-4.625980225E0,1.041492931E1
4.436617292E0,8.722062378E0,-3.758384399E0,-4.763843536E0,1.062516027E1
4.446673292E0,9.061855774E0,-3.475921783E0,-4.740791473E0,1.080159091E1
4.456730292E0,9.324858856E0,-3.379971313E0,-4.744833069E0,1.099502795E1
4.466786292E0,9.402247925E0,-3.349883881E0,-4.707560577E0,1.103562933E1
4.476843292E0,9.347162476E0,-3.296894073E0,-4.532275085E0,1.089864553E1
4.486899292E0,9.239985352E0,-3.244952087E0,-4.339775391E0,1.071170826E1
4.496956292E0,9.204808502E0,-3.244802399E0,-4.142335968E0,1.060265011E1
4.507012292E0,9.369166718E0,-3.304827576E0,-4.052073669E0,1.072951403E1
4.517069292E0,9.646390228E0,-3.362158356E0,-4.012106781E0,1.097515166E1
4.527125292E0,9.851763153E0,-3.292104034E0,-3.947890320E0,1.111220159E1
4.537182292E0,9.982441406E0,-3.189866638E0,-3.922592926E0,1.118977752E1
4.547239292E0,1.002659958E1,-3.080144806E0,-3.861669617E0,1.117732004E1
4.557295292E0,1.000998413E1,-2.964285736E0,-3.820355530E0,1.111673912E1
4.567352292E0,9.995314636E0,-2.841241608E0,-3.764371948E0,1.105212490E1
4.577408292E0,1.003049149E1,-2.778372345E0,-3.707190857E0,1.104868211E1
4.587465292E0,1.010698242E1,-2.684816895E0,-3.666625214E0,1.108167297E1
4.597521292E0,1.020667511E1,-2.536175995E0,-3.653302917E0,1.113350923E1
4.607578292E0,1.032747391E1,-2.362986145E0,-3.607797546E0,1.119181058E1
4.617634292E0,1.058853104E1,-2.146985321E0,-3.681444397E0,1.141400755E1
4.627691292E0,1.101604202E1,-1.878593445E0,-3.878883820E0,1.182911809E1
4.637747292E0,1.135149445E1,-1.659449158E0,-4.066892853E0,1.217168087E1
4.647804292E0,1.150492538E1,-1.505569153E0,-4.227209473E0,1.234906258E1
4.657861292E0,1.151420609E1,-1.437161407E0,-4.296515350E0,1.237345622E1
4.667917292E0,1.139939484E1,-1.491348724E0,-4.225263519E0,1.224839481E1
4.677974292E0,1.113639175E1,-1.634600830E0,-4.058061218E0,1.196490710E1
4.688030292E0,1.097667389E1,-1.845512238E0,-3.792064362E0,1.175895562E1
4.698087292E0,1.110810059E1,-2.318378906E0,-3.511248322E0,1.187828456E1
4.708143292E0,1.160431870E1,-3.065774689E0,-3.419638824E0,1.248010883E1
4.718200292E0,1.240709930E1,-4.151766357E0,-3.569626923E0,1.356154539E1
4.728256292E0,1.308593765E1,-5.426216125E0,-3.644770660E0,1.462771133E1
4.738313292E0,1.324385925E1,-6.400989075E0,-3.461851044E0,1.511148178E1
4.748369292E0,1.284493881E1,-6.585555267E0,-3.071462860E0,1.475790891E1
4.758426292E0,1.216714828E1,-5.909411316E0,-2.598147125E0,1.377356192E1
4.768483292E0,1.152513336E1,-4.895719299E0,-2.146386566E0,1.270447723E1
4.778539292E0,1.116932327E1,-4.108206940E0,-1.750609589E0,1.202895592E1
4.788596292E0,1.099673218E1,-3.639531555E0,-1.427731018E0,1.167102071E1
4.798652292E0,1.077923447E1,-3.564537506E0,-1.521885223E0,1.145486613E1
4.808709292E0,1.089090225E1,-4.074676666E0,-1.911225586E0,1.178420659E1
4.818765292E0,1.083476898E1,-4.575684814E0,-2.120191040E0,1.195091296E1
4.828822292E0,1.062415695E1,-5.391638031E0,-2.539918213E0,1.218169348E1
4.838878292E0,1.029080017E1,-6.293961639E0,-3.067421265E0,1.244683070E1
4.848935292E0,1.008363098E1,-6.534661102E0,-2.469564514E0,1.226703544E1
4.858991292E0,9.855056305E0,-6.312073975E0,-1.951791229E0,1.186481781E1
4.869048292E0,9.945767670E0,-6.332281952E0,-1.527423706E0,1.188903328E1
4.879104292E0,1.010234207E1,-6.542444916E0,-1.828747101E0,1.217395650E1
4.889161292E0,1.019200562E1,-6.431675262E0,-1.633253632E0,1.216186427E1
4.899218292E0,9.950707397E0,-5.946534119E0,-1.463356934E0,1.168414564E1
4.909274292E0,9.741592255E0,-5.662125549E0,-1.428928528E0,1.135782207E1
4.919331292E0,9.617200928E0,-5.494474182E0,-1.474733276E0,1.117383723E1
4.929387292E0,9.467063141E0,-5.280119934E0,-1.552870789E0,1.095063280E1
4.939444292E0,9.267977142E0,-5.148693237E0,-1.675765228E0,1.073371471E1
4.949500292E0,9.174421692E0,-5.168152771E0,-1.819915466E0,1.068606142E1
4.959557292E0,8.897796936E0,-5.212760010E0,-2.057471466E0,1.051555258E1
4.969613292E0,8.718769226E0,-5.460345154E0,-2.400857391E0,1.056392078E1
4.979670292E0,8.525521088E0,-5.629792786E0,-2.599194946E0,1.054205345E1
4.989726292E0,8.224796448E0,-5.805677032E0,-2.797532501E0,1.044889231E1
4.999783292E0,7.996670837E0,-5.984704742E0,-2.947819977E0,1.041408075E1
5.009840292E0,7.747738495E0,-6.123615875E0,-3.084934845E0,1.034615611E1
5.019896292E0,7.491471405E0,-6.089486847E0,-3.124003601E0,1.014708788E1
5.029953292E0,7.313341827E0,-6.076314240E0,-3.120710449E0,1.000726722E1
5.040009292E0,7.277566223E0,-6.096671906E0,-3.061733093E0,9.975298892E0
5.050066292E0,7.143445129E0,-6.070177002E0,-3.024759979E0,9.850128430E0
5.060122292E0,6.942413177E0,-6.023773499E0,-3.058439941E0,9.686950127E0
5.070179292E0,6.780899048E0,-6.002966766E0,-3.145109711E0,9.586861686E0
5.080235292E0,6.642886047E0,-6.029611359E0,-3.256927185E0,9.544198388E0
5.090292292E0,6.509513397E0,-6.102509766E0,-3.354224854E0,9.532324715E0
5.100348292E0,6.336772614E0,-6.143075409E0,-3.417692871E0,9.464284822E0
5.110405292E0,6.175857239E0,-6.137387238E0,-3.431314545E0,9.358560479E0
5.120462542E0,6.033952332E0,-6.075565796E0,-3.376229095E0,9.204346983E0
5.130518542E0,5.930816803E0,-5.996230774E0,-3.282074890E0,9.049938510E0
5.140575542E0,5.877228241E0,-5.913303223E0,-3.172652435E0,8.920464689E0
5.150631542E0,5.842949524E0,-5.820196838E0,-3.074456635E0,8.801535887E0
5.160688542E0,5.807323608E0,-5.737868042E0,-2.991379395E0,8.694624077E0
5.170744542E0,5.721551971E0,-5.642516327E0,-2.921175385E0,8.550287310E0
5.180801542E0,5.612877960E0,-5.510939941E0,-2.866539001E0,8.372090771E0
5.190857542E0,5.512885895E0,-5.388943634E0,-2.867287445E0,8.225202835E0
5.200914542E0,5.450316010E0,-5.332810364E0,-2.915786591E0,8.163738263E0
5.210970542E0,5.447771301E0,-5.380561066E0,-3.021616516E0,8.231574327E0
5.221027542E0,5.549559631E0,-5.553900604E0,-3.245999908E0,8.495877790E0
5.231084542E0,5.859265594E0,-6.002068634E0,-3.593277740E0,9.125100882E0
5.241140542E0,6.263724518E0,-6.716532898E0,-4.028871918E0,1.002885178E1
5.251197542E0,6.607260132E0,-7.560178528E0,-4.384682007E0,1.095616822E1
5.261253542E0,6.614744568E0,-8.146359558E0,-4.429139557E0,1.139014034E1
5.271310542E0,6.325096893E0,-8.153843994E0,-4.093387756E0,1.110170464E1
5.281366542E0,5.954617310E0,-7.687114563E0,-3.495980072E0,1.033300897E1
5.291423542E0,5.903423767E0,-7.139702911E0,-2.947520599E0,9.721812975E0
5.301479542E0,6.233188019E0,-6.623127136E0,-2.547851715E0,9.445104250E0
5.311536542E0,6.728208618E0,-6.161187744E0,-2.452500000E0,9.446892710E0
5.321592542E0,7.209457855E0,-5.746400299E0,-2.636766815E0,9.589053040E0
5.331649542E0,7.580386505E0,-5.331912231E0,-2.963088226E0,9.729924946E0
5.341706542E0,7.732619934E0,-4.871918793E0,-3.246898041E0,9.699038646E0
5.351762542E0,7.884254608E0,-4.471950531E0,-3.439547424E0,9.694859399E0
5.361819542E0,8.133336639E0,-4.204456787E0,-3.682492218E0,9.868605307E0
5.371875542E0,8.669371948E0,-4.298161926E0,-3.915557556E0,1.043857255E1
5.381932542E0,9.339079285E0,-4.638254700E0,-4.058061218E0,1.118926581E1
5.391988542E0,9.761800232E0,-5.045108643E0,-4.322561188E0,1.180806505E1
5.402045542E0,1.011431717E1,-5.267995148E0,-4.643044739E0,1.231296265E1
5.412101542E0,1.015039215E1,-5.823789368E0,-4.613256683E0,1.257891572E1
5.422158542E0,9.927954712E0,-5.688470764E0,-4.153862000E0,1.217282029E1
5.432214542E0,9.647288361E0,-6.007008362E0,-3.461551666E0,1.188009521E1
5.442271542E0,9.436826019E0,-6.361770630E0,-3.012934570E0,1.177300240E1
5.452328542E0,9.303153992E0,-6.143524475E0,-2.753074951E0,1.148350943E1
5.462384542E0,9.194180603E0,-5.983507233E0,-2.689157867E0,1.129455116E1
5.472441542E0,8.997339935E0,-5.738017731E0,-2.685116272E0,1.100394578E1
5.482497542E0,8.766070862E0,-5.495372314E0,-2.743195496E0,1.070365530E1
5.492554542E0,8.562643890E0,-5.266198883E0,-2.755619659E0,1.042329894E1
5.502610542E0,8.410859528E0,-5.004842377E0,-2.663710785E0,1.014329140E1
5.512667542E0,8.422984314E0,-4.802014160E0,-2.680326233E0,1.005933166E1
5.522723542E0,8.528963928E0,-4.678371277E0,-2.809507599E0,1.012539957E1
5.532780542E0,8.650211792E0,-4.589007111E0,-2.986439667E0,1.023738112E1
5.542836542E0,8.870254211E0,-4.552333374E0,-3.029849396E0,1.042041920E1
5.552893542E0,8.904383240E0,-4.418361969E0,-2.878065033E0,1.034858549E1
5.562950542E0,8.718469849E0,-4.361929321E0,-2.947670288E0,1.018464059E1
5.573006542E0,8.724307709E0,-4.378395081E0,-2.991080017E0,1.020933143E1
5.583063542E0,8.859177246E0,-4.426445160E0,-3.016527100E0,1.035267473E1
5.593119542E0,8.918753357E0,-4.336033173E0,-3.069816284E0,1.038119055E1
5.603176542E0,8.857979736E0,-4.415817261E0,-2.782413940E0,1.028129731E1
5.613232542E0,8.980125732E0,-4.354444885E0,-2.671494598E0,1.033154063E1
5.623289542E0,9.192683716E0,-4.407734070E0,-2.653981018E0,1.053457018E1
5.633345542E0,9.296867065E0,-4.418960724E0,-2.512076111E0,1.059572921E1
5.643402542E0,9.360634460E0,-4.239483948E0,-2.493365021E0,1.057409905E1
5.653458542E0,9.410031738E0,-4.015549622E0,-2.604284363E0,1.055725500E1
5.663515542E0,9.544601898E0,-3.790417786E0,-2.777623901E0,1.063869761E1
5.673571542E0,9.658964081E0,-3.579656067E0,-2.947819977E0,1.071443733E1
5.683628542E0,9.739646301E0,-3.392994232E0,-3.056643677E0,1.075714602E1
5.693685542E0,9.792336731E0,-3.238515472E0,-3.091820526E0,1.076741358E1
5.703741542E0,9.797126770E0,-3.087629242E0,-3.057092743E0,1.071741402E1
5.713798542E0,9.752070465E0,-2.930905151E0,-2.939587097E0,1.059878557E1
5.723854542E0,9.672436066E0,-2.784210205E0,-2.790946198E0,1.044496178E1
5.733911542E0,9.645791473E0,-2.714754639E0,-2.645299072E0,1.036382135E1
5.743967542E0,9.696685638E0,-2.666854248E0,-2.546504517E0,1.037412691E1
5.754024542E0,9.831854553E0,-2.632126465E0,-2.476300507E0,1.047499489E1
5.764080542E0,1.000160156E1,-2.640059967E0,-2.455493774E0,1.063162265E1
5.774137542E0,1.024409729E1,-2.666405182E0,-2.489922180E0,1.087432565E1
5.784193542E0,1.051308792E1,-2.727627869E0,-2.596350861E0,1.116718448E1
5.794250542E0,1.068313431E1,-2.835104370E0,-2.791245575E0,1.139992225E1
5.804307542E0,1.079240707E1,-2.999312897E0,-3.009342041E0,1.159862353E1
5.814363542E0,1.077429474E1,-3.240311737E0,-3.257226562E0,1.171300867E1
5.824420542E0,1.081545914E1,-3.652105408E0,-3.516337738E0,1.194473362E1
5.834476542E0,1.111738129E1,-4.434228973E0,-3.778442688E0,1.255130202E1
5.844533542E0,1.162916702E1,-5.541476440E0,-4.116888885E0,1.352384046E1
5.854589542E0,1.207134750E1,-6.594985657E0,-4.387825470E0,1.443829210E1
5.864646542E0,1.209739334E1,-7.189848633E0,-4.462819519E0,1.476338738E1
5.874702542E0,1.164757874E1,-7.138804779E0,-4.279301147E0,1.431576203E1
5.884759542E0,1.097981735E1,-6.558012543E0,-4.031416626E0,1.340955770E1
5.894815542E0,1.040905426E1,-5.683980103E0,-3.787424011E0,1.244992454E1
5.904872542E0,9.953850861E0,-4.935985565E0,-4.096830597E0,1.184175331E1
5.914929542E0,9.614057465E0,-4.392166443E0,-3.975133667E0,1.129260442E1
5.924985542E0,9.146130524E0,-4.066144409E0,-4.151167603E0,1.083593219E1
5.935042542E0,9.042695618E0,-4.293371887E0,-4.448150024E0,1.095396845E1
5.945098542E0,9.057664490E0,-4.896168365E0,-4.834346924E0,1.137473784E1
5.955155542E0,9.012308807E0,-5.802234192E0,-5.318440247E0,1.196551037E1
5.965211542E0,8.557853851E0,-6.857240295E0,-6.026916962E0,1.251328634E1
5.975268542E0,8.271649017E0,-8.046217804E0,-5.987548828E0,1.300048228E1
5.985324542E0,7.972720642E0,-7.129973145E0,-4.999752960E0,1.180670662E1
5.995381542E0,8.107290802E0,-6.582711182E0,-4.499193878E0,1.137114753E1
6.005437542E0,8.709937592E0,-7.323071594E0,-4.561913452E0,1.225974897E1
6.015494542E0,8.861721954E0,-7.034322052E0,-3.959715729E0,1.198712440E1
6.025550542E0,8.783883820E0,-6.711593170E0,-4.218976593E0,1.183223822E1
6.035607542E0,8.679550781E0,-6.394402771E0,-3.896397400E0,1.146319769E1
6.045664542E0,8.510701904E0,-5.881718903E0,-3.857628021E0,1.104119369E1
6.055720542E0,8.339158630E0,-5.635780334E0,-3.905977478E0,1.079630709E1
6.065777542E0,8.291557617E0,-5.556145935E0,-4.020189972E0,1.076023293E1
6.075833542E0,8.196804657E0,-5.550607452E0,-4.020788727E0,1.068473639E1
6.085890542E0,7.985593872E0,-5.428611145E0,-4.112847290E0,1.049547718E1
6.095946542E0,7.955805817E0,-5.532195740E0,-4.374952240E0,1.063203852E1
6.106003542E0,7.816146240E0,-5.560037842E0,-4.524191895E0,1.060539840E1
6.116059542E0,7.593409424E0,-5.660778351E0,-4.671186218E0,1.056050467E1
6.126116417E0,7.284601593E0,-5.718558197E0,-4.697381744E0,1.038425363E1
6.136173417E0,6.999294891E0,-5.636977844E0,-4.638703766E0,1.011351674E1
6.146229417E0,6.964417419E0,-5.594466248E0,-4.600084076E0,1.004798169E1
6.156286417E0,7.057074738E0,-5.559439087E0,-4.473297729E0,1.003593839E1
6.166342417E0,7.030729523E0,-5.528453522E0,-4.328548737E0,9.936362017E0
6.176399417E0,7.058871002E0,-5.528303833E0,-4.103267212E0,9.860355212E0
6.186455417E0,6.940916290E0,-5.511239319E0,-3.850293274E0,9.663065563E0
6.196512417E0,6.773264923E0,-5.533093872E0,-3.655697937E0,9.479260146E0
6.206568417E0,6.585255890E0,-5.551804962E0,-3.504063263E0,9.298741465E0
6.216625417E0,6.339317322E0,-5.543871460E0,-3.401077423E0,9.082333539E0
6.226681417E0,6.100863190E0,-5.530249786E0,-3.324586487E0,8.880150318E0
6.236738417E0,5.969436493E0,-5.586233368E0,-3.314557343E0,8.821930949E0
6.246794417E0,5.875282288E0,-5.707930298E0,-3.334765320E0,8.844211100E0
6.256851417E0,5.744154968E0,-5.842350769E0,-3.345093842E0,8.849747545E0
6.266908417E0,5.593568115E0,-5.941145325E0,-3.340004425E0,8.817076703E0
6.276964417E0,5.410498810E0,-6.002218323E0,-3.315156097E0,8.734436565E0
6.287021417E0,5.179229736E0,-5.954317932E0,-3.249891815E0,8.534642319E0
6.297077417E0,4.892575836E0,-5.802084503E0,-3.139122162E0,8.213134045E0
6.307134417E0,4.603975983E0,-5.599106598E0,-3.050207062E0,7.864499518E0
6.317190417E0,4.342769165E0,-5.395679626E0,-2.960992584E0,7.532627678E0
6.327247417E0,4.177063751E0,-5.225034485E0,-2.944526825E0,7.308836102E0
6.337303417E0,4.161645813E0,-5.121300201E0,-2.983296204E0,7.242034788E0
6.347360417E0,4.268523560E0,-5.034181366E0,-3.087329865E0,7.286623436E0
6.357416417E0,4.553979950E0,-5.054539032E0,-3.300935669E0,7.561962345E0
6.367473417E0,5.061873779E0,-5.344186707E0,-3.675905914E0,8.227708187E0
6.377530417E0,5.713917847E0,-5.821993103E0,-4.234843597E0,9.191211082E0
6.387586417E0,6.392606506E0,-6.485413513E0,-4.860093384E0,1.032213709E1
6.397643417E0,7.017257538E0,-7.285050659E0,-5.445825348E0,1.148785795E1
6.407699417E0,7.326664124E0,-7.981103210E0,-5.785019989E0,1.228187575E1
6.417756417E0,7.245682526E0,-8.239016876E0,-5.633535004E0,1.233361387E1
6.427812417E0,6.884333954E0,-7.953560486E0,-5.117408295E0,1.169790776E1
6.437869417E0,6.536157990E0,-7.399712219E0,-4.485871582E0,1.084436010E1
6.447925417E0,6.606661377E0,-6.985673218E0,-3.982318726E0,1.040703931E1
6.457982417E0,7.172335052E0,-6.565347290E0,-3.632346497E0,1.037979365E1
6.468038417E0,7.791597290E0,-6.073320465E0,-3.393892365E0,1.044570319E1
6.478095417E0,8.551117859E0,-5.976771240E0,-3.359164581E0,1.096026449E1
6.488152417E0,9.201365662E0,-6.281238098E0,-3.510200500E0,1.168077864E1
6.498208417E0,9.567653961E0,-6.323899384E0,-3.577560425E0,1.201376895E1
6.508265417E0,9.834698639E0,-6.367159424E0,-3.506607971E0,1.222940374E1
6.518321417E0,1.014096176E1,-6.573131104E0,-3.534001007E0,1.259104130E1
6.528378417E0,1.033959869E1,-6.845714264E0,-3.651207275E0,1.292681011E1
6.538434417E0,1.048719177E1,-7.075037384E0,-3.788920898E0,1.320580429E1
6.548491417E0,1.053703812E1,-7.156318359E0,-3.797602844E0,1.329149548E1
6.558547417E0,1.045141617E1,-7.068002014E0,-3.722309418E0,1.315463188E1
6.568604417E0,1.029738647E1,-6.808591461E0,-3.586242371E0,1.285512428E1
6.578660417E0,1.011341904E1,-6.457870789E0,-3.416794739E0,1.247637071E1
6.588717417E0,9.880952454E0,-6.062692566E0,-3.196303253E0,1.202521588E1
6.598773417E0,9.589957581E0,-5.672005005E0,-2.978955231E0,1.153313060E1
6.608830417E0,9.332492981E0,-5.447322235E0,-2.767295380E0,1.115467025E1
6.618887417E0,9.046138458E0,-5.258265381E0,-2.627935181E0,1.078832791E1
6.628943417E0,8.838819580E0,-5.112767944E0,-2.437531128E0,1.049793721E1
6.639000417E0,8.650660858E0,-4.881498871E0,-2.141746216E0,1.016120275E1
6.649056417E0,8.454119568E0,-4.646487579E0,-1.826501770E0,9.818253063E0
6.659113417E0,8.364456024E0,-4.492308197E0,-1.569635925E0,9.623342167E0
6.669169417E0,8.417894897E0,-4.505031738E0,-1.476230164E0,9.661031051E0
6.679226417E0,8.506211243E0,-4.623435516E0,-1.515149231E0,9.799360330E0
6.689282417E0,8.500523071E0,-4.706812134E0,-1.613943787E0,9.849760784E0
6.699339417E0,8.337512054E0,-4.748126221E0,-1.817221069E0,9.765300931E0
6.709395417E0,8.246201935E0,-4.765789490E0,-2.038161621E0,9.739953727E0
6.719452417E0,8.283923492E0,-4.797822876E0,-2.324216766E0,9.851115488E0
6.729509417E0,8.383017426E0,-4.869972839E0,-2.575993195E0,1.003131883E1
6.739565417E0,8.530460815E0,-4.910388794E0,-2.834056549E0,1.024268306E1
6.749622417E0,8.618328094E0,-4.850064240E0,-2.996917877E0,1.033345146E1
6.759678417E0,8.655750275E0,-4.669988708E0,-3.099903717E0,1.031213898E1
6.769735417E0,8.664881287E0,-4.399501190E0,-3.140918427E0,1.021279330E1
6.779791417E0,8.673862610E0,-4.105662231E0,-3.122955780E0,1.009183867E1
6.789848417E0,8.707991638E0,-3.828438721E0,-3.092718658E0,1.000254818E1
6.799904417E0,8.789871368E0,-3.542084198E0,-3.132236481E0,9.980937056E0
6.809961417E0,8.852141876E0,-3.326831818E0,-3.275189209E0,1.000775150E1
6.820017417E0,8.894653473E0,-3.251388702E0,-3.475323029E0,1.008782727E1
6.830074417E0,8.952133942E0,-3.251688080E0,-3.703897705E0,1.021924829E1
6.840130417E0,9.026678925E0,-3.287463684E0,-3.916156311E0,1.037422913E1
6.850187417E0,9.098230133E0,-3.314707031E0,-4.046684875E0,1.049479551E1
6.860244417E0,9.205556946E0,-3.333567810E0,-4.161645813E0,1.063833863E1
6.870300417E0,9.313033447E0,-3.329825592E0,-4.242477722E0,1.076192119E1
6.880357417E0,9.452243958E0,-3.324436798E0,-4.303700409E0,1.090498203E1
6.890413417E0,9.597442017E0,-3.313808899E0,-4.378544769E0,1.105729971E1
6.900470417E0,9.695039063E0,-3.290607147E0,-4.425846405E0,1.115392282E1
6.910526417E0,9.780960388E0,-3.225342865E0,-4.439168701E0,1.121500073E1
6.920583417E0,1.008961853E1,-3.292553101E0,-4.538412323E0,1.154289801E1
6.930639417E0,1.098385895E1,-3.965553589E0,-4.910688171E0,1.266829235E1
6.940696417E0,1.193647797E1,-4.880151672E0,-5.359754333E0,1.396504039E1
6.950752417E0,1.272428970E1,-5.564977570E0,-5.652695160E0,1.499431514E1
6.960809417E0,1.330702789E1,-6.102809143E0,-5.771697693E0,1.573638348E1
6.970866417E0,1.313293991E1,-5.924829254E0,-5.533243561E0,1.543355101E1
6.980922417E0,1.247251328E1,-5.249733124E0,-4.947511597E0,1.440837105E1
6.990979417E0,1.189770859E1,-4.543501740E0,-4.360282745E0,1.346146141E1
7.001035417E0,1.137544464E1,-3.910168762E0,-3.833228760E0,1.262472983E1
7.011092417E0,1.090542206E1,-3.432062988E0,-3.477568359E0,1.194992754E1
7.021148417E0,1.070918015E1,-3.417692871E0,-3.671415253E0,1.182566928E1
7.031205417E0,1.098430801E1,-3.873495026E0,-3.888463898E0,1.227921568E1
7.041261417E0,1.136317017E1,-4.800966339E0,-4.372706909E0,1.308783709E1
7.051318417E0,1.148890869E1,-5.955964508E0,-4.955295410E0,1.385725401E1
7.061374417E0,1.127769791E1,-6.815477142E0,-5.326523438E0,1.421298880E1
7.071431417E0,1.083297272E1,-7.274422760E0,-5.463338928E0,1.414632803E1
7.081488417E0,1.030367340E1,-7.548502808E0,-5.453309784E0,1.388827447E1
7.091544417E0,9.786349182E0,-7.579039307E0,-5.107379150E0,1.339028711E1
7.101601417E0,9.557624817E0,-7.755821686E0,-4.846621399E0,1.322840509E1
7.111657417E0,9.731862488E0,-7.442972260E0,-3.512146454E0,1.274527976E1
7.121714792E0,9.668693848E0,-7.151678009E0,-3.038231964E0,1.240407161E1
7.131770792E0,9.697434082E0,-7.304959259E0,-2.676883392E0,1.243255252E1
7.141827792E0,9.455088043E0,-7.125482483E0,-2.397115173E0,1.207962548E1
7.151883792E0,9.033115540E0,-6.871909790E0,-2.117496643E0,1.154574002E1
7.161940792E0,8.615334320E0,-6.689139862E0,-2.165846100E0,1.112022782E1
7.171996792E0,8.308622131E0,-6.549629974E0,-2.304158478E0,1.082774218E1
7.182053792E0,8.028404846E0,-6.456224213E0,-2.474055176E0,1.059523782E1
7.192109792E0,7.803422699E0,-6.324498138E0,-2.646197205E0,1.038725383E1
7.202166792E0,7.580985260E0,-6.206393738E0,-2.787203979E0,1.018622436E1
7.212223792E0,7.411088562E0,-6.133345642E0,-2.915636902E0,1.005201975E1
7.222279792E0,7.275320892E0,-6.083050232E0,-2.990181885E0,9.943589991E0
7.232336792E0,7.172933807E0,-6.103707275E0,-3.035687256E0,9.895535308E0
7.242392792E0,7.081623688E0,-6.181246033E0,-3.039878540E0,9.879172947E0
7.252449792E0,6.918612671E0,-6.200256500E0,-2.970872040E0,9.753792218E0
7.262505792E0,6.712790680E0,-6.198460236E0,-2.899919586E0,9.586031588E0
7.272562792E0,6.546187134E0,-6.224655762E0,-2.813698883E0,9.461279340E0
7.282618792E0,6.381230164E0,-6.246360626E0,-2.742596741E0,9.341250257E0
7.292675792E0,6.237229614E0,-6.279441833E0,-2.660866699E0,9.242003819E0
7.302731792E0,6.115532684E0,-6.279292145E0,-2.575095062E0,9.135664422E0
7.312788792E0,5.994135132E0,-6.318211212E0,-2.500699768E0,9.061067720E0
7.322845792E0,5.840554504E0,-6.343807983E0,-2.412533112E0,8.954121546E0
7.332901792E0,5.665718079E0,-6.275699615E0,-2.281555481E0,8.757297667E0
7.342958792E0,5.481451263E0,-6.125112762E0,-2.154769135E0,8.497431631E0
7.353014792E0,5.402714996E0,-6.025420074E0,-2.097288666E0,8.360241393E0
7.363071792E0,5.439388733E0,-5.964197388E0,-2.103725281E0,8.341718068E0
7.373127792E0,5.468727722E0,-5.908213806E0,-2.163002014E0,8.336219226E0
7.383184792E0,5.484894104E0,-5.834267578E0,-2.274819489E0,8.324514713E0
7.393240792E0,5.411995697E0,-5.737718353E0,-2.420765991E0,8.250528305E0
7.403297792E0,5.297184448E0,-5.654341736E0,-2.583477631E0,8.167380254E0
7.413353792E0,5.235512695E0,-5.594017181E0,-2.746338959E0,8.139164520E0
7.423410792E0,5.175936584E0,-5.502707062E0,-2.896925812E0,8.090876571E0
7.433467792E0,5.158123627E0,-5.381459198E0,-3.056943054E0,8.056751410E0
7.443523792E0,5.247188416E0,-5.325026550E0,-3.273842010E0,8.161307220E0
7.453580792E0,5.517825623E0,-5.445226593E0,-3.638483734E0,8.563612330E0
7.463636792E0,5.904172211E0,-5.803132324E0,-4.148772583E0,9.260016642E0
7.473693792E0,6.396348724E0,-6.386469269E0,-4.740641785E0,1.020656413E1
7.483749792E0,6.795269165E0,-7.072043610E0,-5.278772736E0,1.113799468E1
7.493806792E0,6.938970337E0,-7.596852264E0,-5.599106598E0,1.171372991E1
7.503862792E0,6.637048187E0,-7.697892151E0,-5.557642822E0,1.158427149E1
7.513919792E0,5.979315948E0,-7.253017273E0,-5.156626740E0,1.072144011E1
7.523975792E0,5.375471649E0,-6.492448883E0,-4.654870148E0,9.628883842E0
7.534032792E0,4.997807007E0,-5.614374847E0,-4.234993286E0,8.627540086E0
7.544088792E0,5.071603546E0,-4.735851746E0,-4.002826080E0,8.010747213E0
7.554145792E0,5.597609711E0,-4.176614685E0,-3.990102539E0,8.043523045E0
7.564202792E0,6.263125763E0,-3.983366547E0,-4.216731262E0,8.536672414E0
7.574258792E0,6.990313568E0,-4.088298340E0,-4.655618591E0,9.340955602E0
7.584315792E0,7.688162384E0,-4.428241425E0,-4.988975372E0,1.017875426E1
7.594371792E0,8.103099518E0,-4.839735718E0,-5.203329620E0,1.077765757E1
7.604428792E0,8.127947845E0,-5.233866119E0,-5.383405151E0,1.106516795E1
7.614484792E0,8.253087616E0,-5.523513794E0,-5.529800720E0,1.136667743E1
7.624541792E0,8.638985138E0,-6.179300079E0,-5.796995087E0,1.210045312E1
7.634597792E0,8.910520477E0,-6.636599121E0,-6.192472687E0,1.271961246E1
7.644654792E0,9.042695618E0,-6.764582977E0,-6.478527832E0,1.301926456E1
7.654710792E0,9.131610718E0,-6.630611572E0,-6.531817017E0,1.303901674E1
7.664767792E0,9.137149200E0,-6.247408447E0,-6.424789581E0,1.279826273E1
7.674823792E0,9.093889160E0,-5.832770691E0,-6.148015137E0,1.243053193E1
7.684880792E0,9.086105347E0,-5.416486359E0,-5.801336060E0,1.206445751E1
7.694937792E0,9.160800018E0,-5.120701447E0,-5.517825623E0,1.185699118E1
7.704993792E0,9.405541077E0,-4.938530273E0,-5.269342346E0,1.185829891E1
7.715050792E0,9.850565643E0,-4.849615173E0,-4.969665527E0,1.205197022E1
7.725106792E0,1.018766464E1,-4.738246765E0,-4.652924194E0,1.216097023E1
7.735163792E0,1.018332367E1,-4.633464661E0,-4.456831970E0,1.204294096E1
7.745219792E0,9.888287201E0,-4.524790649E0,-4.424948273E0,1.174019256E1
7.755276792E0,9.511670380E0,-4.474944305E0,-4.539909210E0,1.145023037E1
7.765332792E0,9.264833679E0,-4.462220764E0,-4.775369568E0,1.133810883E1
7.775389792E0,9.028475189E0,-4.358187103E0,-4.888683929E0,1.115376123E1
7.785445792E0,8.757688293E0,-4.114044800E0,-4.886887665E0,1.083993265E1
7.795502792E0,8.572822723E0,-3.887715454E0,-4.881648560E0,1.060368396E1
7.805559792E0,8.565787354E0,-3.835623779E0,-4.929698639E0,1.060125707E1
7.815615792E0,8.681646423E0,-3.877686310E0,-5.027744751E0,1.075572652E1
7.825672792E0,8.737330627E0,-3.901786194E0,-5.121898956E0,1.085351238E1
7.835728792E0,8.718918915E0,-3.909570007E0,-5.142406311E0,1.085120396E1
7.845785792E0,8.698112183E0,-3.851341095E0,-5.084027710E0,1.078597801E1
7.855841792E0,8.623118134E0,-3.779939575E0,-4.994364166E0,1.065785077E1
7.865898792E0,8.561596069E0,-3.685635681E0,-4.857398987E0,1.051090684E1
7.875954792E0,8.529862061E0,-3.605701904E0,-4.696932678E0,1.038367996E1
7.886011792E0,8.524922333E0,-3.565884705E0,-4.529281311E0,1.029097778E1
7.896067792E0,8.576115875E0,-3.558100891E0,-4.350403290E0,1.025357763E1
7.906124792E0,8.665779419E0,-3.583398285E0,-4.182153168E0,1.026775931E1
7.916180792E0,8.822503510E0,-3.632047119E0,-3.996988220E0,1.034428583E1
7.926237792E0,8.920699310E0,-3.687731323E0,-3.824995880E0,1.038310320E1
7.936294792E0,9.006470947E0,-3.744463348E0,-3.648213501E0,1.041378828E1
7.946350792E0,9.086853790E0,-3.779191132E0,-3.481310577E0,1.043899999E1
7.956407792E0,9.144184570E0,-3.775299225E0,-3.310066681E0,1.043194791E1
7.966463792E0,9.220675507E0,-3.753444672E0,-3.141217804E0,1.043917875E1
7.976520792E0,9.404493256E0,-3.710783386E0,-2.971620483E0,1.053778606E1
7.986576792E0,9.866432648E0,-3.863016815E0,-2.892435150E0,1.098342265E1
7.996633792E0,1.085871918E1,-4.572541351E0,-3.044818268E0,1.216925778E1
8.006689792E0,1.214125214E1,-5.859115906E0,-3.386557617E0,1.389992860E1
8.016746792E0,1.296019913E1,-7.100035400E0,-3.622766418E0,1.521517994E1
8.026802792E0,1.300241135E1,-7.576195221E0,-3.498225403E0,1.544988724E1
8.036859792E0,1.274823990E1,-7.590116272E0,-3.328328705E0,1.520543513E1
8.046915792E0,1.214828751E1,-6.880142670E0,-3.099454651E0,1.430118427E1
8.056972792E0,1.149429749E1,-5.882467346E0,-2.611768799E0,1.317359605E1
8.067029792E0,1.108444977E1,-5.106481018E0,-2.211950226E0,1.240297943E1
8.077085792E0,1.077055252E1,-4.611909485E0,-1.942211151E0,1.187630813E1
8.087142792E0,1.054826477E1,-4.516857147E0,-1.878443756E0,1.162740036E1
8.097198792E0,1.026864624E1,-4.698130188E0,-1.989812164E0,1.146633661E1
8.107255792E0,9.975106659E0,-5.160518646E0,-2.324516144E0,1.146896163E1
8.117311792E0,9.843979340E0,-5.682034149E0,-2.520458679E0,1.164225722E1
8.127369042E0,9.683962097E0,-6.156846771E0,-2.686762848E0,1.178577866E1
8.137425042E0,9.724976807E0,-6.636449432E0,-2.770289154E0,1.209512865E1
8.147482042E0,9.899064789E0,-7.017407227E0,-2.846929779E0,1.246356679E1
8.157538042E0,9.990075531E0,-7.202123108E0,-2.806962891E0,1.263135888E1
8.167595042E0,9.910740509E0,-7.198829956E0,-2.741997986E0,1.255246920E1
8.177651042E0,9.790390778E0,-7.047943726E0,-2.506238251E0,1.232097774E1
8.187708042E0,9.615853729E0,-6.876849518E0,-2.343077545E0,1.205179300E1
8.197765042E0,9.552984467E0,-6.722221069E0,-2.035616913E0,1.185712885E1
8.207821042E0,9.200916595E0,-6.354136505E0,-1.788181458E0,1.132384695E1
8.217878042E0,8.993897095E0,-6.148314514E0,-1.550924835E0,1.100442294E1
8.227934042E0,8.840765533E0,-5.888754272E0,-1.389261017E0,1.071291782E1
8.237991042E0,8.636889496E0,-5.720204773E0,-1.443747711E0,1.045949379E1
8.248047042E0,8.459508362E0,-5.669011230E0,-1.677262115E0,1.032057064E1
8.258104042E0,8.277935944E0,-5.661975861E0,-1.922751617E0,1.021171719E1
8.268160042E0,8.108488312E0,-5.725593567E0,-2.204914856E0,1.016816866E1
8.278217042E0,7.959548035E0,-5.840404816E0,-2.456242218E0,1.017338976E1
8.288273042E0,7.874824219E0,-6.001469879E0,-2.622546387E0,1.024247269E1
8.298330042E0,7.896978149E0,-6.187682648E0,-2.704875183E0,1.039067034E1
8.308387042E0,7.951315155E0,-6.367907867E0,-2.715353394E0,1.054261862E1
8.318443042E0,7.953410797E0,-6.452182617E0,-2.612367554E0,1.056938352E1
8.328500042E0,7.991282043E0,-6.504573669E0,-2.496358795E0,1.060197503E1
8.338556042E0,8.061486053E0,-6.543343048E0,-2.345023499E0,1.064434267E1
8.348613042E0,8.135581970E0,-6.530918884E0,-2.208806763E0,1.066393093E1
8.358669042E0,8.204588470E0,-6.522236938E0,-2.157463531E0,1.070091097E1
8.368726042E0,8.259673920E0,-6.527775421E0,-2.184856567E0,1.075210042E1
8.378782042E0,8.236621857E0,-6.481222229E0,-2.233505402E0,1.071618997E1
8.388839042E0,8.145012360E0,-6.401887207E0,-2.288441162E0,1.060954048E1
8.398895042E0,8.053253174E0,-6.333778839E0,-2.348616028E0,1.051131002E1
8.408952042E0,7.968978424E0,-6.274801483E0,-2.401605835E0,1.042331336E1
8.419008042E0,7.892188110E0,-6.192173309E0,-2.404000854E0,1.031546720E1
8.429065042E0,7.765102386E0,-6.108796692E0,-2.407892761E0,1.016917694E1
8.439122042E0,7.652686157E0,-6.033652954E0,-2.428699493E0,1.004326414E1
8.449178042E0,7.565866699E0,-6.005661163E0,-2.494562531E0,9.976630049E0
8.459235042E0,7.439080353E0,-5.978717194E0,-2.586471405E0,9.888114588E0
8.469291042E0,7.192243652E0,-5.891598358E0,-2.697839813E0,9.680787139E0
8.479348042E0,6.947801971E0,-5.777685242E0,-2.826422424E0,9.467959796E0
8.489404042E0,6.742429047E0,-5.701343994E0,-2.973566437E0,9.317068753E0
8.499461042E0,6.510112152E0,-5.645061035E0,-3.147804108E0,9.173709447E0
8.509517042E0,6.286327515E0,-5.617817688E0,-3.256029053E0,9.037671956E0
8.519574042E0,6.063441010E0,-5.621559906E0,-3.346590729E0,8.920029269E0
8.529630042E0,5.836662598E0,-5.680088196E0,-3.456013184E0,8.847262815E0
8.539687042E0,5.741759949E0,-5.875132599E0,-3.605402527E0,8.971282949E0
8.549744042E0,5.834566956E0,-6.255940704E0,-3.823049927E0,9.369881344E0
8.559800042E0,6.058800659E0,-6.771768036E0,-4.101470947E0,9.969351618E0
8.569857042E0,6.236032104E0,-7.235503693E0,-4.322112122E0,1.048433418E1
8.579913042E0,6.265371094E0,-7.451953583E0,-4.320166168E0,1.065130616E1
8.589970042E0,6.287824402E0,-7.348967743E0,-4.140390015E0,1.052078381E1
8.600026042E0,6.433321838E0,-7.083569641E0,-4.009861450E0,1.037514229E1
8.610083042E0,6.521638184E0,-6.711593170E0,-3.878734131E0,1.013024313E1
8.620139042E0,6.393354950E0,-6.212680664E0,-3.764371948E0,9.676925375E0
8.630196042E0,6.111341400E0,-5.646108856E0,-3.655548248E0,9.087908006E0
8.640252042E0,5.845943298E0,-5.141957245E0,-3.573369141E0,8.566431251E0
8.650309042E0,5.744903412E0,-4.762346649E0,-3.547023926E0,8.262278109E0
8.660365042E0,5.889652405E0,-4.547992401E0,-3.586541748E0,8.260479528E0
8.670422042E0,6.186036072E0,-4.495601349E0,-3.688479767E0,8.490132906E0
8.680479042E0,6.570586395E0,-4.617747345E0,-3.864813080E0,8.912517953E0
8.690535042E0,7.017257538E0,-4.906796265E0,-4.035757599E0,9.466038893E0
8.700592042E0,7.383845215E0,-5.278922424E0,-4.203408966E0,1.000284155E1
8.710648042E0,7.728278961E0,-5.670957184E0,-4.325105896E0,1.051630126E1
8.720705042E0,7.987240448E0,-5.994883575E0,-4.448748779E0,1.093279492E1
8.730761042E0,8.166866913E0,-6.132447510E0,-4.517306213E0,1.116739375E1
8.740818042E0,8.326435089E0,-6.121969299E0,-4.629722443E0,1.132441430E1
8.750874042E0,8.460256805E0,-6.047124939E0,-4.616400146E0,1.137782121E1
8.760931042E0,8.465346222E0,-5.770200806E0,-4.552183685E0,1.121069491E1
8.770987042E0,8.471333771E0,-5.492528229E0,-4.511019287E0,1.105805847E1
8.781044042E0,8.501121826E0,-5.216801605E0,-4.399351501E0,1.090130198E1
8.791100042E0,8.505313110E0,-4.961732025E0,-4.314627686E0,1.075058826E1
8.801157042E0,8.593928833E0,-4.811594238E0,-4.238735504E0,1.072258973E1
8.811214042E0,8.511600037E0,-4.614154816E0,-4.126019897E0,1.052434321E1
8.821270042E0,8.437055054E0,-4.490212555E0,-3.968697052E0,1.034874210E1
8.831327042E0,8.390352173E0,-4.481380920E0,-3.861519928E0,1.026606647E1
8.841383042E0,8.278534698E0,-4.509821777E0,-3.738775177E0,1.014155161E1
8.851440042E0,8.104596405E0,-4.543052673E0,-3.674409027E0,9.991250782E0
8.861496042E0,7.952063599E0,-4.442162476E0,-4.357288971E0,1.009723180E1
8.871553042E0,8.192763062E0,-4.658762054E0,-4.086053009E0,1.027235414E1
8.881609042E0,8.147108002E0,-4.941973114E0,-3.900588684E0,1.029626433E1
8.891666042E0,8.198151855E0,-4.698130188E0,-4.074826355E0,1.029010840E1
8.901722042E0,8.317453766E0,-4.769082642E0,-3.981121216E0,1.038140224E1
8.911779042E0,8.471932526E0,-4.648433533E0,-4.007017365E0,1.046125056E1
8.921835042E0,8.693471832E0,-4.552782440E0,-4.117936707E0,1.064244724E1
8.931892042E0,8.851243744E0,-4.431384888E0,-4.271367645E0,1.078082879E1
8.941949042E0,8.869805145E0,-4.283941498E0,-4.413721619E0,1.079381937E1
8.952005042E0,8.913214874E0,-4.215084686E0,-4.544399872E0,1.085651457E1
8.962062042E0,8.963360596E0,-4.180656281E0,-4.581822052E0,1.090012906E1
8.972118042E0,8.972790985E0,-4.115242310E0,-4.532873840E0,1.086246485E1
8.982175042E0,8.940757599E0,-3.988755341E0,-4.383035431E0,1.072652391E1
8.992231042E0,8.897048492E0,-3.808829498E0,-4.203408966E0,1.055145966E1
9.002288042E0,8.886869659E0,-3.631598053E0,-4.050576782E0,1.041979506E1
9.012344042E0,8.911568298E0,-3.492387543E0,-3.950884094E0,1.035482039E1
9.022401042E0,8.990005188E0,-3.434008942E0,-3.914659424E0,1.038928145E1
9.032457042E0,9.097481689E0,-3.397484894E0,-3.936813354E0,1.047881559E1
9.042514042E0,9.218879242E0,-3.354823608E0,-3.949985962E0,1.057567799E1
9.052570042E0,9.323361969E0,-3.324137421E0,-3.974834290E0,1.066650250E1
9.062627042E0,9.470505981E0,-3.302731934E0,-3.956422577E0,1.078201286E1
9.072684042E0,9.661359100E0,-3.247496796E0,-3.952830048E0,1.093219834E1
9.082740042E0,9.867181091E0,-3.160677338E0,-4.004921722E0,1.110812954E1
9.092797042E0,1.005369324E1,-3.050506439E0,-4.065845032E0,1.126558623E1
9.102853042E0,1.020368134E1,-2.988235931E0,-4.150868225E0,1.141378000E1
9.112910042E0,1.046922913E1,-2.999911652E0,-4.288132782E0,1.170437146E1
9.122965292E0,1.098191299E1,-3.321742401E0,-4.555327148E0,1.234452879E1
9.133022292E0,1.177391602E1,-4.029919739E0,-4.946164398E0,1.339141119E1
9.143078292E0,1.262729141E1,-4.755610657E0,-5.351671143E0,1.451567102E1
9.153135292E0,1.329370560E1,-5.306614838E0,-5.773044891E0,1.543407972E1
9.163191292E0,1.348934875E1,-5.645809479E0,-6.053262177E0,1.582654977E1
9.173248292E0,1.304731796E1,-5.430257721E0,-6.130950623E0,1.540482913E1
9.183304292E0,1.193348419E1,-4.564308472E0,-5.757028198E0,1.401371937E1
9.193361292E0,1.102008362E1,-3.736829224E0,-5.273383942E0,1.277555141E1
9.203418292E0,1.064047302E1,-3.327879639E0,-4.914280701E0,1.218378446E1
9.213474292E0,1.043360321E1,-3.103496246E0,-4.591252441E0,1.181403250E1
9.223531292E0,1.016461258E1,-2.999013519E0,-4.395758972E0,1.147327887E1
9.233587292E0,9.882898407E0,-3.068319397E0,-4.311783600E0,1.121060849E1
9.243644292E0,9.590406647E0,-3.296894073E0,-4.319717102E0,1.102294725E1
9.253700292E0,9.286688232E0,-3.586990814E0,-4.363426208E0,1.086961681E1
9.263757292E0,9.131461029E0,-3.919599152E0,-4.498595123E0,1.090798772E1
9.273813292E0,9.049581299E0,-4.360133057E0,-4.748275909E0,1.111088683E1
9.283870292E0,9.059909821E0,-4.833299103E0,-5.051844635E0,1.144394514E1
9.293926292E0,9.231004028E0,-5.324727173E0,-5.346432037E0,1.192260418E1
9.303983292E0,9.465566254E0,-5.734574890E0,-5.536536713E0,1.237479424E1
9.314039292E0,9.643845520E0,-5.964496765E0,-5.609435120E0,1.265087904E1
9.324096292E0,9.749376068E0,-6.026018829E0,-5.620063019E0,1.276512221E1
9.334152292E0,9.740843811E0,-5.895939331E0,-5.540727997E0,1.266277242E1
9.344209292E0,9.632469177E0,-5.634283447E0,-5.395380249E0,1.239514988E1
9.354266292E0,9.542805634E0,-5.351521454E0,-5.242847443E0,1.213224507E1
9.364322292E0,9.459129639E0,-5.137167206E0,-5.180726624E0,1.194594277E1
9.374379292E0,9.278605042E0,-4.986580353E0,-5.271737366E0,1.177920668E1
9.384435292E0,9.010662231E0,-4.871020660E0,-5.435047760E0,1.159562936E1
9.394492292E0,8.776249695E0,-4.783303070E0,-5.526956635E0,1.142146210E1
9.404548292E0,8.335416412E0,-4.706961823E0,-5.860313416E0,1.122398903E1
9.414605292E0,7.932454376E0,-4.531077576E0,-5.277874603E0,1.055037709E1
9.424661292E0,7.860903168E0,-4.594395905E0,-5.713468781E0,1.074923243E1
9.434718292E0,7.867639160E0,-4.924010468E0,-5.802832947E0,1.094616349E1
9.444774292E0,7.244934082E0,-4.666246490E0,-5.762566681E0,1.036677871E1
9.454831292E0,7.276368713E0,-4.987029419E0,-5.896089020E0,1.061036615E1
9.464888292E0,7.490423584E0,-5.355113983E0,-5.943989410E0,1.095968528E1
9.474944292E0,7.101681976E0,-5.276527405E0,-6.005810852E0,1.069324050E1
9.485001292E0,6.774163055E0,-5.241649933E0,-5.967041473E0,1.043885832E1
9.495057292E0,6.480773163E0,-5.137316895E0,-6.023025055E0,1.023080038E1
9.505114292E0,6.305936737E0,-5.087171173E0,-5.970634003E0,1.006442343E1
9.515170292E0,6.236331482E0,-4.996908875E0,-5.697452087E0,9.814371551E0
9.525227292E0,6.045328674E0,-4.790637817E0,-5.366939392E0,9.396821160E0
9.535283292E0,5.949228516E0,-4.792284393E0,-5.240751801E0,9.264166939E0
9.545340292E0,5.817053375E0,-4.868176575E0,-5.134023743E0,9.159446104E0
9.555396292E0,5.789810028E0,-5.069058838E0,-5.081183624E0,9.221479528E0
9.565453292E0,5.711073761E0,-5.293442230E0,-5.104834442E0,9.311080970E0
9.575509292E0,5.514831848E0,-5.397475891E0,-5.076243896E0,9.236577743E0
9.585566292E0,5.373076630E0,-5.514831848E0,-5.047204285E0,9.206388753E0
9.595623292E0,5.322032776E0,-5.666466522E0,-5.021457825E0,9.254615843E0
9.605679292E0,5.298681335E0,-5.794600067E0,-4.974305878E0,9.295005799E0
9.615736292E0,5.258415070E0,-5.859864349E0,-4.885690155E0,9.266008177E0
9.625792292E0,5.231022034E0,-5.863756256E0,-4.745431824E0,9.179670590E0
9.635849292E0,5.193150787E0,-5.819149017E0,-4.587210846E0,9.048414984E0
9.645905292E0,5.215753784E0,-5.786217499E0,-4.431684265E0,8.962378362E0
9.655962292E0,5.390290833E0,-5.835465088E0,-4.320914612E0,9.043129499E0
9.666018292E0,5.756429443E0,-6.046526184E0,-4.268972626E0,9.376624452E0
9.676075292E0,6.089935913E0,-6.288273468E0,-4.208648071E0,9.713002688E0
9.686131292E0,6.265371094E0,-6.414760437E0,-4.084556122E0,9.853305289E0
9.696188292E0,6.392007751E0,-6.541995850E0,-3.967948608E0,9.969959325E0
9.706244292E0,6.503376160E0,-6.668183441E0,-3.839066620E0,1.007457217E1
9.716301292E0,6.607858887E0,-6.795119476E0,-3.714675293E0,1.018018960E1
9.726357292E0,6.675368500E0,-6.867119751E0,-3.551963654E0,1.021441746E1
9.736414292E0,6.702761536E0,-6.850653992E0,-3.333567810E0,1.014746996E1
9.746471292E0,6.689738617E0,-6.736890564E0,-3.059936829E0,9.975044392E0
9.756527292E0,6.680158539E0,-6.557563477E0,-2.801873474E0,9.771215473E0
9.766584292E0,6.673123169E0,-6.332431641E0,-2.528541870E0,9.540638726E0
9.776640292E0,6.771318970E0,-6.141129456E0,-2.307601318E0,9.428109854E0
9.786697292E0,6.946454773E0,-6.048621826E0,-2.195035400E0,9.468750726E0
9.796753292E0,7.166796570E0,-6.033353577E0,-2.164947968E0,9.615161369E0
9.806810292E0,7.332951050E0,-6.068829803E0,-2.197729797E0,9.768975512E0
9.816866292E0,7.430099030E0,-6.156697083E0,-2.241588593E0,9.906362096E0
9.826923292E0,7.467820587E0,-6.292315063E0,-2.291584625E0,1.003059985E1
9.836979292E0,7.534432068E0,-6.489305420E0,-2.358944550E0,1.021975395E1
9.847036292E0,7.639513550E0,-6.669081573E0,-2.402354279E0,1.042161803E1
9.857092292E0,7.809859314E0,-6.833140411E0,-2.473905487E0,1.066798569E1
9.867149292E0,8.089178467E0,-6.981182556E0,-2.574645996E0,1.099092899E1
9.877206292E0,8.443042603E0,-7.123686218E0,-2.750380554E0,1.138404440E1
9.887262292E0,8.797954559E0,-7.175478516E0,-2.942281494E0,1.172810798E1
9.897319292E0,9.146579590E0,-7.226971436E0,-3.179987183E0,1.208310195E1
9.907375292E0,9.495803375E0,-7.277117157E0,-3.419489136E0,1.244265333E1
9.917432292E0,9.770033112E0,-7.239245911E0,-3.614683228E0,1.268566763E1
9.927488292E0,1.003632935E1,-7.189399567E0,-3.756288757E0,1.290445962E1
9.937545292E0,1.026325745E1,-7.104076996E0,-3.909270630E0,1.307993732E1
9.947601292E0,1.049512527E1,-7.056026917E0,-3.999832306E0,1.326400501E1
9.957658292E0,1.069421127E1,-6.964567108E0,-3.949536896E0,1.335927361E1
9.967714292E0,1.074181229E1,-6.784940643E0,-3.813170471E0,1.326507519E1
9.977771292E0,1.070888077E1,-6.641838226E0,-3.642974396E0,1.311737035E1
9.987827292E0,1.072175400E1,-6.576124878E0,-3.453767853E0,1.304338681E1
9.997884292E0,1.067325485E1,-6.458170166E0,-3.225941620E0,1.288538049E1
1.000794129E1,1.060364960E1,-6.389313354E0,-2.994223480E0,1.273680039E1
1.001799729E1,1.062340851E1,-6.348747711E0,-2.767744446E0,1.268163298E1
1.002805429E1,1.051248917E1,-6.255641327E0,-2.443668365E0,1.247465398E1
1.003811029E1,1.039079224E1,-6.196214905E0,-2.185455322E0,1.229381379E1
1.004816729E1,1.024679169E1,-6.159092102E0,-2.004631348E0,1.212228123E1
1.005822329E1,1.005983047E1,-6.118825836E0,-1.944755859E0,1.193408120E1
1.006828029E1,9.840386810E0,-6.069727936E0,-1.896256714E0,1.171625364E1
1.007833629E1,9.627978516E0,-6.007008362E0,-1.946252747E0,1.151390548E1
1.008839329E1,9.432185669E0,-5.959407349E0,-2.113904114E0,1.135558246E1
1.009844929E1,9.256002045E0,-5.878276062E0,-2.327060852E0,1.120905507E1
1.010850629E1,9.128467255E0,-5.784870300E0,-2.493664398E0,1.109107754E1
1.011856229E1,9.085955658E0,-5.689668274E0,-2.656675415E0,1.104467471E1
1.012861917E1,8.998088379E0,-5.542973328E0,-2.824925537E0,1.093939450E1
1.013867617E1,8.945248260E0,-5.435347137E0,-3.008892975E0,1.089100096E1
1.014873217E1,8.940757599E0,-5.375321960E0,-3.212020569E0,1.091550772E1
1.015878917E1,8.907077637E0,-5.289700012E0,-3.414250031E0,1.090752316E1
1.016884517E1,8.900940399E0,-5.160219269E0,-3.606300659E0,1.090229367E1
1.017890217E1,8.906478882E0,-4.981490936E0,-3.738326111E0,1.086810472E1
1.018895817E1,8.815019073E0,-4.761448517E0,-3.824546814E0,1.072395037E1
1.019901517E1,8.710536346E0,-4.588258667E0,-3.895648956E0,1.058780628E1
1.020907117E1,8.633746033E0,-4.447102203E0,-3.974834290E0,1.049369316E1
1.021912817E1,8.630901947E0,-4.382436676E0,-4.047583008E0,1.049195634E1
1.022918417E1,8.695118408E0,-4.309687958E0,-4.083208923E0,1.052858440E1
1.023924117E1,8.772806854E0,-4.225413208E0,-4.022435303E0,1.053547544E1
1.024929717E1,8.846603394E0,-4.174668732E0,-3.854035492E0,1.051398308E1
1.025935417E1,8.998537445E0,-4.095932465E0,-3.611390076E0,1.052580055E1
1.026941117E1,9.246421967E0,-4.083807678E0,-3.456611938E0,1.068278851E1
1.027946717E1,9.640402679E0,-4.127367096E0,-3.440445557E0,1.103672001E1
1.028952417E1,1.011940659E1,-4.180356903E0,-3.532204742E0,1.150453145E1
1.029958017E1,1.062954575E1,-4.127217407E0,-3.819756775E0,1.202546083E1
1.030963717E1,1.084794159E1,-3.786376190E0,-4.076173553E0,1.219137696E1
1.031969317E1,1.065604065E1,-3.131488037E0,-4.308340759E0,1.191298534E1
1.032975017E1,1.045485901E1,-2.401306458E0,-4.567152557E0,1.165886925E1
1.033980617E1,1.027807663E1,-1.833088074E0,-4.800966339E0,1.149122922E1
1.034986317E1,1.027628036E1,-1.589843903E0,-5.092260590E0,1.157845671E1
1.035991917E1,1.047701294E1,-1.730102234E0,-5.533992004E0,1.197439441E1
1.036997617E1,1.064690964E1,-2.040556641E0,-5.997727661E0,1.238924103E1
1.038003217E1,1.070603668E1,-2.413880310E0,-6.382876740E0,1.269595034E1
1.039008917E1,1.079405365E1,-2.805915070E0,-6.605763245E0,1.296228613E1
1.040014517E1,1.087713089E1,-3.203787689E0,-6.783743134E0,1.321345537E1
1.041020217E1,1.081920135E1,-3.607049103E0,-6.934629364E0,1.334747188E1
1.042025917E1,1.072414902E1,-3.975433044E0,-7.062912598E0,1.344232772E1
1.043031517E1,1.054631882E1,-4.250411224E0,-7.097041626E0,1.340368740E1
1.044037217E1,1.028526169E1,-4.427193604E0,-7.054679718E0,1.323461964E1
1.045042817E1,1.000190094E1,-4.469405823E0,-6.914720764E0,1.295480506E1
1.046048517E1,9.723629608E0,-4.398153992E0,-6.768923950E0,1.263768423E1
1.047054117E1,9.436227264E0,-4.324507141E0,-6.693929901E0,1.235121227E1
1.048059817E1,9.144483948E0,-4.306993561E0,-6.685098267E0,1.211867646E1
1.049065417E1,8.907975769E0,-4.352947998E0,-6.733148346E0,1.198480184E1
1.050071117E1,8.826844482E0,-4.490960999E0,-6.841073914E0,1.203670248E1
1.051076717E1,8.887468414E0,-4.731361084E0,-6.991660767E0,1.225790328E1
1.052082417E1,8.978479156E0,-5.148842926E0,-7.341632996E0,1.268949355E1
1.053088017E1,9.035660248E0,-5.703888702E0,-7.744744720E0,1.319691529E1
1.054093717E1,8.762029266E0,-6.095175018E0,-7.907755737E0,1.328370868E1
1.055099317E1,8.437055054E0,-6.730903015E0,-8.294252014E0,1.361189075E1
1.056105017E1,8.105195160E0,-5.862858124E0,-6.699318695E0,1.203944205E1
1.057110717E1,7.896678772E0,-5.455555115E0,-6.526727600E0,1.160684240E1
1.058116317E1,8.217312012E0,-5.981710968E0,-6.318660278E0,1.196789666E1
1.059122017E1,8.181386719E0,-5.902825012E0,-6.447991333E0,1.197309584E1
1.060127617E1,7.762407990E0,-5.708678741E0,-5.916147308E0,1.130684703E1
1.061133317E1,7.417974243E0,-5.483247528E0,-5.666915588E0,1.082618481E1
1.062138917E1,7.134613495E0,-5.401367798E0,-5.460794220E0,1.048321312E1
1.063144617E1,6.958280182E0,-5.389093323E0,-5.298980713E0,1.027322669E1
1.064150217E1,6.934479675E0,-5.423372040E0,-5.123695221E0,1.018588363E1
1.065155917E1,6.761289825E0,-5.353168030E0,-4.932842102E0,9.935007764E0
1.066161517E1,6.589297485E0,-5.313201141E0,-4.748724976E0,9.705634272E0
1.067167217E1,6.503376160E0,-5.267845459E0,-4.592000885E0,9.546233256E0
1.068172917E1,6.490652618E0,-5.274282074E0,-4.481081543E0,9.488240859E0
1.069178517E1,6.450685730E0,-5.319937134E0,-4.396657104E0,9.446886852E0
1.070184217E1,6.422095184E0,-5.356012115E0,-4.276157684E0,9.392321166E0
1.071189817E1,6.396348724E0,-5.340145111E0,-4.157753906E0,9.312214793E0
1.072195517E1,6.349645844E0,-5.339845734E0,-4.066443787E0,9.239476168E0
1.073201117E1,6.312822418E0,-5.341791687E0,-4.009861450E0,9.190508917E0
1.074206817E1,6.305337982E0,-5.338498535E0,-3.960613861E0,9.162058493E0
1.075212417E1,6.293662262E0,-5.338049469E0,-3.934568024E0,9.142526037E0
1.076218117E1,6.271658020E0,-5.350174255E0,-3.936064911E0,9.135133599E0
1.077223717E1,6.245911560E0,-5.337750092E0,-3.912713470E0,9.100127140E0
1.078229417E1,6.209387512E0,-5.295088806E0,-3.878434753E0,9.035303807E0
1.079235017E1,6.189329224E0,-5.272635498E0,-3.851041718E0,8.996610675E0
1.080240717E1,6.174809418E0,-5.250032501E0,-3.816164246E0,8.958472088E0
1.081246317E1,6.141129456E0,-5.233716431E0,-3.771856384E0,8.906860235E0
1.082252017E1,6.056854706E0,-5.240302734E0,-3.744762726E0,8.841352247E0
1.083257717E1,5.976322174E0,-5.248685303E0,-3.716920624E0,8.779557111E0
1.084263317E1,5.885012054E0,-5.243595886E0,-3.690725098E0,8.703454282E0
1.085269017E1,5.806575165E0,-5.220094757E0,-3.664080505E0,8.625032775E0
1.086274617E1,5.783972168E0,-5.192402344E0,-3.669169922E0,8.595241943E0
1.087280317E1,5.768853607E0,-5.134173431E0,-3.694467316E0,8.560870138E0
1.088285917E1,5.693111115E0,-5.063819733E0,-3.751199341E0,8.492660416E0
1.089291617E1,5.583089905E0,-4.988675995E0,-3.796704712E0,8.394804806E0
1.090297217E1,5.571264496E0,-4.949607239E0,-3.844904480E0,8.385755205E0
1.091302917E1,5.609734497E0,-4.920567627E0,-3.886218567E0,8.413310980E0
1.092308517E1,5.700445862E0,-4.964725800E0,-3.940106506E0,8.524554215E0
1.093314217E1,5.836063843E0,-5.042114868E0,-4.005969543E0,8.690820186E0
1.094319817E1,5.994733887E0,-5.197042694E0,-4.104464722E0,8.932676967E0
1.095325517E1,6.242169342E0,-5.427413635E0,-4.285438385E0,9.315926095E0
1.096331117E1,6.607409821E0,-5.793402557E0,-4.559219055E0,9.899891723E0
1.097336817E1,7.075486450E0,-6.338718567E0,-4.947661285E0,1.071079893E1
1.098342517E1,7.552095337E0,-7.019203491E0,-5.288352814E0,1.158749486E1
1.099348117E1,7.880063324E0,-7.631430359E0,-5.425767059E0,1.223818105E1
1.100353817E1,7.942333832E0,-8.047565002E0,-5.320236511E0,1.249595477E1
1.101359417E1,7.822133789E0,-8.161478119E0,-5.010680237E0,1.236537175E1
1.102365117E1,7.582931213E0,-8.036338348E0,-4.511917419E0,1.193486400E1
1.103370717E1,7.354655914E0,-7.692203979E0,-3.825444946E0,1.130906693E1
1.104376417E1,7.088359680E0,-7.118596802E0,-3.170556793E0,1.053431031E1
1.105382017E1,6.844217377E0,-6.421496429E0,-2.627336426E0,9.745861921E0
1.106387717E1,6.898554382E0,-5.694009247E0,-2.244282990E0,9.222179786E0
1.107393317E1,7.245532837E0,-5.371280365E0,-2.102527771E0,9.261156617E0
1.108399017E1,7.928562469E0,-5.530698853E0,-2.467319183E0,9.976893133E0
1.109404617E1,8.531059570E0,-5.621410217E0,-2.789898376E0,1.059069229E1
1.110410317E1,8.982371063E0,-5.594466248E0,-2.923420715E0,1.097849859E1
1.111416017E1,9.335636444E0,-5.721701660E0,-3.063529358E0,1.137001275E1
1.112421642E1,9.540859680E0,-5.920488281E0,-3.253484344E0,1.169039543E1
1.113427342E1,9.729168091E0,-6.132746887E0,-3.565585327E0,1.204079295E1
1.114432942E1,9.886790314E0,-6.419849854E0,-3.836222534E0,1.239676160E1
1.115438642E1,9.966873779E0,-6.616391144E0,-4.035158844E0,1.262528065E1
1.116444242E1,9.987530823E0,-6.725065155E0,-4.172423401E0,1.274309187E1
1.117449942E1,9.879904633E0,-6.586902466E0,-4.102518768E0,1.256305934E1
1.118455542E1,9.756261749E0,-6.314319305E0,-3.930077362E0,1.226787592E1
1.119461242E1,9.691296844E0,-6.048172760E0,-3.664080505E0,1.199696271E1
1.120466842E1,9.518705750E0,-5.789660339E0,-3.341351624E0,1.163144689E1
1.121472542E1,9.204658813E0,-5.446124725E0,-2.957250366E0,1.109645656E1
1.122478142E1,8.947493591E0,-5.212460632E0,-2.768642578E0,1.071880446E1
1.123483842E1,8.766220551E0,-5.050347748E0,-2.553240509E0,1.043415891E1
1.124489442E1,8.653055878E0,-4.919819183E0,-2.396815796E0,1.023839454E1
1.125495142E1,8.580307159E0,-4.825365601E0,-2.358944550E0,1.012276857E1
1.126500842E1,8.593479767E0,-4.765340424E0,-2.446961517E0,1.012640037E1
1.127506442E1,8.573421478E0,-4.702022095E0,-2.655627594E0,1.013237018E1
1.128512142E1,8.584648132E0,-4.684508514E0,-2.899769897E0,1.020046416E1
1.129517742E1,8.620872803E0,-4.644391937E0,-3.156036987E0,1.028836206E1
1.130523442E1,8.658744049E0,-4.578828278E0,-3.417842560E0,1.037406211E1
1.131529042E1,8.736133118E0,-4.576582947E0,-3.670217743E0,1.052309990E1
1.132534742E1,8.871601410E0,-4.625082092E0,-3.925287323E0,1.074730555E1
1.133540342E1,8.969797211E0,-4.656965790E0,-4.155957642E0,1.092778918E1
1.134546042E1,9.041049042E0,-4.692292328E0,-4.346062317E0,1.107458499E1
1.135551642E1,9.130862274E0,-4.690945129E0,-4.469705200E0,1.119624386E1
1.136557342E1,9.117240601E0,-4.609813843E0,-4.514162750E0,1.116924909E1
1.137562942E1,9.018446045E0,-4.430935822E0,-4.510719910E0,1.101417974E1
1.138568642E1,8.898395691E0,-4.226461029E0,-4.440066833E0,1.080548991E1
1.139574242E1,8.769962769E0,-4.013004913E0,-4.331841888E0,1.057266804E1
1.140579942E1,8.652756500E0,-3.791166229E0,-4.194727020E0,1.033628904E1
1.141585642E1,8.634793854E0,-3.629203033E0,-4.110003204E0,1.022853391E1
1.142591242E1,8.684939575E0,-3.535797272E0,-4.070036316E0,1.022229100E1
1.143596942E1,8.790919189E0,-3.513194275E0,-4.058959351E0,1.030038568E1
1.144602542E1,8.897796936E0,-3.500620422E0,-4.088298340E0,1.039900558E1
1.145608242E1,9.000932465E0,-3.497626648E0,-4.125421143E0,1.050091791E1
1.146613842E1,9.052724762E0,-3.488495636E0,-4.145329742E0,1.055012730E1
1.147619542E1,9.072333984E0,-3.492088165E0,-4.155508575E0,1.057214147E1
1.148625142E1,9.086404724E0,-3.521127777E0,-4.164639587E0,1.059742018E1
1.149630842E1,9.051377563E0,-3.549119568E0,-4.137695618E0,1.056618240E1
1.150636442E1,9.003477173E0,-3.601211243E0,-4.126918030E0,1.053863255E1
1.151642142E1,8.989406433E0,-3.706741791E0,-4.159101105E0,1.057579712E1
1.152647742E1,9.158105621E0,-3.940854950E0,-4.287084961E0,1.085266482E1
1.153653442E1,9.673932953E0,-4.492008820E0,-4.559069366E0,1.159949290E1
1.154659042E1,1.039543259E1,-5.304369507E0,-4.896916809E0,1.265626915E1
1.155664742E1,1.092997101E1,-6.087241516E0,-5.161416779E0,1.353362474E1
1.156670442E1,1.100706070E1,-6.508615265E0,-5.343587952E0,1.385898229E1
1.157676042E1,1.064825684E1,-6.504873047E0,-5.366640015E0,1.358306195E1
1.158681742E1,1.013901581E1,-6.216871948E0,-5.365442505E0,1.304749446E1
1.159687342E1,9.558972015E0,-5.712870026E0,-5.392985229E0,1.237316126E1
1.160693042E1,9.089847565E0,-5.147645416E0,-5.315596161E0,1.172088498E1
1.161698642E1,8.775501251E0,-4.636159058E0,-5.199138336E0,1.120421494E1
1.162704342E1,8.570278015E0,-4.222868500E0,-5.083878021E0,1.082257360E1
1.163709942E1,8.415948944E0,-3.937861176E0,-5.004842377E0,1.055383317E1
1.164715642E1,8.311615906E0,-3.846850433E0,-5.072351990E0,1.046947811E1
1.165721242E1,8.460406494E0,-4.169878693E0,-5.557343445E0,1.094762223E1
1.166726942E1,8.799451447E0,-4.861889648E0,-6.063890076E0,1.174048890E1
1.167732542E1,9.027726746E0,-5.529501343E0,-6.333329773E0,1.233638121E1
1.168738242E1,9.138197021E0,-6.252348175E0,-6.718179474E0,1.295115585E1
1.169743842E1,9.152267761E0,-6.868466949E0,-6.819668427E0,1.332095045E1
1.170749542E1,9.067094879E0,-7.280410309E0,-6.678062897E0,1.340944100E1
1.171755242E1,8.774303741E0,-7.498506775E0,-6.471642151E0,1.323246621E1
1.172760842E1,8.634195099E0,-7.459587708E0,-5.898484039E0,1.284472217E1
1.173766542E1,8.445587311E0,-7.151977386E0,-5.171146545E0,1.221554265E1
1.174772142E1,8.310418396E0,-6.943311310E0,-4.663552094E0,1.179073127E1
1.175777842E1,8.507109375E0,-6.743027802E0,-4.165088654E0,1.162700724E1
1.176783442E1,8.584199066E0,-6.499184875E0,-3.717669067E0,1.139073926E1
1.177789142E1,8.627459106E0,-6.428980865E0,-3.681444397E0,1.137180190E1
1.178794742E1,8.455616455E0,-6.316864014E0,-3.677402802E0,1.117691872E1
1.179800442E1,8.180488586E0,-6.251450043E0,-3.705843658E0,1.094231686E1
1.180806042E1,7.903714142E0,-6.233786774E0,-3.852688293E0,1.077831164E1
1.181811742E1,7.640261993E0,-6.253695374E0,-4.076622620E0,1.068181451E1
1.182817342E1,7.542215881E0,-6.281238098E0,-4.266128540E0,1.070228131E1
1.183823042E1,7.369774475E0,-6.193221130E0,-4.377047882E0,1.057488118E1
1.184828642E1,7.245832214E0,-6.077511749E0,-4.451742554E0,1.045257123E1
1.185834342E1,7.235354004E0,-6.007158051E0,-4.455484772E0,1.040613473E1
1.186840042E1,7.285499725E0,-5.932014313E0,-4.434827728E0,1.038917692E1
1.187845642E1,7.333549805E0,-5.845943298E0,-4.383185120E0,1.035221317E1
1.188851342E1,7.329508209E0,-5.765560455E0,-4.304748230E0,1.027103867E1
1.189856942E1,7.357799377E0,-5.808371429E0,-4.290677490E0,1.030942790E1
1.190862642E1,7.372319183E0,-5.942642212E0,-4.328548737E0,1.041164832E1
1.191868242E1,7.295828247E0,-6.066285095E0,-4.349355469E0,1.043771132E1
1.192873942E1,7.159461823E0,-6.106251984E0,-4.328249359E0,1.035750691E1
1.193879542E1,7.005282440E0,-6.123166809E0,-4.236490173E0,1.022325794E1
1.194885242E1,6.768175507E0,-6.111940155E0,-4.160148926E0,1.002351491E1
1.195890842E1,6.486161957E0,-6.046825562E0,-4.077371063E0,9.760089707E0
1.196896542E1,6.265371094E0,-6.012546844E0,-3.952530670E0,9.540864384E0
1.197902142E1,6.042035522E0,-6.011349335E0,-3.851191406E0,9.352763727E0
1.198907842E1,5.782924347E0,-5.942193146E0,-3.735931091E0,9.094451853E0
1.199913442E1,5.503006439E0,-5.853427734E0,-3.615431671E0,8.810053478E0
1.200919142E1,5.258564758E0,-5.752537537E0,-3.484304352E0,8.537245940E0
1.201924842E1,4.997058563E0,-5.638774109E0,-3.376229095E0,8.256227385E0
1.202930442E1,4.720433807E0,-5.515580292E0,-3.277135162E0,7.965157635E0
1.203936142E1,4.511618042E0,-5.392536163E0,-3.208428040E0,7.728399195E0
1.204941742E1,4.374652863E0,-5.309608612E0,-3.215613098E0,7.594056813E0
1.205947442E1,4.225413208E0,-5.203628998E0,-3.197800140E0,7.426829557E0
1.206953042E1,4.176315308E0,-5.101840668E0,-3.202141113E0,7.329672261E0
1.207958742E1,4.274960175E0,-4.973856812E0,-3.246598663E0,7.318124005E0
1.208964342E1,4.526586914E0,-4.859045563E0,-3.366199951E0,7.445241096E0
1.209970042E1,5.003195801E0,-4.934937744E0,-3.628155212E0,7.908798202E0
1.210975642E1,5.838758240E0,-5.381908264E0,-4.195625153E0,8.981052542E0
1.211981342E1,6.684948578E0,-6.218668213E0,-5.036726074E0,1.042731899E1
1.212986942E1,7.560926971E0,-7.251969452E0,-5.843398590E0,1.199599869E1
1.213992642E1,8.236921234E0,-8.213719482E0,-6.498735809E0,1.332462481E1
1.214998242E1,8.311915283E0,-8.713230743E0,-6.647077332E0,1.375470693E1
1.216003942E1,7.625592499E0,-8.511300659E0,-6.202052765E0,1.300220590E1
1.217009642E1,6.734645233E0,-7.571854248E0,-5.285957794E0,1.142933826E1
1.218015242E1,6.420747986E0,-6.457870789E0,-4.292174377E0,1.006741579E1
1.219020942E1,6.460415497E0,-5.450914764E0,-3.706442413E0,9.229688810E0
1.220026542E1,6.754553833E0,-4.628075867E0,-3.513194275E0,8.909860702E0
1.221032242E1,7.275171204E0,-4.265679474E0,-3.662583618E0,9.194490534E0
1.222037842E1,7.769443359E0,-4.263434143E0,-3.967349854E0,9.709839631E0
1.223043542E1,8.094567261E0,-4.474794617E0,-4.298012238E0,1.019895657E1
1.224049142E1,8.259524231E0,-4.721481628E0,-4.461622009E0,1.050800648E1
1.225054842E1,8.344846802E0,-5.095853119E0,-4.685855713E0,1.084257492E1
1.226060442E1,8.271050262E0,-5.502257996E0,-4.876708832E0,1.106649920E1
1.227066142E1,8.290958862E0,-5.773943024E0,-4.868326263E0,1.121512450E1
1.228071742E1,8.408763885E0,-6.065087585E0,-4.924758911E0,1.147805941E1
1.229077442E1,8.578211517E0,-6.289620667E0,-4.963827667E0,1.173816962E1
1.230083142E1,8.635841675E0,-6.251599731E0,-4.965324554E0,1.176072738E1
1.231088742E1,8.532406769E0,-5.863157501E0,-4.797074432E0,1.141010536E1
1.232094442E1,8.472531281E0,-5.410947876E0,-4.545148315E0,1.103270214E1
1.233100042E1,8.511450348E0,-5.064717865E0,-4.469106445E0,1.086595907E1
1.234105742E1,8.497978363E0,-4.782255249E0,-4.396058350E0,1.069630453E1
1.235111342E1,8.440946960E0,-4.516857147E0,-4.324207764E0,1.050477781E1
1.236117042E1,8.358767853E0,-4.287683716E0,-4.198768616E0,1.028994118E1
1.237122642E1,8.364456024E0,-4.200415192E0,-4.161496124E0,1.024332282E1
1.238128342E1,8.463699646E0,-4.297712860E0,-4.160597992E0,1.036412674E1
1.239133942E1,8.467292175E0,-4.371210022E0,-4.175117798E0,1.040356297E1
1.240139642E1,8.405470734E0,-4.446952515E0,-4.294569397E0,1.043410999E1
1.241145242E1,8.426876221E0,-4.650678864E0,-4.556973724E0,1.064927539E1
1.242150942E1,8.503516846E0,-4.749922485E0,-4.797822876E0,1.085774685E1
1.243156542E1,8.608298950E0,-4.765190735E0,-4.994962921E0,1.103446909E1
1.244162242E1,8.647517395E0,-4.690795441E0,-5.096002808E0,1.107936657E1
1.245167842E1,8.701854401E0,-4.600682831E0,-5.183720398E0,1.112472515E1
1.246173542E1,8.817414093E0,-4.566703491E0,-5.229225769E0,1.122258322E1
1.247179242E1,8.896749115E0,-4.521347809E0,-5.216801605E0,1.126098352E1
1.248184842E1,9.023086395E0,-4.496798859E0,-5.193599854E0,1.134066874E1
1.249190542E1,9.163344727E0,-4.503983917E0,-5.151986389E0,1.143659571E1
1.250196142E1,9.195378113E0,-4.436474304E0,-5.035378876E0,1.138386241E1
1.251201842E1,9.190887451E0,-4.334536285E0,-4.890180817E0,1.127716655E1
1.252207442E1,9.091494141E0,-4.217330017E0,-4.761897583E0,1.109580131E1
1.253213142E1,8.977730713E0,-4.037703552E0,-4.653522949E0,1.088843306E1
1.254218742E1,8.822952576E0,-3.805985413E0,-4.537214813E0,1.062620983E1
1.255224442E1,8.755892029E0,-3.692970428E0,-4.486021271E0,1.050847575E1
1.256230042E1,8.700507202E0,-3.598965912E0,-4.501139832E0,1.043607402E1
1.257235742E1,8.672066345E0,-3.553011475E0,-4.517904968E0,1.040384979E1
1.258241342E1,8.671018524E0,-3.540737000E0,-4.557273102E0,1.041595501E1
1.259247042E1,8.663085022E0,-3.466491394E0,-4.581223297E0,1.039486467E1
1.260252642E1,8.709638214E0,-3.452720032E0,-4.601431274E0,1.043801912E1
1.261258342E1,8.767418060E0,-3.447929993E0,-4.605173492E0,1.048634653E1
1.262263942E1,8.770112457E0,-3.414848785E0,-4.585713959E0,1.046923289E1
1.263269642E1,8.807384949E0,-3.354823608E0,-4.517156525E0,1.045129533E1
1.264275342E1,8.783285065E0,-3.328029327E0,-4.422852631E0,1.038188331E1
1.265280942E1,8.847800903E0,-3.325783997E0,-4.343816986E0,1.040255574E1
1.266286642E1,9.350156250E0,-3.628454590E0,-4.475692749E0,1.098284709E1
1.267292242E1,1.036399796E1,-4.475243683E0,-4.872667236E0,1.229565556E1
1.268297942E1,1.114851654E1,-5.431904297E0,-5.221891022E0,1.345597084E1
1.269303542E1,1.150028503E1,-6.093378754E0,-5.371130676E0,1.407959038E1
1.270309242E1,1.151914581E1,-6.564598846E0,-5.394631805E0,1.431386498E1
1.271314842E1,1.127919479E1,-6.693780212E0,-5.216502228E0,1.411519834E1
1.272320542E1,1.063568298E1,-6.419849854E0,-4.766088867E0,1.330593205E1
1.273326142E1,9.949659576E0,-5.952521667E0,-4.273463287E0,1.235680899E1
1.274331842E1,9.480385437E0,-5.507497101E0,-3.848347321E0,1.161981108E1
1.275337442E1,8.979227600E0,-5.028942261E0,-3.493285675E0,1.086829487E1
1.276343142E1,8.541388092E0,-4.576133881E0,-3.128643951E0,1.018256966E1
1.277348742E1,8.364156647E0,-4.295317841E0,-2.948418732E0,9.854036979E0
1.278354442E1,8.518635406E0,-4.320016479E0,-3.007845154E0,1.001383164E1
1.279360142E1,9.062304840E0,-4.719685364E0,-3.290457458E0,1.073442636E1
1.280365742E1,9.764494629E0,-5.453309784E0,-3.748804321E0,1.179565500E1
1.281371442E1,1.017209702E1,-6.231242065E0,-4.142036591E0,1.262760478E1
1.282377042E1,1.032747391E1,-6.879843292E0,-4.445006561E0,1.318131421E1
1.283382742E1,1.040935364E1,-7.395520935E0,-4.599784698E0,1.357226556E1
1.284388342E1,1.035816010E1,-7.779622192E0,-4.586013336E0,1.374210757E1
1.285394042E1,1.014994308E1,-7.962541809E0,-4.430786133E0,1.364020830E1
1.286399642E1,9.912686462E0,-7.985743561E0,-4.185895386E0,1.339981990E1
1.287405342E1,9.602830811E0,-7.854167175E0,-3.823349304E0,1.298153695E1
1.288410942E1,9.370214539E0,-7.788603516E0,-3.548670502E0,1.269079696E1
1.289416642E1,9.216783600E0,-7.657775574E0,-3.260070648E0,1.241848168E1
1.290422242E1,8.868457947E0,-7.361092529E0,-2.995121613E0,1.190823173E1
1.291427942E1,8.520431671E0,-7.095844116E0,-2.797981567E0,1.143579732E1
1.292433542E1,8.167465668E0,-6.856641541E0,-2.733914795E0,1.100887455E1
1.293439242E1,7.829767914E0,-6.612499237E0,-2.741249542E0,1.060871627E1
1.294444942E1,7.497009888E0,-6.385122070E0,-2.824925537E0,1.024476185E1
1.295450542E1,7.235803070E0,-6.213279419E0,-2.967129822E0,9.988270450E0
1.296456242E1,6.999145203E0,-6.060746613E0,-3.146007843E0,9.778448160E0
1.297461842E1,6.797813873E0,-5.979166260E0,-3.318000183E0,9.642086280E0
1.298467542E1,6.685247955E0,-5.953270111E0,-3.437900848E0,9.589219336E0
1.299473142E1,6.559808807E0,-5.962251434E0,-3.466042328E0,9.518034628E0
1.300478842E1,6.420298920E0,-5.917045441E0,-3.414100342E0,9.374846458E0
1.301484442E1,6.325845337E0,-5.887407074E0,-3.323388977E0,9.258660571E0
1.302490142E1,6.269712067E0,-5.889502716E0,-3.244353333E0,9.193549923E0
1.303495742E1,6.207441559E0,-5.911357269E0,-3.182681580E0,9.143628246E0
1.304501442E1,6.088139648E0,-5.853278046E0,-3.104993134E0,8.998182629E0
1.305507042E1,5.943540344E0,-5.762866058E0,-3.050955505E0,8.822960191E0
1.306512742E1,5.815257111E0,-5.709576874E0,-3.067570953E0,8.707839852E0
1.307518342E1,5.731730804E0,-5.658832397E0,-3.132386169E0,8.642162069E0
1.308524042E1,5.679489441E0,-5.627248077E0,-3.190465393E0,8.608228079E0
1.309529642E1,5.643863525E0,-5.586832123E0,-3.256627808E0,8.583211132E0
1.310535342E1,5.645360413E0,-5.533393250E0,-3.312761078E0,8.571051336E0
1.311541042E1,5.651347961E0,-5.487289124E0,-3.374582520E0,8.569473898E0
1.312546646E1,5.677693176E0,-5.447920990E0,-3.454366608E0,8.593526143E0
1.313552346E1,5.803731079E0,-5.447022858E0,-3.590882721E0,8.731998120E0
1.314557946E1,5.935157776E0,-5.482199707E0,-3.728446655E0,8.898422664E0
1.315563646E1,6.088289337E0,-5.554649048E0,-3.868255920E0,9.104108796E0
1.316569246E1,6.209836578E0,-5.614823914E0,-3.981869659E0,9.270577323E0
1.317574946E1,6.252647552E0,-5.596112823E0,-4.087400208E0,9.333751690E0
1.318580546E1,6.289470978E0,-5.534890137E0,-4.150568848E0,9.349848970E0
1.319586246E1,6.289321289E0,-5.452711029E0,-4.195924530E0,9.321663076E0
1.320591846E1,6.257886658E0,-5.276377716E0,-4.255800018E0,9.225678350E0
1.321597546E1,6.187682648E0,-5.100343781E0,-4.314477997E0,9.105802744E0
1.322603146E1,6.154152374E0,-4.995262299E0,-4.497846680E0,9.113553732E0
1.323608846E1,6.404132538E0,-5.136867828E0,-4.921765137E0,9.572047676E0
1.324614546E1,7.046596527E0,-5.735473022E0,-5.592669983E0,1.066902671E1
1.325620146E1,7.739355927E0,-6.596931610E0,-6.303541718E0,1.196460509E1
1.326625846E1,8.060438232E0,-7.330705719E0,-6.740782471E0,1.281202791E1
1.327631446E1,7.914641418E0,-7.702831879E0,-6.753056946E0,1.294522869E1
1.328637146E1,7.357500000E0,-7.562274170E0,-6.298003235E0,1.228762148E1
1.329642746E1,6.763385468E0,-6.903943176E0,-5.572012939E0,1.115594651E1
1.330648446E1,6.315067749E0,-6.076314240E0,-4.855003967E0,1.001861961E1
1.331654046E1,5.974675598E0,-5.223387909E0,-4.327500916E0,9.039236357E0
1.332659746E1,5.816604309E0,-4.327351227E0,-3.890858917E0,8.227857403E0
1.333665346E1,5.944737854E0,-3.090922394E0,-3.588936768E0,7.600932609E0
1.334671046E1,6.728957062E0,-2.214794312E0,-4.130510559E0,8.200322827E0
1.335676646E1,7.933352509E0,-2.646945648E0,-5.125940552E0,9.809162545E0
1.336682346E1,8.291407928E0,-4.289180603E0,-5.951773224E0,1.107104874E1
1.337687946E1,7.659871216E0,-4.240531769E0,-6.067781982E0,1.065240418E1
1.338693646E1,7.143894196E0,-4.219725037E0,-6.100114746E0,1.029818933E1
1.339699246E1,7.319928131E0,-4.778363342E0,-6.429729309E0,1.085152169E1
1.340704946E1,7.554939423E0,-5.345234528E0,-6.646628265E0,1.139413486E1
1.341710646E1,7.689359894E0,-5.778583374E0,-6.682104492E0,1.171190855E1
1.342716246E1,7.704029388E0,-5.944588165E0,-6.597230988E0,1.175643032E1
1.343721946E1,7.719297638E0,-5.889951782E0,-6.457721100E0,1.166109985E1
1.344727546E1,7.752528534E0,-5.639522552E0,-6.277944946E0,1.145942870E1
1.345733246E1,7.824229431E0,-5.287155304E0,-6.055208130E0,1.121775926E1
1.346738846E1,7.922275543E0,-4.968617706E0,-5.911956024E0,1.106349112E1
1.347744546E1,7.923622742E0,-4.711751862E0,-5.805078278E0,1.089418821E1
1.348750146E1,7.829169159E0,-4.429888000E0,-5.681884460E0,1.063971844E1
1.349755846E1,7.772437134E0,-4.245471497E0,-5.524561615E0,1.043817936E1
1.350761446E1,7.767347717E0,-4.082310791E0,-5.466632080E0,1.033832763E1
1.351767146E1,7.755222931E0,-4.003125458E0,-5.443879395E0,1.028612264E1
1.352772746E1,7.876021729E0,-4.025878143E0,-5.397026825E0,1.036181990E1
1.353778446E1,7.863747253E0,-3.980672150E0,-5.346282349E0,1.030858897E1
1.354784046E1,7.812254333E0,-3.875291290E0,-5.402265930E0,1.025834673E1
1.355789746E1,7.836204529E0,-3.913312225E0,-5.543422394E0,1.036579210E1
1.356795346E1,7.853568420E0,-3.953129425E0,-5.645959167E0,1.044904896E1
1.357801046E1,7.833659821E0,-3.960613861E0,-5.732179871E0,1.048382442E1
1.358806746E1,7.820936279E0,-3.986510010E0,-5.724695435E0,1.048004982E1
1.359812346E1,7.831713867E0,-4.041296082E0,-5.685327301E0,1.048764810E1
1.360818046E1,7.825127563E0,-4.074976044E0,-5.545967102E0,1.042093097E1
1.361823646E1,7.810009003E0,-4.110452271E0,-5.340594177E0,1.031571639E1
1.362829346E1,7.850874023E0,-4.174069977E0,-5.086123352E0,1.024342393E1
1.363834946E1,7.879165192E0,-4.241130524E0,-4.838687897E0,1.017257749E1
1.364840646E1,7.870932312E0,-4.271068268E0,-4.577481079E0,1.005718314E1
1.365846246E1,7.880512390E0,-4.273612976E0,-4.334985352E0,9.957828147E0
1.366851946E1,7.931406555E0,-4.267625427E0,-4.080514526E0,9.887893382E0
1.367857546E1,8.057743835E0,-4.304598541E0,-3.898193665E0,9.932407471E0
1.368863246E1,8.200995941E0,-4.402644653E0,-3.762725372E0,1.003980660E1
1.369868846E1,8.300389252E0,-4.542304230E0,-3.659290466E0,1.014491972E1
1.370874546E1,8.378676453E0,-4.644092560E0,-3.573219452E0,1.022436854E1
1.371880146E1,8.417445831E0,-4.728516998E0,-3.557502136E0,1.028922197E1
1.372885846E1,8.442593536E0,-4.812043304E0,-3.560346222E0,1.034935803E1
1.373891446E1,8.465944977E0,-4.868625641E0,-3.538641357E0,1.038738286E1
1.374897146E1,8.395890656E0,-4.801714783E0,-3.485202484E0,1.028076267E1
1.375902846E1,8.383017426E0,-4.687352600E0,-3.454067230E0,1.020670544E1
1.376908446E1,8.626860352E0,-4.704566803E0,-3.498225403E0,1.043040025E1
1.377914146E1,9.140442352E0,-4.992717590E0,-3.676205292E0,1.104488120E1
1.378919746E1,9.891580353E0,-5.538482666E0,-3.964356079E0,1.200975733E1
1.379925446E1,1.074256073E1,-6.262377319E0,-4.304448853E0,1.315858126E1
1.380931046E1,1.117291580E1,-6.819369049E0,-4.343667297E0,1.379149330E1
1.381936746E1,1.102187988E1,-6.910379791E0,-4.112547913E0,1.364361519E1
1.382942346E1,1.048285080E1,-6.588249664E0,-3.671714630E0,1.291420469E1
1.383948046E1,9.968520355E0,-6.116430817E0,-3.176244965E0,1.211902043E1
1.384953646E1,9.777218170E0,-5.788462830E0,-2.834954681E0,1.171056212E1
1.385959346E1,9.661059723E0,-5.563181305E0,-2.619702301E0,1.145198242E1
1.386964946E1,9.612111511E0,-5.309309235E0,-2.357747040E0,1.123122537E1
1.387970646E1,9.494456177E0,-5.120402069E0,-2.117646332E0,1.099307243E1
1.388976246E1,9.467961273E0,-5.046006775E0,-2.006876678E0,1.091476198E1
1.389981946E1,9.589807892E0,-5.196893005E0,-2.056273956E0,1.109956643E1
1.390987546E1,9.789792023E0,-5.550457764E0,-2.248773651E0,1.147626212E1
1.391993246E1,9.896220703E0,-6.011199646E0,-2.521057434E0,1.185012388E1
1.392998946E1,9.831704865E0,-6.405479736E0,-2.805466003E0,1.206495879E1
1.394004546E1,9.767787781E0,-6.660699005E0,-2.982398071E0,1.219300158E1
1.395010246E1,9.665550385E0,-6.780599670E0,-3.080144806E0,1.220191330E1
1.396015846E1,9.560618591E0,-6.768025818E0,-3.086132355E0,1.211345592E1
1.397021546E1,9.559121704E0,-6.704258423E0,-3.020718384E0,1.206020847E1
1.398027146E1,9.595046997E0,-6.677613831E0,-2.991379395E0,1.206664013E1
1.399032846E1,9.614955597E0,-6.668632507E0,-2.937790833E0,1.206435434E1
1.400038446E1,9.572444000E0,-6.675069122E0,-2.915786591E0,1.202871744E1
1.401044146E1,9.454489288E0,-6.727909241E0,-2.912343750E0,1.196385709E1
1.402049746E1,9.259145508E0,-6.763834534E0,-2.911595306E0,1.183041083E1
1.403055446E1,8.931925964E0,-6.753356323E0,-2.938239899E0,1.157671701E1
1.404061046E1,8.789272614E0,-6.896309052E0,-2.986589355E0,1.156417345E1
1.405066746E1,8.597371674E0,-6.991960144E0,-3.045267334E0,1.149243053E1
1.406072346E1,8.384214935E0,-7.071295166E0,-3.051554260E0,1.138465014E1
1.407078046E1,8.176147614E0,-7.140601044E0,-3.068618774E0,1.128069121E1
1.408083646E1,8.015531616E0,-7.218588867E0,-3.088976440E0,1.122045221E1
1.409089346E1,7.852370911E0,-7.220684509E0,-3.094963989E0,1.110751168E1
1.410095046E1,7.707921295E0,-7.231162720E0,-3.130739594E0,1.102285332E1
1.411100646E1,7.558831329E0,-7.190447388E0,-3.153342590E0,1.089871709E1
1.412106346E1,7.425009613E0,-7.080725555E0,-3.174299011E0,1.073981454E1
1.413111917E1,7.293283539E0,-6.970704346E0,-3.251388702E0,1.059972794E1
1.414117617E1,7.133865051E0,-6.874753876E0,-3.361559601E0,1.046204351E1
1.415123217E1,6.943011932E0,-6.763385468E0,-3.452121277E0,1.028911750E1
1.416128917E1,6.794221344E0,-6.650969238E0,-3.521127777E0,1.013879560E1
1.417134517E1,6.671775970E0,-6.475084991E0,-3.531755676E0,9.945482311E0
1.418140217E1,6.603068848E0,-6.189628601E0,-3.555107117E0,9.723723928E0
1.419145817E1,6.586453400E0,-5.935008087E0,-3.711082764E0,9.611338339E0
1.420151517E1,6.474186859E0,-5.761069794E0,-3.943699036E0,9.521438060E0
1.421157117E1,6.306236115E0,-5.628295898E0,-4.285438385E0,9.476882969E0
1.422162817E1,6.173611908E0,-5.594166870E0,-4.566703491E0,9.500682488E0
1.423168417E1,6.029012604E0,-5.629044342E0,-4.750371552E0,9.518464322E0
1.424174117E1,5.942791901E0,-5.657036133E0,-4.795577545E0,9.503493956E0
1.425179717E1,5.985453186E0,-5.734874268E0,-4.706961823E0,9.532571652E0
1.426185417E1,6.145769806E0,-5.824088745E0,-4.445156250E0,9.562944646E0
1.427191117E1,6.270161133E0,-5.845494232E0,-4.021686859E0,9.468827205E0
1.428196717E1,6.285878448E0,-5.824986877E0,-3.597019958E0,9.294153677E0
1.429202417E1,6.311175842E0,-5.868396606E0,-3.299438782E0,9.227963780E0
1.430208017E1,6.349346466E0,-5.964347076E0,-3.062182159E0,9.233883049E0
1.431213717E1,6.319259033E0,-6.029910736E0,-2.933000793E0,9.213867368E0
1.432219317E1,6.250402222E0,-6.020330658E0,-2.844385071E0,9.132493394E0
1.433225017E1,6.121520233E0,-5.918841705E0,-2.819686432E0,8.969745184E0
1.434230617E1,5.943240967E0,-5.780379639E0,-2.878514099E0,8.776146385E0
1.435236317E1,5.815107422E0,-5.585784302E0,-3.027154999E0,8.612788630E0
1.436241917E1,5.768554230E0,-5.398823090E0,-3.266507263E0,8.549478250E0
1.437247617E1,5.729934540E0,-5.258714447E0,-3.477718048E0,8.519433684E0
1.438253217E1,5.700445862E0,-5.098397827E0,-3.757186890E0,8.520868310E0
1.439258917E1,5.760770416E0,-5.024301910E0,-4.118685150E0,8.682951851E0
1.440264517E1,6.190377045E0,-5.211562500E0,-4.630171509E0,9.323070302E0
1.441270217E1,6.915768585E0,-5.793103180E0,-5.309009857E0,1.046773544E1
1.442275817E1,7.529192963E0,-6.509663086E0,-5.867199097E0,1.155372171E1
1.443281517E1,8.003706207E0,-7.188651123E0,-6.252348175E0,1.244298500E1
1.444287217E1,8.080346832E0,-7.594606934E0,-6.294560394E0,1.275113916E1
1.445292817E1,7.892637177E0,-7.614964600E0,-6.026318207E0,1.251390900E1
1.446298517E1,7.499255219E0,-7.353907471E0,-5.597609711E0,1.190176535E1
1.447304117E1,6.950196991E0,-6.831194458E0,-5.163662109E0,1.102877429E1
1.448309817E1,6.450236664E0,-6.052364044E0,-4.724176025E0,1.002768681E1
1.449315417E1,6.160439301E0,-5.269641724E0,-4.361180878E0,9.205435075E0
1.450321117E1,6.127807159E0,-4.812043304E0,-4.226910095E0,8.864115878E0
1.451326717E1,6.486910400E0,-4.740941162E0,-4.280798035E0,9.103942083E0
1.452332417E1,7.018604736E0,-4.919370117E0,-4.396956482E0,9.632976752E0
1.453338017E1,7.485932922E0,-5.221441956E0,-4.511618042E0,1.018122513E1
1.454343717E1,7.818391571E0,-5.489983521E0,-4.613406372E0,1.060899072E1
1.455349317E1,7.894283752E0,-5.658682709E0,-4.670587463E0,1.077751331E1
1.456355017E1,7.700736237E0,-5.769602051E0,-4.621489563E0,1.067463405E1
1.457360617E1,7.736960907E0,-6.018235016E0,-4.662055206E0,1.085423768E1
1.458366317E1,7.947423248E0,-6.302643585E0,-4.924459534E0,1.127542257E1
1.459371917E1,8.267607422E0,-6.440057831E0,-5.106481018E0,1.165777962E1
1.460377617E1,8.526419220E0,-6.364165649E0,-5.075345764E0,1.178819595E1
1.461383217E1,8.619226227E0,-6.124514008E0,-5.055287476E0,1.171992594E1
1.462388917E1,8.608598328E0,-5.723946991E0,-5.113516388E0,1.153341164E1
1.463394617E1,8.644523621E0,-5.468128967E0,-4.890031128E0,1.133757591E1
1.464400217E1,8.604856110E0,-5.382656708E0,-4.624333649E0,1.115351979E1
1.465405917E1,8.427624664E0,-5.180576935E0,-4.454586639E0,1.084926620E1
1.466411517E1,8.214916992E0,-4.921914825E0,-4.312681732E0,1.050282488E1
1.467417217E1,8.029003601E0,-4.681215363E0,-4.372257843E0,1.027109121E1
1.468422817E1,7.766299896E0,-4.272714844E0,-4.905898132E0,1.013110767E1
1.469428517E1,7.856412506E0,-4.170776825E0,-4.822072449E0,1.011785449E1
1.470434117E1,7.878716125E0,-4.556524658E0,-4.942272491E0,1.035674380E1
1.471439817E1,7.906857605E0,-4.519551544E0,-4.822521515E0,1.030540912E1
1.472445417E1,7.822433167E0,-4.205205231E0,-4.743635559E0,1.006857934E1
1.473451117E1,7.722291412E0,-4.086801453E0,-4.457730103E0,9.808521216E0
1.474456717E1,7.748037872E0,-4.203408966E0,-4.253255310E0,9.787283512E0
1.475462417E1,7.798482971E0,-4.340523834E0,-4.154909821E0,9.844783361E0
1.476468017E1,7.895930328E0,-4.427642670E0,-4.266427917E0,1.000760424E1
1.477473717E1,7.852370911E0,-4.420457611E0,-4.396806793E0,1.002656892E1
1.478479317E1,7.625143433E0,-4.280648346E0,-4.270170135E0,9.731449821E0
1.479485017E1,7.473658447E0,-4.232149200E0,-4.154460754E0,9.540765252E0
1.480490617E1,7.521259460E0,-4.418062592E0,-4.077071686E0,9.628662133E0
1.481496317E1,7.582332458E0,-4.432881775E0,-4.025279388E0,9.661525785E0
1.482502017E1,7.521708527E0,-4.382736053E0,-3.808679810E0,9.502132201E0
1.483507617E1,7.513176270E0,-4.330345001E0,-3.757186890E0,9.450722661E0
1.484513317E1,7.647447052E0,-4.367018738E0,-3.701951752E0,9.552944355E0
1.485518917E1,7.737260284E0,-4.450395355E0,-3.616180115E0,9.630574965E0
1.486524617E1,7.819888458E0,-4.433929596E0,-3.623215485E0,9.692165785E0
1.487530217E1,7.942633209E0,-4.426744537E0,-3.671265564E0,9.806104239E0
1.488535917E1,8.078251190E0,-4.412823486E0,-3.826792145E0,9.968725672E0
1.489541517E1,8.146808624E0,-4.398303680E0,-4.023034058E0,1.009457127E1
1.490547217E1,8.294252014E0,-4.398153992E0,-4.203858032E0,1.028643754E1
1.491552817E1,8.442593536E0,-4.340523834E0,-4.350552979E0,1.044245393E1
1.492558517E1,8.475225677E0,-4.236041107E0,-4.426744537E0,1.045799033E1
1.493564117E1,8.625513153E0,-4.181255035E0,-4.456083527E0,1.057066938E1
1.494569817E1,8.933422852E0,-4.310436401E0,-4.559219055E0,1.091661047E1
1.495575417E1,9.116941223E0,-4.430037689E0,-4.653073883E0,1.115324831E1
1.496581117E1,9.206904144E0,-4.511618042E0,-4.714895325E0,1.128503519E1
1.497586717E1,9.232949982E0,-4.634512482E0,-4.799768829E0,1.139139377E1
1.498592417E1,9.144633636E0,-4.752766571E0,-4.887187042E0,1.140603838E1
1.499598117E1,9.025631104E0,-4.878056030E0,-4.915178833E0,1.137613425E1
1.500603717E1,8.986562347E0,-5.022505646E0,-4.900209961E0,1.140157548E1
1.501609417E1,8.992849274E0,-5.147944794E0,-4.826263733E0,1.143090090E1
1.502615017E1,9.041947174E0,-5.203329620E0,-4.701722717E0,1.144279880E1
1.503620717E1,8.990753632E0,-5.175936584E0,-4.545148315E0,1.132617957E1
1.504626317E1,8.856632538E0,-5.100942535E0,-4.383185120E0,1.112078533E1
1.505632017E1,8.630901947E0,-5.022655334E0,-4.261338501E0,1.085718844E1
1.506637617E1,8.349038086E0,-4.930896149E0,-4.174519043E0,1.055683584E1
1.507643317E1,8.171956329E0,-4.921914825E0,-4.162543945E0,1.040830860E1
1.508648917E1,8.436456299E0,-5.237308960E0,-4.440366211E0,1.087750211E1
1.509654617E1,9.172775116E0,-6.055507507E0,-4.963977356E0,1.206026723E1
1.510660217E1,1.013242950E1,-7.188950500E0,-5.601351929E0,1.362799620E1
1.511665917E1,1.099313965E1,-8.493936768E0,-6.411766663E0,1.530055008E1
1.512671642E1,1.134026779E1,-9.545949097E0,-6.953789520E0,1.637321002E1
1.513677342E1,1.093326416E1,-9.877659302E0,-7.019951935E0,1.632127886E1
1.514682942E1,9.834848328E0,-9.307195587E0,-6.661297760E0,1.509042806E1
1.515688642E1,8.444988556E0,-8.071365509E0,-5.985153809E0,1.312580813E1
1.516694242E1,7.376809845E0,-6.749913483E0,-5.498066711E0,1.141084541E1
1.517699942E1,7.168892212E0,-5.900579681E0,-5.103337555E0,1.059499459E1
1.518705642E1,7.348818054E0,-5.473817139E0,-4.636159058E0,1.026945820E1
1.519711242E1,7.909402313E0,-5.745801544E0,-4.737648010E0,1.086361768E1
1.520716942E1,8.481213226E0,-6.430627441E0,-5.013973389E0,1.176536766E1
1.521722542E1,8.459059296E0,-7.105274506E0,-5.356610870E0,1.227737309E1
1.522728242E1,7.827522583E0,-7.641160126E0,-5.742358704E0,1.235443731E1
1.523733842E1,8.113877106E0,-8.252488861E0,-5.684878235E0,1.289404570E1
1.524739542E1,8.001011810E0,-7.164551239E0,-4.518503723E0,1.165177499E1
1.525745142E1,8.444988556E0,-7.296726379E0,-5.199587402E0,1.231242286E1
1.526750842E1,8.949738922E0,-8.296048279E0,-5.220394135E0,1.327308399E1
1.527756442E1,8.405321045E0,-7.646548920E0,-4.716990967E0,1.230321649E1
1.528762142E1,8.052355042E0,-7.367828522E0,-4.364923096E0,1.175490844E1
1.529767742E1,7.952362976E0,-7.270081787E0,-4.303550720E0,1.160235816E1
1.530773442E1,7.798632660E0,-7.037166138E0,-4.165088654E0,1.129992664E1
1.531779042E1,7.502099304E0,-6.650969238E0,-3.977678375E0,1.078604705E1
1.532784742E1,7.261399841E0,-6.300398254E0,-3.853586426E0,1.035727156E1
1.533790342E1,7.090904388E0,-6.090684357E0,-3.865112457E0,1.011515968E1
1.534796042E1,6.889273682E0,-5.923032990E0,-3.930077362E0,9.898985793E0
1.535801642E1,6.686146088E0,-5.798342285E0,-4.020489349E0,9.720579066E0
1.536807342E1,6.495143280E0,-5.703589325E0,-4.111649780E0,9.572015531E0
1.537813042E1,6.293811951E0,-5.650898895E0,-4.186643829E0,9.437834166E0
1.538818642E1,6.121969299E0,-5.598807220E0,-4.191433868E0,9.294797914E0
1.539824342E1,5.990243225E0,-5.545518036E0,-4.157753906E0,9.160933453E0
1.540829942E1,5.881569214E0,-5.507497101E0,-4.097129974E0,9.039460977E0
1.541835642E1,5.798042908E0,-5.485043793E0,-4.050876160E0,8.950564487E0
1.542841242E1,5.707181854E0,-5.459896088E0,-3.997586975E0,8.852293015E0
1.543846942E1,5.599705353E0,-5.436844025E0,-3.954027557E0,8.749303224E0
1.544852542E1,5.463787994E0,-5.408852234E0,-3.895199890E0,8.618656735E0
1.545858242E1,5.324427795E0,-5.361400909E0,-3.836521912E0,8.474258164E0
1.546863842E1,5.204976196E0,-5.301974487E0,-3.773502960E0,8.333188781E0
1.547869542E1,5.121300201E0,-5.250182190E0,-3.715872803E0,8.221912154E0
1.548875142E1,5.042114868E0,-5.205874329E0,-3.686683502E0,8.131155214E0
1.549880842E1,4.972808990E0,-5.163961487E0,-3.625909882E0,8.033837810E0
1.550886442E1,4.897964630E0,-5.099146271E0,-3.519331512E0,7.897913934E0
1.551892142E1,4.830904083E0,-5.051096191E0,-3.436703339E0,7.788590170E0
1.552897742E1,4.781955872E0,-5.014422455E0,-3.366050262E0,7.703364777E0
1.553903442E1,4.746479645E0,-5.006339264E0,-3.300187225E0,7.647466088E0
1.554909142E1,4.711153107E0,-5.017715607E0,-3.264261932E0,7.617600637E0
1.555914742E1,4.653672638E0,-5.014721832E0,-3.234773254E0,7.567553243E0
1.556920442E1,4.588108978E0,-5.021906891E0,-3.241958313E0,7.535289412E0
1.557926042E1,4.554429016E0,-5.044360199E0,-3.292852478E0,7.551905119E0
1.558931742E1,4.535268860E0,-5.074747009E0,-3.395239563E0,7.605877499E0
1.559937342E1,4.562512207E0,-5.054988098E0,-3.536545715E0,7.673107448E0
1.560943042E1,4.697531433E0,-5.039719849E0,-3.669768677E0,7.805945161E0
1.561948642E1,4.893473969E0,-5.067262573E0,-3.786825256E0,7.997704858E0
1.562954342E1,5.035079498E0,-5.086273041E0,-3.918551331E0,8.159487945E0
1.563959942E1,5.145400085E0,-5.093009033E0,-4.032763824E0,8.287162790E0
1.564965642E1,5.252577209E0,-5.122946777E0,-4.118236084E0,8.413918200E0
1.565971242E1,5.340145111E0,-5.153782654E0,-4.151167603E0,8.503576772E0
1.566976942E1,5.490731964E0,-5.186863861E0,-4.171076202E0,8.628416477E0
1.567982542E1,5.717809753E0,-5.252876587E0,-4.249662781E0,8.851310330E0
1.568988242E1,6.191424866E0,-5.489384766E0,-4.499044189E0,9.418518227E0
1.569993842E1,7.068451080E0,-6.104156342E0,-5.008285217E0,1.059748301E1
1.570999542E1,8.182584229E0,-7.144193573E0,-5.678740997E0,1.225733600E1
1.572005142E1,9.074878693E0,-8.195457458E0,-6.152356110E0,1.368833196E1
1.573010842E1,9.681716766E0,-8.878038025E0,-6.205645294E0,1.452808426E1
1.574016442E1,1.017494110E1,-9.346414032E0,-6.072272644E0,1.509163267E1
1.575022142E1,1.042881317E1,-9.442963257E0,-5.739364929E0,1.519440716E1
1.576027842E1,1.026729904E1,-9.071435852E0,-5.090763702E0,1.461589043E1
1.577033442E1,1.016745667E1,-8.529862061E0,-4.408332825E0,1.398460297E1
1.578039142E1,1.016700760E1,-7.947572937E0,-3.809877319E0,1.345537529E1
1.579044742E1,1.010009674E1,-7.233108673E0,-3.256927185E0,1.284279525E1
1.580050442E1,9.990374908E0,-6.406976624E0,-2.790048065E0,1.219185419E1
1.581056042E1,9.855355682E0,-5.611530762E0,-2.500250702E0,1.161329267E1
1.582061742E1,9.825567627E0,-4.962480469E0,-2.421215057E0,1.127077078E1
1.583067342E1,9.872120819E0,-4.467010803E0,-2.506837006E0,1.112192370E1
1.584073042E1,9.973759460E0,-4.177363129E0,-2.769540710E0,1.116228454E1
1.585078642E1,1.002375549E1,-4.059408417E0,-3.105591888E0,1.125162974E1
1.586084342E1,1.017419266E1,-4.201612701E0,-3.585793304E0,1.157694516E1
1.587089942E1,1.026984375E1,-4.540507965E0,-4.104764099E0,1.195554229E1
1.588095642E1,1.035217255E1,-4.921465759E0,-4.453389130E0,1.229719384E1
1.589101242E1,1.032373169E1,-5.366190948E0,-4.774621124E0,1.257666284E1
1.590106942E1,1.020697449E1,-5.738766174E0,-5.022056580E0,1.274114664E1
1.591112542E1,9.957443390E0,-6.014941864E0,-5.043312378E0,1.267932192E1
1.592118242E1,9.620643768E0,-6.223308563E0,-5.041216736E0,1.251799593E1
1.593123842E1,9.302106171E0,-6.342610474E0,-4.904251556E0,1.228045480E1
1.594129542E1,8.938512268E0,-6.355633392E0,-4.568350067E0,1.188111526E1
1.595135242E1,8.727151794E0,-6.251300354E0,-4.105662231E0,1.149340667E1
1.596140842E1,8.566086731E0,-6.127807159E0,-3.654350739E0,1.114819007E1
1.597146542E1,8.432265015E0,-5.980214081E0,-3.231779480E0,1.083099498E1
1.598152142E1,8.199798431E0,-5.753136292E0,-2.801424408E0,1.040111774E1
1.599157842E1,7.967182159E0,-5.509143677E0,-2.443967743E0,9.989976674E0
1.600163442E1,7.722890167E0,-5.302273865E0,-2.172731781E0,9.616543249E0
1.601169142E1,7.525600433E0,-5.138664093E0,-2.077529755E0,9.346478504E0
1.602174742E1,7.342830505E0,-5.051994324E0,-2.124382324E0,9.162576425E0
1.603180442E1,7.193590851E0,-5.011877747E0,-2.334245911E0,9.072781924E0
1.604186042E1,7.102580109E0,-5.009782104E0,-2.638862457E0,9.083400024E0
1.605191742E1,7.103178864E0,-5.018763428E0,-2.933898926E0,9.178828859E0
1.606197342E1,7.130422211E0,-5.013224945E0,-3.225492554E0,9.294038276E0
1.607203042E1,7.198829956E0,-4.997208252E0,-3.510948944E0,9.440445198E0
1.608208642E1,7.294181671E0,-4.946613464E0,-3.755989380E0,9.580267597E0
1.609214342E1,7.418423309E0,-4.891677704E0,-4.001927948E0,9.745611446E0
1.610219942E1,7.508236542E0,-4.807552643E0,-4.182302856E0,9.847732509E0
1.611225642E1,7.608827362E0,-4.714745636E0,-4.315525818E0,9.937144626E0
1.612231242E1,7.711214447E0,-4.637655945E0,-4.412224731E0,1.002189643E1
1.613236871E1,7.876770172E0,-4.586462402E0,-4.486021271E0,1.015891395E1
1.614242471E1,7.944130096E0,-4.495002594E0,-4.469854889E0,1.016335840E1
1.615248171E1,8.008496246E0,-4.343068542E0,-4.393513641E0,1.011440649E1
1.616253871E1,8.131690063E0,-4.245471497E0,-4.299509125E0,1.013085338E1
1.617259471E1,8.219707031E0,-4.081113281E0,-4.229155426E0,1.010469321E1
1.618265171E1,8.332422638E0,-3.967200165E0,-4.170178070E0,1.012710863E1
1.619270771E1,8.505612488E0,-3.871549072E0,-4.146227875E0,1.022377335E1
1.620276471E1,8.649912415E0,-3.795956268E0,-4.186045074E0,1.033214606E1
1.621282071E1,8.809330902E0,-3.771706696E0,-4.301455078E0,1.050393251E1
1.622287771E1,8.952732697E0,-3.785777435E0,-4.449347534E0,1.069019303E1
1.623293371E1,9.005423126E0,-3.804787903E0,-4.644990692E0,1.082358514E1
1.624299071E1,9.092691650E0,-3.818559265E0,-4.875511322E0,1.100132024E1
1.625304671E1,9.210945740E0,-3.791914673E0,-5.120701447E0,1.120007686E1
1.626310371E1,9.444011078E0,-3.854484558E0,-5.545368347E0,1.161023284E1
1.627315971E1,9.793085175E0,-4.108057251E0,-6.143075409E0,1.226857885E1
1.628321671E1,1.014934433E1,-4.617148590E0,-6.693929901E0,1.300522775E1
1.629327271E1,1.056009018E1,-5.320984955E0,-7.188651123E0,1.383853643E1
1.630332971E1,1.062610291E1,-5.839955750E0,-7.510182495E0,1.426260801E1
1.631338571E1,1.037432648E1,-6.021827545E0,-7.566315765E0,1.418231967E1
1.632344271E1,9.969418488E0,-5.962999878E0,-7.286996613E0,1.371302272E1
1.633349871E1,9.585466919E0,-5.796845398E0,-6.849157104E0,1.312994843E1
1.634355571E1,9.323960724E0,-5.537135468E0,-6.317762146E0,1.255030802E1
1.635361271E1,9.087452545E0,-5.227728882E0,-5.740113373E0,1.195239911E1
1.636366871E1,8.798403625E0,-4.938979340E0,-5.245242462E0,1.137180688E1
1.637372571E1,8.364006958E0,-4.682412872E0,-4.828359375E0,1.073287738E1
1.638378171E1,7.851921844E0,-4.495751038E0,-4.445305939E0,1.008093244E1
1.639383871E1,7.465425568E0,-4.500092010E0,-4.312532043E0,9.725293807E0
1.640389471E1,7.190597076E0,-4.609664154E0,-4.360731812E0,9.590081953E0
1.641395171E1,7.000193024E0,-4.768633575E0,-4.484225006E0,9.583884518E0
1.642400771E1,6.996151428E0,-5.025649109E0,-4.774621124E0,9.848872557E0
1.643406471E1,7.135811005E0,-5.459746399E0,-5.186714172E0,1.037451846E1
1.644412071E1,7.375762024E0,-6.008355560E0,-5.588478699E0,1.103328130E1
1.645417771E1,7.639962616E0,-6.538702698E0,-5.923332367E0,1.167088377E1
1.646423371E1,7.852969666E0,-7.092101898E0,-6.261030121E0,1.229502095E1
1.647429071E1,7.976462860E0,-7.452252960E0,-6.224955139E0,1.256622857E1
1.648434671E1,7.842940521E0,-7.524851990E0,-6.181096344E0,1.250364209E1
1.649440371E1,7.709418182E0,-7.412136383E0,-5.921985168E0,1.222476187E1
1.650445971E1,7.659272461E0,-7.147187347E0,-5.615123291E0,1.188597287E1
1.651451671E1,8.040978699E0,-6.994355164E0,-5.361550598E0,1.192998606E1
1.652457271E1,8.343349915E0,-6.691385193E0,-4.905598755E0,1.176652127E1
1.653462971E1,8.675808563E0,-6.538253632E0,-4.758005676E0,1.185989177E1
1.654468571E1,9.065148926E0,-6.565347290E0,-4.970563660E0,1.224692668E1
1.655474271E1,9.102870483E0,-6.461912384E0,-4.949607239E0,1.221135433E1
1.656479871E1,8.911268921E0,-6.414910126E0,-4.983137512E0,1.205792043E1
1.657485571E1,8.693172455E0,-6.446644135E0,-5.050796814E0,1.194324145E1
1.658491271E1,8.459358673E0,-6.544390869E0,-5.152435455E0,1.187170553E1
1.659496871E1,8.332272949E0,-6.617139587E0,-5.185366974E0,1.183644117E1
1.660502571E1,8.150999908E0,-6.621929626E0,-5.182373199E0,1.171092411E1
1.661508171E1,7.971074066E0,-6.558311920E0,-5.111271057E0,1.151844472E1
1.662513871E1,7.805368652E0,-6.474037170E0,-4.995112610E0,1.130433930E1
1.663519471E1,7.665709076E0,-6.425837402E0,-4.872068481E0,1.112616435E1
1.664525171E1,7.566166077E0,-6.473588104E0,-4.778962097E0,1.104503014E1
1.665530771E1,7.475005646E0,-6.554869080E0,-4.644391937E0,1.097325815E1
1.666536471E1,7.332651672E0,-6.622229004E0,-4.545896759E0,1.087597696E1
1.667542071E1,7.206164703E0,-6.708898773E0,-4.511318665E0,1.083005672E1
1.668547771E1,7.082521820E0,-6.824159088E0,-4.495601349E0,1.081395830E1
1.669553371E1,6.861431580E0,-6.843019867E0,-4.492158508E0,1.068108853E1
1.670559071E1,6.596482544E0,-6.809190216E0,-4.553830261E0,1.051741524E1
1.671564671E1,6.253246307E0,-6.736142120E0,-4.630620575E0,1.029180970E1
