"Time (s)","Acceleration x (m/s^2)","Acceleration y (m/s^2)","Acceleration z (m/s^2)","Absolute acceleration (m/s^2)"
9.840624989E-3,-3.309916992E0,6.227350159E0,5.673501892E0,9.051191315E0
1.977362495E-2,-3.311264191E0,6.473887482E0,6.473737793E0,9.735757324E0
2.970762504E-2,-3.168311462E0,6.496939545E0,6.880292358E0,9.979320814E0
3.964075004E-2,-3.263513489E0,6.490951996E0,6.745572510E0,9.913915805E0
4.957475001E-2,-3.842509460E0,6.593339081E0,6.446943512E0,9.989998991E0
5.950774997E-2,-4.042044525E0,6.922354889E0,5.849086761E0,9.923151571E0
6.944175006E-2,-3.933819580E0,7.535479889E0,5.798042908E0,1.028959160E1
7.937475003E-2,-3.952979736E0,7.395221558E0,6.044580231E0,1.033693866E1
8.930875000E-2,-3.511248322E0,7.761958923E0,5.841452637E0,1.032954210E1
9.924174997E-2,-3.204236755E0,7.811505890E0,5.471122742E0,1.006081217E1
1.091757501E-1,-2.644700317E0,7.583380280E0,5.222938843E0,9.580249808E0
1.191087500E-1,-1.583556976E0,7.320826263E0,5.703439636E0,9.414423698E0
1.290427500E-1,-2.291734314E0,7.942184143E0,6.000122681E0,1.021429426E1
1.389757500E-1,-2.715802460E0,7.978259125E0,6.516249390E0,1.065315483E1
1.489097500E-1,-3.368445282E0,7.806266785E0,6.742279358E0,1.085092419E1
1.588427500E-1,-3.159629517E0,7.381001129E0,7.069349213E0,1.069757611E1
1.687767500E-1,-2.364782410E0,6.693031769E0,7.674989777E0,1.045439325E1
1.787097501E-1,-2.401905212E0,5.170697479E0,8.599916382E0,1.031813078E1
1.886437500E-1,-2.072590027E0,4.132905579E0,9.318871307E0,1.040278330E1
1.985767500E-1,-8.232879639E-1,3.170856171E0,9.747729492E0,1.028349951E1
2.085107500E-1,1.833686829E-1,2.242935791E0,9.735305328E0,9.992024563E0
2.184437501E-1,1.131497040E0,1.034798126E0,9.854008484E0,9.972591234E0
2.283777500E-1,1.776056671E0,1.643582153E-1,1.058748322E1,1.073667508E1
2.383107500E-1,1.168619843E0,5.897735596E-1,1.309761337E1,1.316286372E1
2.482447500E-1,4.155358887E-1,2.052831116E0,1.465347794E1,1.480240525E1
2.581777500E-1,4.457730103E-1,2.226470032E0,1.317350555E1,1.336776462E1
2.681107500E-1,1.414558411E-1,2.674787750E0,1.101903580E1,1.133991398E1
2.780447500E-1,-2.734663239E0,3.348087616E0,8.671916656E0,9.689696188E0
2.879777501E-1,-6.910529480E0,4.154760132E0,7.352709961E0,1.091236882E1
2.979117500E-1,-7.215595093E0,4.472698975E0,8.809031525E0,1.223392354E1
3.078447500E-1,-4.057911530E0,4.256847839E0,9.905501404E0,1.151982455E1
3.177787500E-1,-3.663930817E0,3.876937866E0,8.981921997E0,1.044652856E1
3.277117501E-1,-3.041375427E0,2.557880859E0,2.832110596E0,4.879914897E0
3.376457500E-1,1.259480896E0,4.894372101E0,-1.030606842E0,5.157840716E0
3.475787500E-1,3.243754578E-1,2.260599060E0,5.857319641E-1,2.357670351E0
3.575127500E-1,-1.715133362E0,3.134481812E-1,9.979747009E-1,2.008951397E0
3.674457500E-1,-3.323688354E0,8.054750061E-1,3.839066620E0,5.141412916E0
3.773797500E-1,-2.158062286E0,-2.606080627E-1,9.462422791E0,9.708892546E0
3.873127500E-1,-4.225712585E-1,-2.689756622E0,1.418899384E1,1.444786847E1
3.972467500E-1,5.004093933E-1,-3.328777771E0,1.635738464E1,1.670015579E1
4.071797500E-1,2.944975891E0,-1.433419189E0,1.473715393E1,1.509673076E1
4.171137500E-1,6.873706055E0,2.333647156E-1,1.088955505E1,1.287962357E1
4.270467500E-1,9.861043854E0,3.936813354E-1,7.768844604E0,1.255986136E1
4.369807501E-1,1.025921585E1,-4.773573303E-1,6.570287018E0,1.219213072E1
4.469137500E-1,8.162376251E0,-2.158062286E0,6.678511963E0,1.076494965E1
4.568477500E-1,5.670957184E0,-3.954776001E0,7.126230927E0,9.928906074E0
4.667807500E-1,3.489693146E0,-5.316793671E0,7.047045593E0,9.492476220E0
4.767147501E-1,8.916957092E-1,-6.050867157E0,5.411696320E0,8.166674454E0
4.866477500E-1,-3.951782227E-2,-6.426585846E0,3.475472717E0,7.306262923E0
4.965817500E-1,-7.676037598E-1,-7.574548645E0,2.495310974E-1,7.617431882E0
5.065147500E-1,-1.866169281E0,-8.684340820E0,-1.623673553E0,9.029766280E0
5.164487500E-1,-1.890119476E0,-1.026205994E1,-1.018032990E0,1.048421752E1
5.263817500E-1,-2.566113739E0,-1.019814285E1,-1.069376221E0,1.057027071E1
5.363157500E-1,-2.883902893E0,-1.089494385E1,-1.049467621E0,1.131892573E1
5.462487501E-1,-3.718118134E0,-1.233375183E1,-8.437953186E-1,1.290960213E1
5.561817500E-1,-4.841531982E0,-1.322365128E1,-4.516108704E-1,1.408933417E1
5.661157500E-1,-5.967490540E0,-1.377076355E1,-3.315605164E-1,1.501182216E1
5.760487500E-1,-6.818021851E0,-1.502605316E1,-6.339317322E-1,1.651270920E1
5.859827501E-1,-7.898774414E0,-1.675450882E1,-1.010548553E0,1.855061755E1
5.959157500E-1,-1.012090347E1,-1.894759827E1,-3.742218018E-2,2.148128412E1
6.058497500E-1,-1.345896194E1,-2.062186661E1,2.020498352E0,2.470804429E1
6.157827500E-1,-1.642609177E1,-2.095103210E1,3.389701080E0,2.683751684E1
6.257167500E-1,-1.777134430E1,-2.082978424E1,3.876339111E0,2.765369043E1
6.356497500E-1,-1.848670670E1,-1.948857330E1,2.431992645E0,2.697178900E1
6.455837500E-1,-1.811727493E1,-1.893367722E1,5.875282288E-1,2.621192426E1
6.555167501E-1,-1.740760071E1,-2.017519547E1,1.694476318E-1,2.664754748E1
6.654507500E-1,-1.750250336E1,-1.942779968E1,-6.704557800E-1,2.615772420E1
6.753837500E-1,-1.810006073E1,-1.853804993E1,-1.775757294E0,2.596969017E1
6.853177500E-1,-1.866049530E1,-1.834225708E1,-1.657652893E0,2.621831979E1
6.952507501E-1,-1.826801147E1,-2.020483383E1,-1.442849579E0,2.727704838E1
7.051847500E-1,-1.950788315E1,-1.938573715E1,-1.654060364E0,2.755177355E1
7.151177500E-1,-1.992446686E1,-1.850317245E1,-7.279362488E-1,2.720076583E1
7.250517500E-1,-2.028656387E1,-1.793285843E1,1.132844238E0,2.710010002E1
7.349847500E-1,-1.918575302E1,-1.727003677E1,2.022893372E0,2.589284432E1
7.449187500E-1,-1.642309799E1,-1.626427826E1,1.421893158E0,2.315743239E1
7.548517500E-1,-1.459599747E1,-1.408705582E1,1.055006104E0,2.031259022E1
7.647857500E-1,-1.369053040E1,-1.221474930E1,2.349663849E0,1.849734152E1
7.747187500E-1,-1.291065216E1,-1.173664352E1,3.332519989E0,1.776342956E1
7.846527500E-1,-1.255334518E1,-1.072504715E1,3.285218353E0,1.683465982E1
7.945857500E-1,-1.074495575E1,-1.024035507E1,2.745440826E0,1.509491277E1
8.045187501E-1,-8.157735901E0,-9.898915100E0,2.950963440E0,1.316227034E1
8.144527500E-1,-6.150110779E0,-1.019949005E1,4.361180878E0,1.268358619E1
8.243857500E-1,-6.387517090E0,-7.463778992E0,1.555804688E1,1.840003244E1
8.343197500E-1,-5.738317108E0,1.758692780E0,4.832400970E0,7.705412556E0
8.442527500E-1,-1.871857452E1,5.140460358E0,1.287802002E1,2.329490855E1
8.541867500E-1,-1.426638290E1,-1.006611740E1,3.088123215E1,3.547544080E1
8.641197500E-1,-3.327131195E0,-1.494342499E1,1.012554382E1,1.835490098E1
8.740537500E-1,-7.251370697E0,-1.299522629E1,-1.028720764E1,1.809101778E1
8.839867500E-1,-5.697003021E0,-1.251068390E1,-1.597972000E1,2.107900629E1
8.939207500E-1,-1.755848694E0,-1.378333740E1,-2.069132217E1,2.492376793E1
9.038537500E-1,2.020049286E0,-1.226833786E1,-2.067096451E1,2.412221977E1
9.137877501E-1,3.691623230E0,-9.957593079E0,-1.774440033E1,2.067959103E1
9.237207500E-1,-3.304528198E0,-2.546205139E0,-6.552923126E0,7.768131611E0
9.336547500E-1,-7.729925537E0,-2.085463257E0,8.238418121E0,1.148792579E1
9.435877500E-1,-6.531817017E0,-3.707639923E0,5.599705353E0,9.368453841E0
9.535217501E-1,-5.921087036E0,-5.684878235E0,-3.223546600E0,8.818637362E0
9.634547500E-1,-4.077969818E0,-7.680977325E0,-6.837631073E0,1.106256974E1
9.733887500E-1,-1.897603912E0,-7.967182159E0,-7.270231476E0,1.095139981E1
9.833217500E-1,-1.520388336E0,-8.545729065E0,-8.494385834E0,1.214477899E1
9.932557500E-1,2.590213623E0,-9.905202026E0,-1.252206024E1,1.617480221E1
1.003188750E0,4.881199493E0,-7.184160461E0,-1.242775635E1,1.516203805E1
1.013122750E0,1.835034027E0,-3.918701019E0,-7.043602753E0,8.266553532E0
1.023055750E0,-3.803440704E0,-8.214916992E-1,4.773573303E-1,3.920316291E0
1.032989750E0,-5.516328735E0,-2.384691010E0,6.680607605E0,8.985941904E0
1.042923083E0,-4.207600250E0,-5.780828705E0,1.652264099E0,7.338382453E0
1.052857083E0,-6.048172760E0,-5.555247803E0,-7.795040131E0,1.132271268E1
1.062790083E0,-6.636599121E0,-5.152734833E0,-1.192629913E1,1.458875372E1
1.072723083E0,-6.003565521E0,-3.778292999E0,-4.978946228E0,8.666498860E0
1.082657083E0,-4.969964905E0,-2.641257477E0,1.238075409E0,5.762779098E0
1.092590083E0,-4.079616394E0,-1.794767761E0,5.451663208E-1,4.490174557E0
1.102524083E0,-2.468666382E0,-3.843108215E0,-5.084327087E0,6.834776982E0
1.112457083E0,-2.443219299E0,-5.310656433E0,-7.979456635E0,9.891618699E0
1.122391083E0,-3.907174988E0,-5.558091888E0,-7.536228333E0,1.014658264E1
1.132324083E0,-5.292843475E0,-5.655688934E0,-6.217021637E0,9.932389814E0
1.142258083E0,-4.817881165E0,-5.066514130E0,-6.121071167E0,9.292419307E0
1.152191083E0,-4.760550385E0,-5.858068085E0,-7.069498901E0,1.034203154E1
1.162125083E0,-4.141737213E0,-6.300997009E0,-7.275919647E0,1.047833752E1
1.172058083E0,-4.427492981E0,-7.499554596E0,-6.477629700E0,1.085383341E1
1.181992083E0,-3.443738708E0,-8.024812317E0,-5.430856476E0,1.028353787E1
1.191925083E0,-2.705773315E0,-5.917644196E0,-4.682712250E0,8.016702319E0
1.201859083E0,-2.791694641E0,-5.070106659E0,-4.187991028E0,7.144145110E0
1.211792083E0,-2.585273895E0,-6.366410980E0,-4.230352936E0,8.069121132E0
1.221726083E0,-3.382965088E0,-7.849676514E0,-4.272116089E0,9.555775742E0
1.231659083E0,-3.632196808E0,-7.077133026E0,-4.468507690E0,9.123937007E0
1.241593083E0,-3.823798370E0,-6.987170105E0,-5.296885071E0,9.565509474E0
1.251526083E0,-3.309467926E0,-8.110134888E0,-5.471122742E0,1.032763525E1
1.261460083E0,-2.098935242E0,-9.705217896E0,-5.375920715E0,1.129147055E1
1.271393083E0,-3.406017151E0,-7.341483307E0,-5.940097504E0,1.003907806E1
1.281327083E0,-4.076323242E0,-1.249900818E0,-7.619455261E0,8.731252013E0
1.291260083E0,-5.976322174E0,-2.972817993E-1,-8.558003540E0,1.044242442E1
1.301194083E0,-8.807684326E0,-4.213288422E0,-5.063520355E0,1.099846993E1
1.311127083E0,-7.838300171E0,-5.964796143E0,-2.533182220E0,1.017028784E1
1.321061083E0,-4.988526306E0,-7.958949280E0,-1.513802032E0,9.514297921E0
1.330994083E0,-4.655319214E0,-6.040239258E0,-1.407223663E0,7.754789856E0
1.340927083E0,-4.234993286E0,-3.536845093E0,-5.010231171E0,7.452976434E0
1.350861083E0,-1.467398529E0,-6.062093811E0,-5.656138000E0,8.419865610E0
1.360794083E0,-1.844314728E0,-7.885901184E0,-7.568261719E0,1.108456223E1
1.370728083E0,-4.473896484E0,-1.190010361E1,-7.222480774E0,1.462164300E1
1.380661083E0,-4.824317780E0,-1.148845963E1,-4.212839355E0,1.315320349E1
1.390595083E0,-5.263504486E0,-1.278506332E1,-5.441933441E0,1.485856532E1
1.400528083E0,-7.579937439E0,-1.502994507E1,-6.067781982E0,1.789336968E1
1.410462083E0,-9.255552979E0,-1.119477036E1,-7.584278412E0,1.638625715E1
1.420395083E0,-8.070467377E0,-1.189860672E1,-8.458011475E0,1.668074470E1
1.430329083E0,-6.749763794E0,-1.147498764E1,-6.946305084E0,1.501618483E1
1.440262083E0,-6.035898285E0,-1.042671753E1,-5.051844635E0,1.306405912E1
1.450196083E0,-7.088060303E0,-1.241847565E1,-3.732637939E0,1.477808250E1
1.460129083E0,-8.037984924E0,-1.305659866E1,-5.103337555E0,1.615945619E1
1.470063083E0,-7.040010223E0,-1.270662643E1,-5.137017517E0,1.540808386E1
1.479996083E0,-5.425767059E0,-9.956096191E0,-4.310885468E0,1.213039707E1
1.489930083E0,-5.846242676E0,-9.932295685E0,-5.741161194E0,1.287594590E1
1.499863083E0,-3.856729889E0,-7.909851379E0,-3.644770660E0,9.524939236E0
1.509797083E0,-2.434986420E0,-4.322561188E0,1.097368011E0,5.081132811E0
1.519730083E0,-3.987707520E-1,-1.378782806E0,1.713486786E0,2.235195093E0
1.529664083E0,-5.626799011E-1,-3.314108276E-1,-1.534309387E-1,6.708076183E-1
1.539597083E0,-3.479963379E0,5.400769043E-1,-2.578088837E0,4.364443863E0
1.549531083E0,-4.245172119E0,3.171903992E0,-3.390748901E0,6.291235122E0
1.559464083E0,-5.969286804E0,2.071542206E0,-2.219434662E0,6.696981580E0
1.569398083E0,-5.674100647E0,-3.072660370E0,-2.369572449E0,6.873975087E0
1.579331083E0,-5.811365204E0,-5.162464600E0,-3.647914124E0,8.586634016E0
1.589264083E0,-8.530460815E0,-6.636898499E0,-4.503385162E0,1.170887105E1
1.599198083E0,-1.044108765E1,-7.789052582E0,-5.699847107E0,1.421878716E1
1.609131083E0,-1.000743942E1,-7.822732544E0,-6.395450592E0,1.422131416E1
1.619065083E0,-9.697883148E0,-7.815697174E0,-7.323670349E0,1.444888256E1
1.628998083E0,-8.562194824E0,-8.154293060E0,-7.846682739E0,1.419063443E1
1.638932083E0,-8.190667419E0,-9.838889923E0,-9.007818146E0,1.565348445E1
1.648865083E0,-7.051835632E0,-1.088042404E1,-9.513766022E0,1.608178339E1
1.658799083E0,-5.794001312E0,-1.065529221E1,-9.386081543E0,1.533636952E1
1.668732083E0,-5.178481293E0,-1.047955765E1,-8.195457458E0,1.427597002E1
1.678666083E0,-3.578009491E0,-9.894424438E0,-5.062173157E0,1.167593182E1
1.688599083E0,-3.681594086E0,-9.994117126E0,-5.290897522E0,1.189243914E1
1.698533083E0,-6.080206146E0,-1.098984650E1,-6.729705505E0,1.424901993E1
1.708466083E0,-5.925128632E0,-1.046129562E1,-5.396428070E0,1.317828863E1
1.718400083E0,-5.617368622E0,-8.997639313E0,-1.936073914E0,1.078242670E1
1.728333083E0,-9.975555725E0,-5.718408508E0,-7.674540710E-1,1.152392701E1
1.738267083E0,-8.234675903E0,-3.169359283E0,-1.702110443E0,8.986206400E0
1.748200083E0,-6.216123505E0,-4.351900177E0,-1.954635315E0,7.835804093E0
1.758134083E0,-3.889062653E0,-5.457351379E0,-4.651127930E0,8.157235035E0
1.768067083E0,-1.898502045E0,-3.101849670E0,-3.729793854E0,5.209332355E0
1.778001083E0,-4.694238281E-1,-1.907034302E-1,-1.559457092E0,1.639705142E0
1.787934083E0,-3.062631226E-1,1.111588440E0,-1.253493347E0,1.703135794E0
1.797868083E0,-2.960842896E-1,1.621128845E0,-2.859803009E0,3.300635983E0
1.807801083E0,-1.204245758E0,1.173559570E0,-3.864214325E0,4.214214311E0
1.817734083E0,-5.019062805E-1,5.239105225E-2,-5.026696930E0,5.051963654E0
1.827668083E0,2.457888794E-1,-2.154020691E-1,-3.814667358E0,3.828641702E0
1.837601083E0,-2.906954956E-1,-5.342390442E-1,-2.921175385E0,2.983819843E0
1.847535083E0,-1.138382721E0,-1.604214020E0,-2.805316315E0,3.426254145E0
1.857468083E0,-1.505868530E0,-5.848937073E0,-1.274599457E0,6.172706755E0
1.867402083E0,-3.189866638E-1,-7.503147125E0,-4.127965851E0,8.569659931E0
1.877335083E0,-1.226998444E0,-6.616840210E0,-5.433999939E0,8.649650564E0
1.887269083E0,-1.499880981E-1,-7.120393066E0,-4.273163910E0,8.305565824E0
1.897202083E0,-6.185137939E-1,-9.069938965E0,-6.673123169E-1,9.115462570E0
1.907136083E0,-9.159452820E-1,-8.253686371E0,3.621568909E0,9.059694025E0
1.917069083E0,-1.520882309E1,-3.138523407E0,-3.806434479E0,1.598898284E1
1.927003083E0,-2.063069824E1,-9.558822327E0,-7.865992584E0,2.405973054E1
1.936936083E0,-1.319116882E1,-2.001667511E1,-2.947969666E0,2.415294480E1
1.946870083E0,-6.248755646E0,-1.259720398E1,-1.021595581E1,1.738108881E1
1.956803083E0,-3.755690002E-1,-1.154204819E1,-1.265154099E1,1.712954809E1
1.966737083E0,-6.813830566E-1,-1.132499954E1,-9.192983093E0,1.460242568E1
1.976670083E0,-1.507664795E0,-8.585995331E0,-5.524112549E0,1.032028044E1
1.986604083E0,-3.900738373E0,-6.768774261E0,-4.559219055E0,9.045360316E0
1.996537083E0,-3.940405884E0,-7.944279785E0,-2.914439392E0,9.334470355E0
2.006471083E0,-4.020189972E0,-8.801846466E0,-3.895948334E0,1.043133942E1
2.016404083E0,-2.670446777E0,-8.044122162E0,-5.019661560E0,9.850694875E0
2.026338083E0,-8.708889771E-1,-8.406518555E0,-3.939956818E0,9.324766032E0
2.036270875E0,-6.172863464E0,-9.160500641E0,-2.858755188E0,1.141014884E1
2.046203875E0,-4.305945740E0,-9.818083191E0,-3.909719696E0,1.141147818E1
2.056137875E0,-3.398832092E0,-9.908195801E0,-2.671045532E0,1.081012895E1
2.066070875E0,-8.446934509E-1,-9.640851746E0,-1.562450867E0,9.803100638E0
2.076004875E0,1.521136780E0,-6.947801971E0,-2.296224976E-1,7.116075873E0
2.085937875E0,1.280587006E0,-6.447242889E0,5.135820007E-1,6.593224585E0
2.095871875E0,3.867956543E-1,-7.077133026E0,6.125262451E-1,7.114113518E0
2.105804875E0,-4.216431885E0,-1.205293579E1,-2.000140686E0,1.292486448E1
2.115738875E0,-1.013961456E1,-1.653835831E1,-1.015877472E1,2.189816848E1
2.125671875E0,-1.044797333E1,-1.601699249E1,-1.691033478E1,2.552770294E1
2.135605875E0,-6.096671906E0,-1.109088638E1,-9.435179443E0,1.578606285E1
2.145538875E0,-3.812721405E0,-8.003107452E0,-3.790717163E0,9.641374903E0
2.155472875E0,-2.490371246E0,-7.539371796E0,-2.777474213E0,8.411803553E0
2.165405875E0,-3.210224304E0,-7.134613495E0,-3.600762177E0,8.612417666E0
2.175339875E0,-2.600542145E0,-5.401218109E0,-4.426594849E0,7.451893616E0
2.185272875E0,-2.328408051E0,-5.342091064E0,-3.171604614E0,6.634643684E0
2.195206875E0,-2.383493500E0,-7.085515594E0,-2.307002563E0,7.823543528E0
2.205139875E0,-2.637515259E0,-9.706265717E0,-2.971470795E0,1.048797977E1
2.215073875E0,-2.472558289E0,-1.018916153E1,-5.195845184E0,1.170168212E1
2.225006875E0,3.332070923E-1,-8.772208099E0,-5.310207367E0,1.025967661E1
2.234940875E0,8.337661743E-2,-9.397008820E0,-2.268532562E0,9.667314332E0
2.244873875E0,-2.658321991E0,-9.440418549E0,-1.689985657E0,9.952096749E0
2.254807875E0,-1.831142120E0,-9.369017029E0,-1.514550476E0,9.665682836E0
2.264740875E0,1.128652954E0,-9.318122864E0,-1.865420837E0,9.569799689E0
2.274673875E0,2.545606384E0,-9.940977631E0,-2.416724396E0,1.054247148E1
2.284607875E0,1.754351807E0,-1.139640106E1,-3.056943054E0,1.192898186E1
2.294540875E0,8.422984314E-1,-1.234647537E1,-3.504512329E0,1.286182442E1
2.304474875E0,9.647438049E-1,-1.179127991E1,-3.432661743E0,1.231861109E1
2.314407875E0,3.097957764E0,-1.109103607E1,-2.442919922E0,1.177184273E1
2.324341875E0,3.333418121E0,-1.003273682E1,-4.704716492E-1,1.058247740E1
2.334274875E0,1.584754486E0,-8.911867676E0,-1.479673004E0,9.171819037E0
2.344208875E0,8.780740356E-1,-7.539072418E0,-2.827170868E0,8.099476653E0
2.354141875E0,9.153465271E-1,-5.254074097E0,-8.614585876E-1,5.402338825E0
2.364075875E0,-1.641636200E0,-5.427413635E0,-4.205354919E0,7.059518268E0
2.374008875E0,-3.491639099E0,-8.070167999E0,-1.004291565E1,1.334838229E1
2.383942875E0,-3.137774963E0,-8.386160889E0,-7.627837830E0,1.176253528E1
2.393875875E0,-2.441273346E0,-7.674840088E0,-4.627926178E0,9.288739776E0
2.403809875E0,-1.067729645E0,-6.690786438E0,-3.582799530E0,7.664406189E0
2.413742875E0,1.737287292E0,-5.160668335E0,-4.317022705E0,6.948909975E0
2.423676875E0,2.207609253E0,-3.917653198E0,-5.116809540E0,6.811995674E0
2.433609875E0,1.560654602E0,-4.262835388E0,-4.805307312E0,6.610475527E0
2.443543875E0,1.697619781E0,-4.260440369E0,-3.912713470E0,6.028481713E0
2.453476875E0,1.905387726E0,-3.688030701E0,-2.794239349E0,5.003983051E0
2.463410875E0,1.823208618E0,-3.249592438E0,-2.718197479E0,4.612216193E0
2.473343875E0,1.679657135E0,-3.030747528E0,-2.377356262E0,4.202201978E0
2.483277875E0,1.639989624E0,-3.571872253E0,-3.235821075E0,5.091009271E0
2.493210875E0,7.985893250E-1,-5.430557098E0,-4.621339874E0,7.175338148E0
2.503144875E0,-4.285588074E-1,-7.416627045E0,-5.512137451E0,9.250604232E0
2.513077875E0,-2.342628479E0,-9.813143463E0,-5.874234467E0,1.167443032E1
2.523010875E0,-4.162244568E0,-1.271979904E1,-5.815257111E0,1.459228504E1
2.532944875E0,-4.346661072E0,-1.620560028E1,-5.866899719E0,1.777457328E1
2.542877875E0,-3.896996155E0,-1.901106628E1,-4.340074768E0,1.988576047E1
2.552811875E0,-2.758014679E0,-1.813463882E1,-1.983824615E0,1.845013090E1
2.562744875E0,-1.005608826E0,-1.456336533E1,-5.849835205E-1,1.460975922E1
2.572678875E0,5.343887329E-2,-1.237476654E1,1.202000427E-1,1.237546568E1
2.582611875E0,-1.938468933E-1,-1.187495590E1,-3.180885315E-1,1.188079688E1
2.592545875E0,7.188052368E-1,-1.076636124E1,-5.912704468E-1,1.080651729E1
2.602478875E0,6.770420837E-1,-1.012060410E1,-1.324894867E0,1.022938706E1
2.612412875E0,-5.414241028E-1,-9.966424713E0,-3.094365234E0,1.044977788E1
2.622345875E0,-9.331594849E-1,-9.709409180E0,-4.105512543E0,1.058294130E1
2.632279875E0,-1.164877625E0,-9.645043030E0,-4.861141205E0,1.086344737E1
2.642212875E0,-8.955876160E-1,-9.491163025E0,-4.425097961E0,1.051026854E1
2.652146875E0,-1.091979218E0,-9.426946564E0,-4.373455353E0,1.044925126E1
2.662079875E0,-8.366102600E-1,-9.122180328E0,-4.041595459E0,1.001242151E1
2.672013875E0,-7.372169495E-1,-8.930129700E0,-3.466641083E0,9.607721149E0
2.681946875E0,-9.616003418E-1,-8.839717712E0,-3.595672760E0,9.591357936E0
2.691880875E0,-8.988807678E-1,-8.771609344E0,-3.765569458E0,9.587941931E0
2.701813875E0,-7.638615417E-1,-9.148974609E0,-3.842359772E0,9.952434349E0
2.711747875E0,1.200503540E-1,-1.035172348E1,-3.544778595E0,1.094248813E1
2.721680875E0,6.258485413E-1,-1.195084808E1,-3.006198578E0,1.233903101E1
2.731613875E0,1.399589539E-1,-1.285197418E1,-3.072959747E0,1.321498810E1
2.741547875E0,-8.348139954E-1,-1.271411087E1,-3.674259338E0,1.326068291E1
2.751480875E0,-1.720971222E0,-1.229992218E1,-4.222269745E0,1.311782716E1
2.761414875E0,-2.798730011E0,-1.142469223E1,-4.694387970E0,1.266466583E1
2.771347875E0,-3.398383026E0,-9.608518982E0,-4.952002258E0,1.133115045E1
2.781281875E0,-3.333717499E0,-6.941215668E0,-4.741988983E0,9.043263063E0
2.791214875E0,-1.903890839E0,-6.323300629E0,-3.935166779E0,7.687292680E0
2.801148875E0,-1.403780823E0,-5.250631256E0,-3.864663391E0,6.668984354E0
2.811081875E0,-8.518785095E-1,-5.429958344E0,-3.342399445E0,6.432867063E0
2.821015875E0,2.796185303E-1,-7.829468536E0,-1.566193085E0,7.989475882E0
2.830948875E0,-1.025367737E-1,-8.126450958E0,-1.416953430E0,8.249695509E0
2.840882875E0,-1.068178711E0,-6.687493286E0,-2.402054901E0,7.185641235E0
2.850815875E0,-1.102756805E0,-6.344107361E0,-2.971919861E0,7.091972817E0
2.860749875E0,-1.298100586E0,-5.955365753E0,-3.901486816E0,7.236922396E0
2.870682875E0,-9.927355957E-1,-5.900879059E0,-4.715793457E0,7.618701041E0
2.880616875E0,-6.174659729E-1,-5.811814270E0,-5.190157013E0,7.816404490E0
2.890549875E0,-2.417472839E-1,-6.430627441E0,-5.524411926E0,8.481187309E0
2.900483875E0,3.936813354E-1,-1.040875488E1,-4.683161316E0,1.142055879E1
2.910416875E0,2.007625122E0,-1.335597610E1,-5.228926392E0,1.448289776E1
2.920350875E0,2.866988068E0,-1.594633942E1,-5.205425262E0,1.701769119E1
2.930283875E0,2.592009888E0,-1.822879303E1,-2.605182495E0,1.859554749E1
2.940217875E0,1.412762146E0,-1.726853989E1,-8.580157471E-1,1.734746546E1
2.950150875E0,-2.057920532E0,-1.400607422E1,9.125024414E-1,1.418583140E1
2.960084875E0,-3.054697723E0,-1.101679047E1,2.151026917E0,1.163304634E1
2.970017875E0,-2.620001678E0,-9.629475403E0,2.314337311E0,1.024438200E1
2.979950875E0,-1.851050720E0,-9.177415466E0,1.342408447E0,9.457980961E0
2.989884875E0,-1.069525909E0,-8.905880127E0,-3.746708679E-1,8.977692619E0
2.999817875E0,-1.078656921E0,-8.571625214E0,-2.250719604E0,8.927597566E0
3.009751875E0,-1.403631134E0,-8.383167114E0,-3.940555573E0,9.368865964E0
3.019684875E0,-1.636696472E0,-8.381670227E0,-4.892126770E0,9.841954860E0
3.029618875E0,-1.706900482E0,-8.447832642E0,-5.270390167E0,1.010229668E1
3.039551500E0,-1.731898499E0,-8.619076538E0,-5.325475616E0,1.027855259E1
3.049485500E0,-1.946701813E0,-8.885821838E0,-5.251230011E0,1.050347058E1
3.059418500E0,-2.267035675E0,-9.399852905E0,-5.043013000E0,1.090544201E1
3.069352500E0,-2.199226685E0,-9.967322845E0,-4.530329132E0,1.116727383E1
3.079285500E0,-1.532662811E0,-1.043210632E1,-3.847299500E0,1.122406393E1
3.089219500E0,-6.001020813E-1,-1.067505112E1,-3.161126404E0,1.114941967E1
3.099152500E0,4.544549561E-1,-1.063029419E1,-2.574795685E0,1.094711180E1
3.109086500E0,9.692344666E-1,-1.038615189E1,-2.009421387E0,1.062305703E1
3.119019500E0,7.740403748E-1,-9.938432922E0,-1.499581604E0,1.008069107E1
3.128953500E0,4.454736328E-1,-9.407337341E0,-1.014290771E0,9.472340174E0
3.138886500E0,3.974235535E-1,-9.442963257E0,-8.235873413E-1,9.487138486E0
3.148820500E0,4.825964355E-1,-9.956245880E0,-1.050964508E0,1.002318601E1
3.158753500E0,5.453160095E-1,-1.036384827E1,-1.647923126E0,1.050820494E1
3.168687500E0,6.267466736E-1,-1.040112076E1,-2.477198639E0,1.071039857E1
3.178620500E0,8.717871094E-1,-1.017643799E1,-3.155737610E0,1.069011612E1
3.188553500E0,1.092577972E0,-1.003588028E1,-3.392694855E0,1.065002338E1
3.198487500E0,1.307530975E0,-9.937983856E0,-3.334016876E0,1.056356137E1
3.208420500E0,1.433568878E0,-9.544452209E0,-3.177143097E0,1.016100024E1
3.218354500E0,1.319955139E0,-9.102271729E0,-3.344794464E0,9.786791210E0
3.228287500E0,1.002315674E0,-8.893905029E0,-3.375480652E0,9.565566006E0
3.238221500E0,4.096980286E-1,-8.963959351E0,-3.171454926E0,9.517276189E0
3.248154500E0,-8.547225952E-2,-9.136550446E0,-2.837649078E0,9.567450645E0
3.258088500E0,-3.710783386E-1,-9.316476288E0,-2.475701752E0,9.646944009E0
3.268021500E0,-5.242098999E-1,-9.323811035E0,-2.102976837E0,9.572395720E0
3.277955500E0,-5.297483826E-1,-9.213191071E0,-1.729503479E0,9.389073721E0
3.287888500E0,-4.370910645E-1,-9.035959625E0,-1.431922302E0,9.159149329E0
3.297822500E0,-3.070115662E-1,-8.747659149E0,-1.221160583E0,8.837818162E0
3.307755500E0,-1.616638184E-1,-8.470435638E0,-1.307381287E0,8.572261132E0
3.317689500E0,1.496887207E-1,-8.156239014E0,-1.829495544E0,8.360244943E0
3.327622500E0,4.516108704E-1,-7.960446167E0,-2.608625336E0,8.389134741E0
3.337556500E0,6.963519287E-1,-7.909701691E0,-2.836002502E0,8.431559585E0
3.347489500E0,6.120771790E-1,-8.049211578E0,-3.270848236E0,8.709930751E0
3.357423500E0,1.447489929E-1,-8.324638824E0,-5.118456116E0,9.773390243E0
3.367356500E0,1.863624573E-1,-9.069340210E0,-7.123686218E0,1.153406122E1
3.377290500E0,7.363188171E-1,-9.744136963E0,-7.751181335E0,1.247281775E1
3.387223500E0,1.109193420E0,-9.845476227E0,-7.820786591E0,1.262253600E1
3.397157500E0,1.329834595E0,-9.682165833E0,-7.335495758E0,1.221975013E1
3.407090500E0,1.988764343E0,-9.617649994E0,-5.184468842E0,1.110554331E1
3.417023500E0,3.136427765E0,-9.640702057E0,-2.361788635E0,1.040953221E1
3.426957500E0,4.023333435E0,-9.561367035E0,2.779719543E-1,1.037710075E1
3.436890500E0,4.265230408E0,-9.599687347E0,2.055675201E0,1.070383054E1
3.446824500E0,4.331692200E0,-9.745783539E0,2.605182495E0,1.097865338E1
3.456757500E0,3.410058746E0,-9.968220978E0,7.553292847E-1,1.056240751E1
3.466691500E0,1.753154297E0,-1.001657043E1,-1.977238312E0,1.035928109E1
3.476624500E0,7.126679993E-1,-9.795779572E0,-3.641926575E0,1.047515261E1
3.486558500E0,3.350033569E-1,-9.554780731E0,-4.138593750E0,1.041796623E1
3.496491500E0,3.180885315E-1,-9.313033447E0,-3.936663666E0,1.011588321E1
3.506425500E0,4.839436340E-1,-9.032367096E0,-3.429069214E0,9.673488123E0
3.516358500E0,6.322851562E-1,-8.856033783E0,-2.989732819E0,9.368437501E0
3.526292500E0,8.318202209E-1,-8.731343079E0,-2.686164093E0,9.172990481E0
3.536225500E0,1.251846771E0,-8.689430237E0,-2.503394165E0,9.129090893E0
3.546159500E0,1.595083008E0,-8.760382690E0,-2.418520660E0,9.227016683E0
3.556092500E0,1.942959595E0,-8.919052734E0,-2.708767090E0,9.521660192E0
3.566026500E0,2.336191864E0,-9.076974335E0,-3.000211029E0,9.841266266E0
3.575959500E0,2.647095337E0,-9.284742279E0,-3.084186401E0,1.013537166E1
3.585893500E0,2.606230316E0,-9.505383453E0,-3.145109711E0,1.034584294E1
3.595826500E0,2.562820587E0,-9.544901276E0,-3.120860138E0,1.036402228E1
3.605760500E0,2.113604736E0,-9.466464386E0,-3.001258850E0,1.015326685E1
3.615693500E0,1.755699005E0,-9.294472046E0,-2.924318848E0,9.900572222E0
3.625627500E0,1.547481995E0,-8.897198181E0,-2.978655853E0,9.509323146E0
3.635560500E0,1.564247131E0,-8.613088989E0,-2.987637177E0,9.249764696E0
3.645493500E0,1.438658295E0,-8.550219727E0,-3.028651886E0,9.184156320E0
3.655427500E0,1.346450043E0,-8.623866577E0,-2.954555969E0,9.214846902E0
3.665360500E0,1.492396545E0,-8.826245728E0,-2.835403748E0,9.389854925E0
3.675294500E0,1.602717133E0,-9.192234650E0,-2.659070435E0,9.702398448E0
3.685227500E0,1.760189667E0,-9.461225281E0,-2.607128448E0,9.970464895E0
3.695161500E0,2.038910065E0,-9.716893616E0,-2.642155609E0,1.027405285E1
3.705094500E0,2.274370422E0,-9.796528015E0,-2.701132965E0,1.041349323E1
3.715028500E0,2.304607544E0,-9.789941711E0,-2.801125031E0,1.044032931E1
3.724961500E0,1.901495819E0,-9.588460693E0,-2.805765381E0,1.016988614E1
3.734895500E0,1.645378418E0,-8.994196472E0,-2.831811218E0,9.571937896E0
3.744828500E0,1.239871674E0,-8.547225952E0,-3.339405670E0,9.259804721E0
3.754762500E0,8.467890930E-1,-8.031847687E0,-3.795956268E0,8.923951648E0
3.764695500E0,7.776329041E-1,-7.594307556E0,-4.165088654E0,8.696331622E0
3.774629500E0,9.286688232E-1,-7.444618835E0,-4.586911469E0,8.793436883E0
3.784562500E0,1.313219147E0,-7.614066467E0,-4.810995483E0,9.101880588E0
3.794496500E0,1.698817291E0,-8.220904541E0,-4.851860504E0,9.695865202E0
3.804429500E0,2.276316376E0,-8.879684601E0,-4.834945679E0,1.036374038E1
3.814363500E0,2.578238525E0,-9.157506866E0,-4.917873230E0,1.070946885E1
3.824296500E0,2.744842072E0,-9.192983093E0,-4.986730042E0,1.081261174E1
3.834230500E0,2.548450470E0,-9.209149475E0,-5.076992340E0,1.082029968E1
3.844163500E0,2.353106689E0,-9.330247650E0,-5.099595337E0,1.089020224E1
3.854097500E0,2.281256104E0,-9.371861115E0,-4.985382843E0,1.085771395E1
3.864030500E0,2.261497192E0,-9.329499207E0,-4.932093658E0,1.079256563E1
3.873963500E0,1.797013092E0,-9.294472046E0,-4.921914825E0,1.066966317E1
3.883897500E0,1.189426575E0,-9.328002319E0,-4.715045013E0,1.051941122E1
3.893830500E0,2.224374390E-1,-9.075327759E0,-4.609364777E0,1.018122272E1
3.903764500E0,-7.948471069E-1,-8.772058411E0,-4.713847504E0,9.990052501E0
3.913697500E0,-1.459914093E0,-9.029672699E0,-4.724475403E0,1.029499908E1
3.923631500E0,-1.144669647E0,-9.560618591E0,-4.622836761E0,1.068111961E1
3.933564500E0,1.459465027E-1,-9.908794556E0,-4.666994934E0,1.095382817E1
3.943498500E0,1.300495605E0,-1.066427353E1,-4.377347260E0,1.160082703E1
3.953431500E0,1.920206909E0,-1.165925446E1,-3.799548798E0,1.241217064E1
3.963365500E0,2.735112305E0,-1.238225098E1,-3.005450134E0,1.303202628E1
3.973298500E0,3.930676117E0,-1.275707153E1,-1.853146362E0,1.347691509E1
3.983232500E0,5.326523438E0,-1.271321274E1,-4.561015320E-1,1.379150676E1
3.993165500E0,6.693630524E0,-1.246487915E1,-3.616479492E-1,1.415304529E1
4.003099500E0,7.298522644E0,-1.131287476E1,-3.122506714E-1,1.346651657E1
4.013032500E0,6.960974579E0,-9.480086060E0,4.733157349E-1,1.177077850E1
4.022966500E0,6.658453674E0,-8.100105743E0,-6.994953918E-1,1.050885399E1
4.032899500E0,5.154231720E0,-7.509583740E0,-1.322050781E0,9.203682461E0
4.042834583E0,4.383185120E0,-8.267158356E0,-1.103205872E0,9.422063589E0
4.052767583E0,3.524570618E0,-9.893975372E0,-2.111209717E0,1.071310194E1
4.062701583E0,1.745969238E0,-1.135463791E1,-3.873644714E0,1.212358586E1
4.072634583E0,3.047662354E-1,-1.269719604E1,-3.820654907E0,1.326307181E1
4.082567583E0,-1.258283386E0,-1.380713791E1,-2.236050110E0,1.404351289E1
4.092501583E0,-2.867736511E0,-1.422387131E1,-1.244512024E0,1.456335256E1
4.102434583E0,-4.930596771E0,-1.374860962E1,-3.118016052E-1,1.460932138E1
4.112368583E0,-5.985902252E0,-1.258867172E1,1.684596863E0,1.404078161E1
4.122301583E0,-5.992189178E0,-1.147678391E1,2.993025970E0,1.328838231E1
4.132235583E0,-5.196144562E0,-1.004845413E1,3.466940460E0,1.183178029E1
4.142168583E0,-1.532363434E0,-9.436526642E0,3.660937042E0,1.023712034E1
4.152102583E0,5.703140259E-1,-8.305778046E0,1.489402771E0,8.457513089E0
4.162035583E0,1.963017883E0,-7.544610901E0,-2.701881409E-1,7.800486811E0
4.171969583E0,2.377356262E0,-6.986870728E0,-2.687960358E0,7.854509294E0
4.181902583E0,2.707120514E0,-6.576424255E0,-4.930896149E0,8.653992968E0
4.191836583E0,3.139720917E0,-6.221811676E0,-6.252497864E0,9.362826363E0
4.201769583E0,3.197500763E0,-6.148913269E0,-6.188580780E0,9.291484144E0
4.211703583E0,2.821333008E0,-6.254743195E0,-5.276078339E0,8.655560930E0
4.221636583E0,1.741927643E0,-6.661148071E0,-4.088597717E0,8.007611182E0
4.231570583E0,6.816824341E-1,-7.187154236E0,-3.097808075E0,7.855971730E0
4.241503583E0,4.044589233E-1,-7.598498840E0,-2.287393341E0,7.945623949E0
4.251437583E0,4.632865906E-1,-7.680528259E0,-1.556463318E0,7.850332914E0
4.261370583E0,2.836601257E-1,-7.504644012E0,-1.571881256E0,7.672741068E0
4.271304583E0,9.800120544E-1,-7.675738220E0,-1.675914917E0,7.917453610E0
4.281237583E0,1.618883514E0,-7.133415985E0,-1.045126648E0,7.389093122E0
4.291171583E0,1.409768372E0,-6.876101074E0,-9.864486694E-1,7.088109326E0
4.301104583E0,1.232686615E0,-7.070247345E0,-1.173858948E0,7.272266403E0
4.311037583E0,1.021026764E0,-7.196135559E0,-1.656754761E0,7.454642780E0
4.320971583E0,6.279441833E-1,-7.221283264E0,-2.446811829E0,7.650368227E0
4.330904583E0,1.155596924E-1,-7.317982178E0,-3.463048553E0,8.096846453E0
4.340838583E0,-6.526428223E-1,-7.561825104E0,-4.496050415E0,8.821655791E0
4.350771583E0,-1.576820984E0,-7.962092743E0,-5.180427246E0,9.629024442E0
4.360705583E0,-2.505639496E0,-8.270152130E0,-5.439837799E0,1.021104700E1
4.370638583E0,-3.769611053E0,-8.496331787E0,-5.771697693E0,1.094121180E1
4.380572583E0,-4.875211945E0,-8.613687744E0,-6.468498688E0,1.182390728E1
4.390505583E0,-4.831353149E0,-8.763526154E0,-6.134543152E0,1.173771628E1
4.400439583E0,-3.907025299E0,-9.259744263E0,-5.031337280E0,1.123930893E1
4.410372583E0,-3.316503296E0,-9.425150299E0,-4.418062592E0,1.092483086E1
4.420306583E0,-2.379302216E0,-9.413025513E0,-3.782334595E0,1.041979766E1
4.430239583E0,-1.194965057E0,-9.824669495E0,-3.071762238E0,1.036280828E1
4.440173583E0,4.399351501E-1,-1.024424698E1,-3.473227386E0,1.082596174E1
4.450106583E0,2.255809021E0,-1.033046768E1,-3.649860077E0,1.118609474E1
4.460040583E0,3.210972748E0,-1.007390121E1,-3.991150360E0,1.130146508E1
4.469973583E0,3.214116211E0,-9.567504272E0,-4.678820343E0,1.112470408E1
4.479907583E0,1.581161957E0,-8.978479156E0,-5.041965179E0,1.041799280E1
4.489840583E0,-7.050338745E-2,-9.044042816E0,-5.765710144E0,1.072581441E1
4.499774583E0,-8.515791321E-1,-1.031834290E1,-6.939120026E0,1.246373836E1
4.509707583E0,-1.326541443E0,-1.254900421E1,-6.834786987E0,1.435101153E1
4.519640583E0,-2.562820587E0,-1.495854355E1,-5.843847656E0,1.626273747E1
4.529574583E0,-4.847220154E0,-1.773886185E1,-4.180207214E0,1.885833755E1
4.539507583E0,-5.969286804E0,-2.007355682E1,-1.942211151E0,2.103217185E1
4.549441583E0,-4.801864471E0,-2.065060684E1,-1.266366577E-1,2.120192213E1
4.559374583E0,-1.584904175E0,-1.690180252E1,3.396437073E-1,1.697934650E1
4.569308583E0,8.464897156E-1,-1.094778397E1,-9.280700684E-1,1.101961128E1
4.579241583E0,1.685944061E0,-7.804620209E0,-2.371069336E0,8.329254095E0
4.589175583E0,1.995200958E0,-8.281378784E0,-2.690056000E0,8.932998529E0
4.599108583E0,1.935325470E0,-1.018931122E1,-1.781146088E0,1.052330885E1
4.609042583E0,1.602268066E0,-1.112411728E1,-7.997868347E-1,1.126733807E1
4.618975583E0,1.324894867E0,-1.120015915E1,-4.914280701E-1,1.128895092E1
4.628909583E0,1.628313904E0,-1.061787003E1,-7.126679993E-1,1.076561497E1
4.638842583E0,1.622925110E0,-9.527387695E0,-1.272653503E0,9.748058737E0
4.648776583E0,1.190025330E0,-8.307424622E0,-1.810185699E0,8.585233625E0
4.658709583E0,1.398392029E0,-7.296576691E0,-2.341281281E0,7.789552600E0
4.668643583E0,1.939516754E0,-6.675967255E0,-2.574795685E0,7.413490193E0
4.678576583E0,2.443668365E0,-6.525679779E0,-2.936443634E0,7.561660722E0
4.688510583E0,2.932402039E0,-6.756649475E0,-3.225043488E0,8.040659136E0
4.698443583E0,3.210823059E0,-7.146289215E0,-3.499123535E0,8.580367112E0
4.708377583E0,3.473826141E0,-7.691006470E0,-3.799249420E0,9.254909223E0
4.718310583E0,3.611090698E0,-8.429570618E0,-4.702620850E0,1.030593420E1
4.728244583E0,3.827690277E0,-8.764873352E0,-4.713548126E0,1.066263352E1
4.738177583E0,4.585264893E0,-9.127569122E0,-3.571872253E0,1.082106481E1
4.748110583E0,5.246739349E0,-9.413025513E0,-1.999841309E0,1.096050584E1
4.758044583E0,4.968318329E0,-9.482930145E0,-1.144819336E0,1.076665048E1
4.767977583E0,3.686533813E0,-9.488169250E0,-9.328601074E-1,1.022184500E1
4.777911583E0,2.131268005E0,-9.139394531E0,-1.321601715E0,9.477207753E0
4.787844583E0,1.015188904E0,-8.721613312E0,-2.132166138E0,9.035667087E0
4.797778583E0,3.555107117E-1,-8.190368042E0,-2.370021515E0,8.533786880E0
4.807711583E0,-2.442919922E-1,-7.612419891E0,-1.852547607E0,7.838402121E0
4.817645583E0,-5.113366699E-1,-7.201374664E0,-9.024732971E-1,7.275693802E0
4.827578583E0,-7.312294006E-1,-7.079228668E0,-2.552192688E-1,7.121468377E0
4.837512583E0,-8.408015442E-1,-7.216044159E0,1.469943237E-1,7.266350382E0
4.847445583E0,-3.327580261E-1,-8.113727417E0,-5.695655823E-1,8.140497863E0
4.857379583E0,1.344504089E0,-8.488098907E0,-1.272952881E0,8.687688032E0
4.867312583E0,2.679877167E0,-8.301736450E0,-9.635462952E-1,8.776616158E0
4.877246583E0,2.458188171E0,-9.280850372E0,-1.872605896E0,9.781795620E0
4.887179583E0,2.939437408E0,-9.391769714E0,-3.227737885E0,1.035682975E1
4.897113583E0,4.028422852E0,-8.904832306E0,-3.361559601E0,1.033558474E1
4.907046583E0,5.081932068E0,-7.948920135E0,-2.852468262E0,9.856365458E0
4.916980583E0,5.250032501E0,-7.014114075E0,-2.524949341E0,9.117894861E0
4.926913583E0,3.476819916E0,-6.936725006E0,-2.576741638E0,8.175942026E0
4.936846583E0,1.440753937E0,-6.644981689E0,-2.277364197E0,7.170630464E0
4.946780583E0,7.020401001E-1,-6.238576813E0,-2.330653381E0,6.696614528E0
4.956713583E0,3.385958862E-1,-6.297554169E0,-2.619552612E0,6.829047633E0
4.966647583E0,7.659571838E-1,-6.948999481E0,-3.557801514E0,7.844312322E0
4.976580583E0,1.355431366E0,-7.360942841E0,-4.406835938E0,8.685670767E0
4.986514583E0,1.378932495E0,-7.803422699E0,-4.951403503E0,9.344049299E0
4.996447583E0,1.289867706E0,-8.395591278E0,-5.467530212E0,1.010166314E1
5.006381583E0,1.024918671E0,-9.229956207E0,-5.360652466E0,1.072283287E1
5.016314583E0,5.674699402E-1,-9.530531158E0,-4.401746521E0,1.051324968E1
5.026248583E0,-1.249451752E0,-1.073821976E1,-3.769910431E0,1.144913612E1
5.036181583E0,-1.294208679E0,-1.160357025E1,-3.689527588E0,1.224460830E1
5.046116000E0,6.939569092E-1,-9.667196960E0,-3.840713196E0,1.042532259E1
5.056049000E0,7.415579224E-1,-8.870852966E0,-4.599784698E0,1.001997803E1
5.065983000E0,1.703457642E-1,-9.004974060E0,-4.779710541E0,1.019628405E1
5.075916000E0,-1.823208618E-1,-8.976682892E0,-4.489464111E0,1.003839453E1
5.085850000E0,-7.309300232E-1,-9.102122040E0,-4.412823486E0,1.014178956E1
5.095783000E0,-1.070723419E0,-9.098379822E0,-4.723876648E0,1.030737477E1
5.105717000E0,-8.054750061E-1,-8.947792969E0,-6.084547119E0,1.085050702E1
5.115650000E0,-5.957611084E-1,-9.207652588E0,-7.212601318E0,1.171142243E1
5.125584000E0,-5.126838684E-1,-9.970765686E0,-6.910230103E0,1.214208768E1
5.135517000E0,2.933898926E-1,-1.082848206E1,-5.253325653E0,1.203908351E1
5.145450000E0,2.019899597E0,-1.162991547E1,-3.429518280E0,1.229213260E1
5.155384000E0,4.532424774E0,-1.261187347E1,-1.668580170E0,1.350505041E1
5.165317000E0,7.591313782E0,-1.339758957E1,-6.271957397E-1,1.541158090E1
5.175251000E0,1.011207184E1,-1.370340363E1,1.196012878E-1,1.703090051E1
5.185184000E0,1.068747528E1,-1.349518661E1,3.345542908E-1,1.721784296E1
5.195118000E0,1.087159241E1,-1.323203384E1,-3.873944092E-1,1.712974943E1
5.205051000E0,1.051383636E1,-1.332334396E1,-9.614506531E-1,1.699931283E1
5.214985000E0,8.922345886E0,-1.291843597E1,-8.310717773E-1,1.572211577E1
5.224918000E0,6.301446075E0,-1.245035934E1,-7.761360168E-1,1.397576680E1
5.234852000E0,3.737727356E0,-1.288385788E1,-1.467248840E0,1.349508128E1
5.244785000E0,6.233038330E-1,-1.370385269E1,-3.401676178E0,1.413348814E1
5.254719000E0,-3.981270905E0,-1.402867722E1,-4.139342194E0,1.515877489E1
5.264652000E0,-7.862849121E0,-1.411534698E1,-2.884202271E0,1.641298387E1
5.274586000E0,-9.006620636E0,-1.365101257E1,1.077758789E-2,1.635449405E1
5.284519000E0,-7.999065857E0,-1.200683167E1,3.344345398E0,1.480991922E1
5.294453000E0,-7.846533051E0,-9.976453857E0,4.855752411E0,1.358955643E1
5.304386000E0,-6.734345856E0,-8.605604553E0,5.626649323E0,1.229093269E1
5.314320000E0,-2.462678833E0,-8.099506989E0,4.676275635E0,9.671316059E0
5.324253000E0,2.213746490E0,-7.769892426E0,4.059857483E0,9.041810914E0
5.334186000E0,3.384461975E0,-7.096293182E0,3.221301270E0,8.496395804E0
5.344120000E0,2.021845551E0,-6.257287903E0,-7.923023987E-1,6.623386930E0
5.354053000E0,1.791474609E0,-5.533243561E0,-4.473597107E0,7.337522515E0
5.363987000E0,2.545307007E0,-4.985682220E0,-6.607409821E0,8.659877568E0
5.373920000E0,2.898123322E0,-5.592969360E0,-6.080655212E0,8.755272290E0
5.383854000E0,2.966381378E0,-5.771548004E0,-4.877307587E0,8.117777660E0
5.393787000E0,3.326083374E0,-6.036347351E0,-3.164269867E0,7.583727563E0
5.403721000E0,3.608396301E0,-6.471941528E0,-1.637145538E0,7.588596479E0
5.413654000E0,3.376378784E0,-6.786886597E0,-1.014889526E0,7.647990855E0
5.423588000E0,2.714155884E0,-6.972350922E0,-8.604107666E-1,7.531309728E0
5.433521000E0,1.817520447E0,-6.762936401E0,-9.696835327E-1,7.069722448E0
5.443455000E0,6.867718506E-1,-7.517666931E0,-1.361269226E0,7.670725231E0
5.453388000E0,-8.198451233E-1,-8.993747406E0,-1.436562653E0,9.144580400E0
5.463322000E0,-4.999603271E-1,-9.251062317E0,-1.067579956E0,9.325869465E0
5.473255000E0,7.860154724E-1,-8.944948883E0,-6.668632507E-1,9.004145570E0
5.483189000E0,7.533833313E-1,-8.428373108E0,-1.071471863E0,8.529543460E0
5.493122000E0,9.626481628E-1,-7.450905762E0,-1.846410370E0,7.736402226E0
5.503056000E0,7.128176880E-1,-7.449857941E0,-2.334545288E0,7.839553182E0
5.512989000E0,-1.105900269E0,-7.518714752E0,-3.617976379E0,8.416878282E0
5.522923000E0,-3.236868896E0,-7.890840912E0,-5.177732849E0,9.977555212E0
5.532856000E0,-4.872517548E0,-8.560248871E0,-6.903344421E0,1.202811091E1
5.542789000E0,-5.576802979E0,-8.254434814E0,-8.350984039E0,1.299905227E1
5.552723000E0,-5.970933380E0,-8.219407654E0,-7.881560211E0,1.285805969E1
5.562656000E0,-5.522615662E0,-8.812324677E0,-7.720495148E0,1.295231235E1
5.572590000E0,-4.348157959E0,-9.278904419E0,-8.325836334E0,1.320318505E1
5.582523000E0,-1.895358582E0,-1.039468414E1,-8.477920074E0,1.354684359E1
5.592457000E0,5.101391602E-1,-1.082967957E1,-7.128775635E0,1.297542460E1
5.602390000E0,2.212399292E0,-1.038435562E1,-4.452490997E0,1.151321972E1
5.612324000E0,2.945424957E0,-9.706714783E0,-2.562371521E0,1.046238920E1
5.622257000E0,3.990401917E0,-9.218879242E0,-1.720821533E0,1.019177456E1
5.632191000E0,5.148244171E0,-9.410031738E0,-2.776426392E0,1.107978605E1
5.642124000E0,4.648283844E0,-1.169308411E1,-4.506528625E0,1.336576069E1
5.652058000E0,1.244811401E0,-1.529294815E1,-5.465883636E0,1.628802328E1
5.661991000E0,-1.801054688E0,-1.924203598E1,-4.749772797E0,1.990125846E1
5.671925000E0,-2.907553711E0,-2.225736557E1,-1.909878387E0,2.252757923E1
5.681858000E0,-2.489473114E0,-2.107587250E1,1.564546509E0,2.127998317E1
5.691792000E0,-1.055604858E0,-1.437430847E1,2.137854309E0,1.457070577E1
5.701725000E0,-2.074685669E-1,-8.251141663E0,1.551822968E0,8.398365107E0
5.711659000E0,-1.715432739E-1,-9.230405273E0,-7.259902954E-1,9.260500554E0
5.721592000E0,4.550537109E-2,-1.207928101E1,-2.899021454E0,1.242237601E1
5.731526000E0,1.268013153E0,-1.096903976E1,-2.731669464E0,1.137495973E1
5.741459000E0,2.636317749E0,-1.005010071E1,-1.832639008E0,1.055051000E1
5.751392000E0,3.268303528E0,-9.533524933E0,-2.147434387E0,1.030443497E1
5.761326000E0,3.338507538E0,-8.791817322E0,-2.843636627E0,9.824864053E0
5.771259000E0,4.118385773E0,-8.307125244E0,-3.147355042E0,9.791592054E0
5.781193000E0,4.104614410E0,-8.115673370E0,-3.260220337E0,9.661317216E0
5.791126000E0,3.505859528E0,-8.041876831E0,-3.485202484E0,9.439781266E0
5.801060000E0,2.969674530E0,-7.912695465E0,-3.275338898E0,9.064080827E0
5.810993000E0,2.758014679E0,-7.886649628E0,-2.527194672E0,8.728837278E0
5.820927000E0,3.037932587E0,-7.955955505E0,-1.828298035E0,8.710277614E0
5.830860000E0,3.334465942E0,-8.361013184E0,-1.267264709E0,9.090168558E0
5.840794000E0,3.684288483E0,-8.360713806E0,-8.313711548E-1,9.174240839E0
5.850727000E0,3.616329803E0,-8.475225677E0,-1.063388672E0,9.275671782E0
5.860661000E0,2.992277527E0,-8.853938141E0,-2.377356262E0,9.643535047E0
5.870594000E0,2.300865326E0,-8.673413544E0,-3.157833252E0,9.512833153E0
5.880528000E0,2.119592285E0,-8.678802338E0,-3.871848450E0,9.736811177E0
5.890461000E0,1.774709473E0,-9.073980560E0,-4.281696167E0,1.018919226E1
5.900395000E0,2.177671509E0,-9.789043579E0,-4.149521027E0,1.085293288E1
5.910328000E0,1.969005432E0,-1.024888733E1,-3.254681854E0,1.093204591E1
5.920262000E0,1.715432739E0,-1.031504974E1,-1.471440125E0,1.055973943E1
5.930195000E0,1.770967255E0,-9.752968597E0,1.616638184E-2,9.912466032E0
5.940128000E0,1.737886047E0,-9.367220764E0,3.565585327E-1,9.533740438E0
5.950062000E0,7.937992859E-1,-1.234183502E1,-1.044827271E0,1.241139287E1
5.959995000E0,1.960922241E-2,-8.978179779E0,-8.300239563E-1,9.016486923E0
5.969929000E0,-1.721420288E-2,-4.248764648E0,-4.712200928E-1,4.274850377E0
5.979862000E0,1.546284485E-1,-3.058439941E0,-1.145567780E0,3.269600950E0
5.989796000E0,1.570234680E-1,-4.060306549E0,-2.158511353E0,4.601077798E0
5.999729000E0,2.435435486E-1,-6.636299744E0,-2.325264587E0,7.036095732E0
6.009663000E0,1.507964172E0,-7.703131256E0,-2.216590576E0,8.156314172E0
6.019596000E0,2.825973358E0,-7.069199524E0,-2.501597900E0,8.013594661E0
6.029530000E0,3.509601746E0,-6.061495056E0,-3.315904541E0,7.749467701E0
6.039461500E0,3.776945801E0,-5.673501892E0,-3.373385010E0,7.604845148E0
6.049395500E0,3.771856384E0,-6.473139038E0,-2.681074677E0,7.957172300E0
6.059328500E0,3.355272675E0,-8.009993134E0,-2.401306458E0,9.010222940E0
6.069262500E0,3.159030762E0,-9.116791534E0,-2.535876617E0,9.976273525E0
6.079195500E0,3.101550293E0,-8.909622345E0,-2.791994019E0,9.838506754E0
6.089129500E0,2.311642914E0,-8.286767578E0,-3.168012085E0,9.167906545E0
6.099062500E0,1.544039154E0,-8.002508698E0,-3.618874512E0,8.917424241E0
6.108995500E0,1.354383545E0,-7.802374878E0,-4.033063202E0,8.886900883E0
6.118929500E0,1.308728485E0,-7.449109497E0,-3.873345337E0,8.497341152E0
6.128862500E0,1.399739227E0,-7.278164978E0,-3.410657501E0,8.158648169E0
6.138796500E0,1.664239197E0,-8.027955780E0,-3.261567535E0,8.823581410E0
6.148729500E0,2.152673492E0,-9.247320099E0,-3.895050201E0,1.026247281E1
6.158663500E0,2.802472229E0,-1.024484573E1,-5.180876312E0,1.181745294E1
6.168596500E0,2.993774414E0,-1.018497025E1,-6.072871399E0,1.223012965E1
6.178530500E0,2.918331299E0,-1.036309982E1,-5.984854431E0,1.231783171E1
6.188463500E0,2.978805542E0,-1.022957748E1,-5.286855927E0,1.189404824E1
6.198397500E0,2.728076935E0,-1.021685394E1,-4.963827667E0,1.168187029E1
6.208330500E0,2.363734589E0,-1.088566315E1,-5.201982422E0,1.229412561E1
6.218264500E0,1.160386963E0,-1.105316483E1,-5.420977020E0,1.236551424E1
6.228197500E0,3.155438232E-1,-1.074330917E1,-6.525230713E0,1.257365881E1
6.238131500E0,-1.624122620E-1,-1.110795090E1,-7.218439178E0,1.324835141E1
6.248064500E0,-6.867718506E-1,-1.213346832E1,-6.757697296E0,1.390536522E1
6.257998500E0,-6.994953918E-1,-1.292831543E1,-5.855373688E0,1.420971621E1
6.267931500E0,3.752696228E-1,-1.207718536E1,-5.077591095E0,1.310653138E1
6.277865500E0,1.981130219E0,-1.060978683E1,-3.127895508E0,1.123726764E1
6.287798500E0,2.844235382E0,-9.441915436E0,-1.252894592E0,9.940281025E0
6.297731500E0,3.569926300E0,-8.822503510E0,3.442840576E-2,9.517464330E0
6.307665500E0,4.563260651E0,-9.167536011E0,1.008153534E0,1.028996782E1
6.317598500E0,6.086343384E0,-9.458530884E0,1.522184601E0,1.135008494E1
6.327532500E0,8.141270142E0,-1.016072067E1,8.337661743E-1,1.304667353E1
6.337465500E0,9.723629608E0,-1.176987442E1,-8.858578491E-1,1.529260150E1
6.347399500E0,1.045186523E1,-1.293864395E1,-1.800605621E0,1.672997833E1
6.357332500E0,9.682315521E0,-1.412896866E1,-1.440753937E0,1.718868119E1
6.367266500E0,7.561675415E0,-1.496991989E1,-2.101629639E-1,1.677264455E1
6.377199500E0,4.374802551E0,-1.560220505E1,-1.041683807E0,1.623738910E1
6.387133500E0,-1.532812500E-1,-1.505299713E1,-2.741099854E0,1.530130211E1
6.397066500E0,-3.864064636E0,-1.271096741E1,-3.711082764E0,1.379390529E1
6.407000500E0,-5.942941589E0,-1.208032883E1,-4.103716278E0,1.407456524E1
6.416933500E0,-6.343209229E0,-1.242536133E1,-1.652713165E0,1.404839380E1
6.426867500E0,-5.693560181E0,-1.077489349E1,1.859283600E0,1.232768806E1
6.436800500E0,-5.170847168E0,-8.681197357E0,4.820126495E0,1.119528773E1
6.446734500E0,-4.534670105E0,-6.914571075E0,6.079457703E0,1.026325154E1
6.456667500E0,-2.926564178E0,-6.370901642E0,5.165009308E0,8.708070209E0
6.466601500E0,-7.003935242E-1,-6.457721100E0,1.760339355E0,6.729896547E0
6.476534500E0,1.767823792E-1,-5.523663483E0,-1.450783081E0,5.713744991E0
6.486467500E0,8.000862122E-1,-4.383185120E0,-3.807631989E0,5.860930907E0
6.496401500E0,2.249372406E0,-4.046385498E0,-4.537963257E0,6.482748055E0
6.506334500E0,3.006797333E0,-3.985462189E0,-4.848717041E0,6.959511190E0
6.516268500E0,3.573069763E0,-4.250411224E0,-4.942871246E0,7.434029813E0
6.526201500E0,4.043541412E0,-4.648732910E0,-4.385580139E0,7.562688542E0
6.536135500E0,4.040996704E0,-5.198838959E0,-3.369044037E0,7.396488262E0
6.546068500E0,3.756737823E0,-5.880371704E0,-2.213447113E0,7.320600971E0
6.556002500E0,3.414250031E0,-6.410419464E0,-1.541344757E0,7.424710408E0
6.565935500E0,2.789000244E0,-6.802154846E0,-1.331481171E0,7.471323512E0
6.575869500E0,2.110461273E0,-7.197033691E0,-1.145867157E0,7.587117521E0
6.585802500E0,1.501228180E0,-7.503446503E0,-1.159488831E0,7.739496742E0
6.595736500E0,1.196461945E0,-7.636669464E0,-1.369801483E0,7.850261002E0
6.605669500E0,9.211843872E-1,-7.814050598E0,-1.641187134E0,8.037503508E0
6.615603500E0,8.607101440E-2,-7.882757721E0,-2.101479950E0,8.158522874E0
6.625536500E0,-1.146615601E0,-7.884104919E0,-2.441722412E0,8.332817414E0
6.635470500E0,-2.804567871E0,-7.950267334E0,-3.009940796E0,8.951653212E0
6.645403500E0,-4.262536011E0,-8.006550293E0,-3.935166779E0,9.887345367E0
6.655337500E0,-4.862787781E0,-8.287516022E0,-4.659660187E0,1.067904770E1
6.665270500E0,-5.320835266E0,-8.757239227E0,-5.966742096E0,1.185759411E1
6.675204500E0,-5.359754333E0,-9.244625702E0,-8.090974731E0,1.340350488E1
6.685137500E0,-4.373305664E0,-9.824220428E0,-8.752449188E0,1.386529755E1
6.695070500E0,-2.468367004E0,-1.057775345E1,-8.204289093E0,1.361220273E1
6.705004500E0,7.220983887E-1,-1.136781052E1,-6.666387177E0,1.319807789E1
6.714937500E0,3.738326111E0,-1.179771652E1,-4.830005951E0,1.328495972E1
6.724871500E0,4.646637268E0,-1.150672165E1,-4.007915497E0,1.304067742E1
6.734804500E0,4.230203247E0,-1.023107437E1,-3.283122711E0,1.154765764E1
6.744738500E0,3.614533539E0,-9.488618317E0,-2.740201721E0,1.051700698E1
6.754671500E0,2.521955566E0,-1.086425766E1,-3.293151855E0,1.162915317E1
6.764605500E0,1.014290771E0,-1.312455734E1,-5.041665802E0,1.409614079E1
6.774538500E0,-1.557960205E0,-1.650348083E1,-7.253466339E0,1.809433319E1
6.784472500E0,-5.137017517E0,-2.135264694E1,-7.906109161E0,2.334161611E1
6.794405500E0,-6.347550201E0,-2.574720840E1,-5.904920654E0,2.716759507E1
6.804339500E0,-3.633993073E0,-2.300281540E1,-1.880988464E0,2.336393673E1
6.814272500E0,-3.514691162E-1,-1.369846390E1,1.520538025E0,1.378707654E1
6.824206500E0,7.535330200E-1,-7.345375214E0,2.652783508E0,7.845993206E0
6.834139500E0,6.662644958E-1,-6.685098267E0,3.235671387E0,7.456810078E0
6.844073500E0,1.209933929E0,-9.889484711E0,2.270478516E0,1.021865552E1
6.854006500E0,1.977388000E0,-1.228001358E1,3.359014893E-1,1.244273389E1
6.863939500E0,2.268233185E0,-1.153830597E1,-5.930667114E-1,1.177408657E1
6.873873500E0,2.748284912E0,-8.554411011E0,-1.590292969E0,9.124694484E0
6.883806500E0,2.876418457E0,-7.014114075E0,-3.047512665E0,8.170612758E0
6.893740500E0,2.567311249E0,-7.056176605E0,-4.361929321E0,8.683728619E0
6.903673500E0,2.139650574E0,-7.606731720E0,-5.259612579E0,9.492312496E0
6.913607500E0,2.305056610E0,-8.602161713E0,-5.161566467E0,1.029331047E1
6.923540500E0,2.530188446E0,-9.500593414E0,-4.656965790E0,1.087889972E1
6.933474500E0,2.507735138E0,-9.826465759E0,-3.901935883E0,1.086615242E1
6.943407500E0,2.641407166E0,-1.023676254E1,-3.272345123E0,1.106691383E1
6.953341500E0,2.946772156E0,-1.052147049E1,-2.766996002E0,1.127124990E1
6.963274500E0,3.245401154E0,-1.048764084E1,-2.019600220E0,1.116252767E1
6.973208500E0,3.774999847E0,-1.007090744E1,-6.512956238E-1,1.077487756E1
6.983141500E0,4.241130524E0,-9.384285278E0,1.364263000E0,1.038812841E1
6.993075500E0,4.109254761E0,-8.601263580E0,2.689457245E0,9.904589347E0
7.003008500E0,3.436403961E0,-7.835156708E0,2.306104431E0,8.860963292E0
7.012942500E0,3.014281769E0,-7.142546997E0,1.856140137E-1,7.754761424E0
7.022875500E0,2.581831055E0,-6.513255615E0,-1.620979156E0,7.191378430E0
7.032809500E0,2.294578400E0,-6.309828644E0,-3.834276581E0,7.731798267E0
7.042743250E0,1.731150055E0,-6.408024445E0,-5.611081696E0,8.691599139E0
7.052677250E0,6.662644958E-1,-6.447242889E0,-5.726491699E0,8.648904927E0
7.062610250E0,-9.445358276E-2,-6.610852661E0,-4.022734680E0,7.739165891E0
7.072544250E0,-6.098318481E-1,-6.396199036E0,-1.715881805E0,6.650376482E0
7.082477250E0,-6.099815369E-1,-6.239924011E0,1.243913269E-1,6.270901239E0
7.092410250E0,-3.023712158E-1,-6.246061249E0,6.192622375E-1,6.283963335E0
7.102344250E0,2.888992310E-2,-6.315816193E0,-4.941224670E-1,6.335181593E0
7.112277250E0,3.905378723E-1,-6.374194794E0,-1.337468719E0,6.524699355E0
7.122211250E0,1.041085052E0,-6.671027527E0,-1.971550140E0,7.033738430E0
7.132144250E0,1.641785889E0,-6.835236053E0,-2.335742798E0,7.407537190E0
7.142078250E0,2.330354004E0,-6.943910065E0,-2.731819153E0,7.817369932E0
7.152011250E0,3.080743561E0,-7.392676849E0,-3.063379669E0,8.574785530E0
7.161945250E0,2.824626160E0,-7.700137482E0,-2.725532227E0,8.642867354E0
7.171878250E0,2.142344971E0,-7.858957214E0,-2.503693542E0,8.521815055E0
7.181812250E0,1.849104767E0,-8.158484344E0,-2.542762299E0,8.743322901E0
7.191745250E0,1.624122620E0,-8.192463684E0,-2.710862732E0,8.780832093E0
7.201679250E0,1.073118439E0,-8.246501312E0,-2.785707092E0,8.770207015E0
7.211612250E0,-1.607656860E-1,-8.636290741E0,-3.268602905E0,9.235536169E0
7.221546250E0,-1.187630310E0,-8.734486542E0,-4.116888885E0,9.728848596E0
7.231479250E0,-1.197958832E0,-8.321195984E0,-4.638254700E0,9.601604794E0
7.241413250E0,-1.880090332E-1,-8.199648743E0,-4.392615509E0,9.304013000E0
7.251346250E0,7.306306458E-1,-8.084837494E0,-4.821623383E0,9.441740861E0
7.261280250E0,1.390308838E0,-8.189769287E0,-6.159990234E0,1.034170002E1
7.271213250E0,2.257904663E0,-8.657995605E0,-6.967411194E0,1.134036331E1
7.281147250E0,3.107537842E0,-9.200018463E0,-6.492598572E0,1.168122285E1
7.291080250E0,2.871478729E0,-9.543404388E0,-5.374723206E0,1.132296812E1
7.301014250E0,2.104024658E0,-9.007219391E0,-4.843627625E0,1.044115173E1
7.310947250E0,1.738634491E0,-8.971144409E0,-5.756130066E0,1.079987570E1
7.320880250E0,8.189469910E-1,-9.185199280E0,-6.395450592E0,1.122231475E1
7.330814250E0,-6.007008362E-1,-8.649163971E0,-5.823040924E0,1.044397838E1
7.340747250E0,-4.915777588E-1,-7.844138031E0,-4.615352325E0,9.114473503E0
7.350681250E0,3.255729675E-1,-8.064479828E0,-3.612288208E0,8.842536896E0
7.360614250E0,8.213420105E-1,-9.436077576E0,-2.780168610E0,9.871347436E0
7.370548250E0,1.707199860E0,-1.110121490E1,-2.337239685E0,1.147232292E1
7.380481250E0,2.388732605E0,-1.281634827E1,-2.630629578E0,1.329981347E1
7.390415250E0,3.713477783E0,-1.448028809E1,-1.851799164E0,1.506312784E1
7.400348250E0,6.697073364E0,-1.652039566E1,-1.304686890E0,1.787390479E1
7.410282250E0,9.829160156E0,-1.763333130E1,-1.633103943E-1,2.018844799E1
7.420215250E0,1.231474136E1,-1.800066742E1,2.918930054E-2,2.181003747E1
7.430149250E0,1.349473755E1,-1.783062103E1,-9.571096802E-1,2.238202508E1
7.440082250E0,1.280826508E1,-1.708337494E1,-1.990410919E0,2.144423207E1
7.450016250E0,9.303153992E0,-1.537946823E1,-1.449585571E0,1.803269297E1
7.459949250E0,4.555626526E0,-1.377076355E1,3.475772095E-1,1.450891008E1
7.469883250E0,1.659000092E0,-1.390548340E1,1.309476929E0,1.406518680E1
7.479816250E0,-1.330133972E0,-1.368963226E1,-5.583389282E-2,1.375421409E1
7.489750250E0,-5.827980652E0,-1.410801224E1,-2.404150543E0,1.545255020E1
7.499683250E0,-9.685608673E0,-1.438059540E1,-1.119072876E0,1.737425865E1
7.509617250E0,-9.975705414E0,-1.295855255E1,7.702981567E-1,1.637168721E1
7.519550250E0,-9.254505157E0,-1.092503128E1,1.945504303E0,1.444946924E1
7.529484250E0,-8.745862885E0,-9.346414032E0,2.707569580E0,1.308344396E1
7.539417250E0,-6.332431641E0,-8.352331238E0,3.251538391E0,1.097422569E1
7.549351250E0,-2.226769409E0,-8.819958801E0,3.276686096E0,9.668859655E0
7.559284250E0,1.670526123E-1,-8.299790497E0,2.575095062E0,8.691693934E0
7.569217250E0,1.057550812E0,-7.037764893E0,6.735992432E-1,7.148586178E0
7.579151250E0,1.376986542E0,-5.579497375E0,-1.762884064E0,6.011209788E0
7.589084250E0,1.569037170E0,-4.209995270E0,-3.058889008E0,5.435323337E0
7.599018250E0,1.721120911E0,-3.226091309E0,-3.813769226E0,5.283441873E0
7.608951250E0,2.312990112E0,-2.658920746E0,-4.255800018E0,5.525542199E0
7.618885250E0,3.373684387E0,-2.450254669E0,-4.397555237E0,6.060031877E0
7.628818250E0,4.442012787E0,-2.568059692E0,-3.948189697E0,6.474149370E0
7.638752250E0,5.090763702E0,-3.172203369E0,-3.022065582E0,6.716519163E0
7.648685250E0,5.420527954E0,-4.467459869E0,-1.658101959E0,7.217314119E0
7.658619250E0,5.132227478E0,-5.233566742E0,-1.663939819E0,7.516560081E0
7.668552250E0,4.639152832E0,-5.279521179E0,-2.244732056E0,7.377933646E0
7.678486250E0,3.795656891E0,-5.519771576E0,-2.405348053E0,7.117625218E0
7.688419250E0,2.920426941E0,-5.869444427E0,-2.256557465E0,6.933348613E0
7.698353250E0,1.683249664E0,-6.314319305E0,-1.772314453E0,6.770897743E0
7.708286250E0,8.078700256E-1,-6.734645233E0,-1.137484589E0,6.877642880E0
7.718220250E0,-6.801855469E-1,-6.963519287E0,-6.339317322E-1,7.025320112E0
7.728153250E0,-2.605481873E0,-7.597301331E0,-8.544232178E-1,8.076977302E0
7.738087250E0,-4.514162750E0,-8.610244904E0,-1.910327454E0,9.907741095E0
7.748020250E0,-6.131399689E0,-9.919272766E0,-3.907025299E0,1.229840970E1
7.757954250E0,-8.567583618E0,-1.125165207E1,-6.327491913E0,1.549323456E1
7.767887250E0,-1.026849655E1,-1.235650452E1,-8.463549957E0,1.815920987E1
7.777821250E0,-9.991422729E0,-1.320718552E1,-9.938432922E0,1.931400338E1
7.787754250E0,-6.912625122E0,-1.384485947E1,-1.019829254E1,1.853293529E1
7.797688250E0,-9.870474243E-1,-1.357571915E1,-8.597221985E0,1.609927448E1
7.807621250E0,3.473826141E0,-1.278027328E1,-5.992787933E0,1.453672455E1
7.817554250E0,4.605323181E0,-1.131033005E1,-3.985761566E0,1.284596679E1
7.827488250E0,5.068609772E0,-9.000034332E0,-1.878294067E0,1.049854331E1
7.837421250E0,5.580395508E0,-8.053103485E0,-1.080752563E-1,9.798212593E0
7.847355250E0,3.478616180E0,-9.942324829E0,-1.155297546E0,1.059647611E1
7.857288250E0,-5.840853882E-1,-1.288730072E1,-4.780159607E0,1.375767428E1
7.867222250E0,-3.665727081E0,-1.647174683E1,-6.720873871E0,1.816386919E1
7.877155250E0,-6.053112488E0,-2.026141617E1,-6.904691620E0,2.224499769E1
7.887089250E0,-7.448211365E0,-2.161280594E1,-6.479575653E0,2.376076879E1
7.897022250E0,-6.535559235E0,-1.801354065E1,-4.848417664E0,1.976634349E1
7.906956250E0,-3.944746857E0,-1.284688477E1,-1.405427399E0,1.351216867E1
7.916889250E0,-1.082099762E0,-9.967023468E0,1.788331146E0,1.018384137E1
7.926823250E0,8.301736450E-1,-1.074480606E1,2.930456085E0,1.116815197E1
7.936756250E0,2.891836395E0,-1.259181519E1,3.287313995E0,1.333127753E1
7.946690250E0,4.155358887E0,-1.191103088E1,2.357447662E0,1.283344161E1
7.956623250E0,3.879332886E0,-8.975635071E0,-1.179696808E0,9.849006707E0
7.966557250E0,3.480412445E0,-6.570586395E0,-4.744533691E0,8.820231081E0
7.976490250E0,3.694018250E0,-6.164031830E0,-6.549031219E0,9.722698655E0
7.986424250E0,4.087998962E0,-7.059769135E0,-6.082002411E0,1.017559969E1
7.996357250E0,4.214934998E0,-8.224347382E0,-4.772824860E0,1.040122224E1
8.006291250E0,4.333638153E0,-1.008303223E1,-3.967050476E0,1.166985210E1
8.016224250E0,4.300856323E0,-1.211146408E1,-3.882925415E0,1.342616986E1
8.026157250E0,3.978277130E0,-1.307590851E1,-3.623365173E0,1.413983194E1
8.036091250E0,3.323838043E0,-1.275991562E1,-2.902164917E0,1.350132983E1
8.046024500E0,3.115321655E0,-1.183034866E1,-1.706002350E0,1.235203718E1
8.055958500E0,3.372935944E0,-1.062236069E1,-7.893086243E-1,1.117292493E1
8.065891500E0,3.757186890E0,-9.643246765E0,4.505630493E-1,1.035913455E1
8.075825500E0,4.377496948E0,-9.006620636E0,2.299518127E0,1.027470089E1
8.085758500E0,4.391567688E0,-8.140222321E0,2.205663300E0,9.508629595E0
8.095692500E0,3.868106232E0,-6.785838776E0,3.465293884E-1,7.818563572E0
8.105625500E0,3.062481537E0,-5.588478699E0,-1.592538300E0,6.568566477E0
8.115559500E0,2.295476532E0,-5.061574402E0,-3.494932251E0,6.565310303E0
8.125492500E0,1.722917175E0,-4.883145447E0,-4.802762604E0,7.062583215E0
8.135426500E0,9.535171509E-1,-4.865631866E0,-4.990023193E0,7.034479361E0
8.145359500E0,4.703219604E-1,-5.497168579E0,-4.002077637E0,6.815914505E0
8.155293500E0,6.286926270E-3,-6.353238373E0,-1.851649475E0,6.617573810E0
8.165226500E0,-3.496728516E-1,-6.886130219E0,4.712200928E-1,6.911085940E0
8.175160500E0,-4.445755005E-1,-6.818770294E0,1.060394897E0,6.915035288E0
8.185093500E0,-4.580474854E-1,-6.712790680E0,2.547702026E-1,6.733221671E0
8.195027500E0,-6.387217712E-1,-6.662345581E0,-9.559121704E-1,6.760812246E0
8.204960500E0,-5.026547241E-1,-6.643185425E0,-2.018702087E0,6.961302499E0
8.214893500E0,8.202941895E-2,-6.775510254E0,-2.696492615E0,7.292828014E0
8.224827500E0,9.996212769E-1,-6.865772552E0,-3.013832703E0,7.564473742E0
8.234760500E0,1.723366241E0,-6.837481384E0,-3.188968506E0,7.738905802E0
8.244694500E0,2.324516144E0,-6.718778229E0,-2.933898926E0,7.691106494E0
8.254627500E0,2.683469696E0,-6.759493561E0,-2.533331909E0,7.701268296E0
8.264561500E0,3.041525116E0,-7.177723846E0,-2.322869568E0,8.134268109E0
8.274494500E0,2.541714478E0,-7.617958374E0,-2.256856842E0,8.341882586E0
8.284428500E0,1.294807434E0,-8.311166840E0,-2.284249878E0,8.716066661E0
8.294361500E0,-7.065307617E-2,-9.316176910E0,-2.458637238E0,9.635405604E0
8.304295500E0,-1.255289612E0,-1.042432251E1,-2.662213898E0,1.083188048E1
8.314228500E0,-1.534758453E0,-1.072519684E1,-3.156785431E0,1.128497342E1
8.324162500E0,-1.299747162E0,-9.811197510E0,-3.754342804E0,1.058508522E1
8.334095500E0,-5.146298218E-1,-8.882229309E0,-4.396357727E0,9.924051724E0
8.344029500E0,7.454498291E-2,-8.567583618E0,-5.593717804E0,1.023223949E1
8.353962500E0,3.339555359E-1,-9.868079224E0,-6.546935577E0,1.184706205E1
8.363896500E0,1.763931885E0,-1.115719849E1,-7.170838165E0,1.337966568E1
8.373829500E0,3.060834961E0,-1.060709244E1,-7.217541046E0,1.318984531E1
8.383763500E0,2.402953033E0,-1.050784882E1,-6.219416656E0,1.244468616E1
8.393696500E0,1.834435272E0,-1.045485901E1,-5.151986389E0,1.179882170E1
8.403629500E0,1.690135345E0,-1.056443115E1,-4.909490662E0,1.177144263E1
8.413563500E0,9.163943481E-1,-1.058553726E1,-4.779860229E0,1.165077000E1
8.423496500E0,-4.520599365E-2,-1.039842636E1,-4.414320374E0,1.129670477E1
8.433430500E0,-1.874102783E-1,-1.009785141E1,-4.419409790E0,1.102419651E1
8.443363500E0,-3.866459656E-1,-1.015308655E1,-4.130061493E0,1.096777414E1
8.453297500E0,-2.278262329E-1,-1.126377686E1,-2.972368927E0,1.165159006E1
8.463230500E0,5.771997070E-1,-1.238195160E1,-2.272574158E0,1.260200294E1
8.473164500E0,2.299817505E0,-1.243419296E1,-3.196452942E0,1.304283813E1
8.483097500E0,3.824696503E0,-1.242955261E1,-3.243155823E0,1.340299001E1
8.493031500E0,5.254972229E0,-1.241533218E1,-2.022144928E0,1.363247140E1
8.502964500E0,6.572981415E0,-1.195997910E1,-7.274871826E-2,1.364736154E1
8.512898500E0,7.578440552E0,-1.135299133E1,1.221909027E0,1.370460635E1
8.522831500E0,7.898175659E0,-1.066068100E1,1.759590912E0,1.338385065E1
8.532765500E0,8.570278015E0,-1.066547104E1,1.292562103E0,1.374309479E1
8.542698500E0,9.802515564E0,-1.152917496E1,5.343887329E-2,1.513320991E1
8.552631500E0,1.005593857E1,-1.269959106E1,-1.090332642E0,1.623546547E1
8.562565500E0,8.026758270E0,-1.457968140E1,-1.520088959E0,1.671246925E1
8.572498500E0,4.750820618E0,-1.620994125E1,-1.704505463E0,1.697756846E1
8.582432500E0,1.516346741E-1,-1.665212173E1,-3.475173340E0,1.701155434E1
8.592365500E0,-4.826712799E0,-1.617012405E1,-6.185437317E0,1.797302710E1
8.602299500E0,-8.381520538E0,-1.541225006E1,-3.945944366E0,1.798215269E1
8.612232500E0,-9.921218719E0,-1.407732605E1,1.240620117E0,1.726675499E1
8.622166500E0,-9.583221588E0,-1.154189850E1,5.133574677E0,1.585582372E1
8.632099500E0,-9.550589447E0,-9.525591431E0,7.038363647E0,1.521476959E1
8.642033500E0,-8.263116760E0,-7.832911377E0,8.117170258E0,1.398292002E1
8.651966500E0,-4.761298828E0,-7.184459839E0,6.455475769E0,1.076845379E1
8.661900500E0,-8.126600647E-1,-7.050488434E0,3.611689453E0,7.963297322E0
8.671833500E0,6.095324707E-1,-6.670428772E0,5.288502502E-1,6.719064847E0
8.681767500E0,1.247206421E0,-6.005062408E0,-2.654729462E0,6.683104585E0
8.691700500E0,1.720522156E0,-5.037175140E0,-5.211113434E0,7.449096127E0
8.701633500E0,2.711311798E0,-3.851640472E0,-6.735094299E0,8.218749371E0
8.711567500E0,3.804338837E0,-2.964585114E0,-7.055877228E0,8.546763266E0
8.721500500E0,4.646637268E0,-2.614313507E0,-5.689518585E0,7.797210703E0
8.731434500E0,4.975653076E0,-2.720442810E0,-3.894601135E0,6.879378651E0
8.741367500E0,5.328768768E0,-3.432811432E0,-2.266586609E0,6.731818905E0
8.751301500E0,5.319188690E0,-4.486320648E0,-1.344953156E0,7.087294284E0
8.761234500E0,4.429588623E0,-5.305567017E0,-1.127605133E0,7.002984369E0
8.771168500E0,3.114273834E0,-5.857020264E0,-1.405577087E0,6.780784234E0
8.781101500E0,2.186054077E0,-6.495442657E0,-1.946701813E0,7.124553017E0
8.791035500E0,1.613794098E0,-6.938072205E0,-2.116149445E0,7.430966679E0
8.800968500E0,1.242715759E0,-7.351811829E0,-1.936373291E0,7.703442162E0
8.810902500E0,4.507127380E-1,-7.657027130E0,-1.365161133E0,7.790819685E0
8.820835500E0,-8.610095215E-1,-7.837551727E0,-3.778143311E-1,7.893750575E0
8.830769500E0,-2.388582916E0,-8.210126953E0,-4.911286926E-1,8.564620268E0
8.840702500E0,-4.392914886E0,-8.822653198E0,-1.633553009E0,9.990265567E0
8.850635500E0,-6.573131104E0,-1.003034180E1,-4.071233826E0,1.266446817E1
8.860569500E0,-8.790320435E0,-1.137215149E1,-7.231462097E0,1.609004683E1
8.870502500E0,-1.018946091E1,-1.238389755E1,-9.508526917E0,1.864398338E1
8.880436500E0,-9.235045624E0,-1.288864792E1,-9.733658752E0,1.860503764E1
8.890369500E0,-6.591692505E0,-1.344773529E1,-8.961564331E0,1.745284016E1
8.900303500E0,-2.703378296E0,-1.354488327E1,-7.887697449E0,1.590559298E1
8.910236500E0,2.576891327E0,-1.274075546E1,-6.007906494E0,1.431999159E1
8.920170500E0,4.785398712E0,-1.150821854E1,-4.384682007E0,1.321228864E1
8.930103500E0,5.053790588E0,-9.451046448E0,-2.956651611E0,1.111777257E1
8.940037500E0,5.784421234E0,-7.918233948E0,-1.099313965E0,9.867443897E0
8.949970500E0,4.667593689E0,-9.234446869E0,-9.300160217E-1,1.038876170E1
8.959904500E0,1.468895416E0,-1.221564743E1,-3.503165131E0,1.279264874E1
8.969837500E0,-1.344953156E0,-1.611069763E1,-5.786816254E0,1.717121776E1
8.979771500E0,-3.678600311E0,-2.048909271E1,-6.133345642E0,2.170145039E1
8.989704500E0,-5.733826447E0,-2.241992752E1,-5.045408020E0,2.368514424E1
8.999638500E0,-6.125561829E0,-1.889745255E1,-3.143762512E0,2.011266922E1
9.009571500E0,-3.455863495E0,-1.183858154E1,-1.106349335E0,1.238220555E1
9.019504500E0,-1.565744019E0,-7.158264313E0,-5.155279541E-1,7.345615793E0
9.029438500E0,-2.975811768E-1,-7.284302216E0,-3.815565491E-1,7.300356068E0
9.039371500E0,1.799108734E0,-1.064316742E1,-2.754272461E-2,1.079419120E1
9.049304833E0,3.122955780E0,-1.301064423E1,7.708969116E-2,1.338042073E1
9.059237833E0,3.259771271E0,-1.224498642E1,-1.340761871E0,1.274219147E1
9.069171833E0,2.703827362E0,-9.134305115E0,-2.939437408E0,9.969278039E0
9.079104833E0,3.295696564E0,-6.976691895E0,-4.325704651E0,8.845765448E0
9.089038833E0,3.766766968E0,-7.111411743E0,-4.592150574E0,9.265449652E0
9.098971833E0,3.882326660E0,-7.912994843E0,-4.110152893E0,9.725292000E0
9.108905833E0,3.967200165E0,-8.893156586E0,-4.326453094E0,1.065575467E1
9.118838833E0,3.933819580E0,-9.641151123E0,-4.246519318E0,1.124542831E1
9.128772833E0,3.503913574E0,-1.041519150E1,-4.217629395E0,1.177038750E1
9.138705833E0,2.361638947E0,-1.125644211E1,-3.458108826E0,1.201013506E1
9.148638833E0,1.588796082E0,-1.174382858E1,-2.378404083E0,1.208712492E1
9.158572833E0,1.396595764E0,-1.183962936E1,-6.587800598E-1,1.193990345E1
9.168505833E0,2.367925873E0,-1.100107315E1,1.787732391E0,1.139415071E1
9.178439833E0,3.380420380E0,-9.574389954E0,3.600462799E0,1.077309228E1
9.188372833E0,3.820954285E0,-8.462053070E0,2.740052032E0,9.680594969E0
9.198306833E0,3.448379059E0,-7.388934631E0,-1.199006653E-1,8.154878864E0
9.208239833E0,2.892435150E0,-6.546486511E0,-2.913092194E0,7.727145195E0
9.218173833E0,2.294428711E0,-6.058800659E0,-4.975054321E0,8.168514800E0
9.228106833E0,1.661245422E0,-5.860912170E0,-6.259533234E0,8.734516823E0
9.238040833E0,-7.843688965E-2,-5.591771851E0,-6.198609924E0,8.348462719E0
9.247973833E0,-6.245013428E-1,-5.538482666E0,-4.270170135E0,7.021334998E0
9.257907833E0,-9.023236084E-1,-5.922733612E0,-1.357527008E0,6.142950505E0
9.267840833E0,-6.679110718E-1,-6.588848419E0,-4.251159668E-2,6.622751386E0
9.277774833E0,-2.842588806E-1,-6.963219910E0,6.002517700E-2,6.969278129E0
9.287707833E0,2.164498901E-1,-6.871460724E0,-1.841171265E-1,6.877333942E0
9.297640833E0,7.617658997E-1,-6.718179474E0,-9.101074219E-1,6.822207725E0
9.307574833E0,1.231489105E0,-6.842271423E0,-1.539398804E0,7.120603368E0
9.317507833E0,1.695224762E0,-6.934779053E0,-1.746717682E0,7.349555780E0
9.327441833E0,2.099533997E0,-6.765181732E0,-1.857637024E0,7.323014556E0
9.337374833E0,2.695893860E0,-6.605463867E0,-2.512076111E0,7.563763811E0
9.347308833E0,2.936593323E0,-6.295907593E0,-2.671943665E0,7.443206010E0
9.357241833E0,3.340902557E0,-6.369255066E0,-3.033890991E0,7.805993501E0
9.367175833E0,3.760180664E0,-7.073540497E0,-3.177891541E0,8.618174310E0
9.377108833E0,3.203638000E0,-7.428302765E0,-2.457739105E0,8.454789170E0
9.387042833E0,2.542013855E0,-7.442373505E0,-2.348316650E0,8.207639668E0
9.396975833E0,8.979826355E-1,-5.898484039E0,-2.957400055E0,6.659181771E0
9.406909833E0,-9.189390564E-1,-4.622537384E0,-3.819607086E0,6.066440402E0
9.416842833E0,-2.694097595E0,-7.531887360E0,-2.373913422E0,8.344037032E0
9.426776833E0,-1.375938721E0,-1.261771133E1,-2.518512726E0,1.293996727E1
9.436709833E0,5.278024292E-1,-1.378797775E1,-2.730172577E0,1.406558738E1
9.446642833E0,1.272653503E0,-1.207673630E1,-3.933819580E0,1.276487928E1
9.456576833E0,1.515747986E0,-1.167332520E1,-5.677244110E0,1.306886046E1
9.466509833E0,2.507136383E0,-1.210712311E1,-7.239096222E0,1.432734019E1
9.476443833E0,3.435206451E0,-1.098775085E1,-8.512647858E0,1.431769834E1
9.486376833E0,2.928360443E0,-9.968969421E0,-8.077502747E0,1.316061157E1
9.496310833E0,3.474125519E0,-9.161548462E0,-7.150929565E0,1.213009942E1
9.506243833E0,3.547772369E0,-8.937314758E0,-6.186185760E0,1.143377357E1
9.516177833E0,1.962868195E0,-8.700656891E0,-5.189258881E0,1.031904500E1
9.526110833E0,8.641529846E-1,-9.099128265E0,-4.587659912E0,1.022680395E1
9.536044833E0,3.192860413E-1,-9.356892242E0,-4.123924255E0,1.023035323E1
9.545977833E0,4.203259277E-1,-9.924511871E0,-3.897145844E0,1.067053680E1
9.555911833E0,1.097966766E0,-1.170775360E1,-3.006797333E0,1.213745672E1
9.565844833E0,1.986668701E0,-1.302276901E1,-1.493594055E0,1.325783498E1
9.575777833E0,2.489323425E0,-1.328637085E1,-1.032552795E0,1.355693722E1
9.585711833E0,1.978585510E0,-1.251741989E1,-1.346150665E0,1.274412504E1
9.595644833E0,1.510808258E0,-1.178005325E1,-1.820813599E0,1.201530517E1
9.605578833E0,1.555265808E0,-1.077923447E1,-1.041833496E0,1.094057423E1
9.615511833E0,2.558329926E0,-1.021865021E1,2.549198914E-1,1.053711764E1
9.625445833E0,4.371659088E0,-1.073597443E1,2.704875183E-1,1.159507281E1
9.635378833E0,6.709347839E0,-1.257040970E1,-1.642085266E-1,1.424982501E1
9.645312833E0,9.046288147E0,-1.510778320E1,-1.087638245E0,1.764265852E1
9.655245833E0,9.424401855E0,-1.647923126E1,-8.394543457E-1,1.900234451E1
9.665179833E0,6.823410645E0,-1.602582413E1,-1.115630035E0,1.745367016E1
9.675112833E0,2.666255493E0,-1.536165527E1,-1.514101410E0,1.566466962E1
9.685046833E0,-1.457219696E0,-1.555146057E1,-3.003354492E0,1.590570820E1
9.694979833E0,-5.221741333E0,-1.539817932E1,-4.066743164E0,1.676033737E1
9.704913833E0,-7.426656189E0,-1.459689560E1,-1.566791840E0,1.645233783E1
9.714846833E0,-7.581434326E0,-1.237895782E1,2.055974579E0,1.466096091E1
9.724779833E0,-7.313790894E0,-1.001642075E1,4.642445984E0,1.324282925E1
9.734713833E0,-6.202052765E0,-8.150101776E0,6.008355560E0,1.187391907E1
9.744646833E0,-4.151317291E0,-7.352560272E0,5.718109131E0,1.019756588E1
9.754580833E0,-1.768572235E0,-6.727609863E0,3.770808563E0,7.912495147E0
9.764513833E0,2.356100464E-1,-6.117179260E0,2.121238861E0,6.478815363E0
9.774447833E0,5.495072937E-1,-5.353916473E0,-1.095721436E-1,5.383157617E0
9.784380833E0,4.650828552E-1,-4.820725250E0,-3.417543182E0,5.927503303E0
9.794314833E0,4.802014160E-1,-4.511767731E0,-6.035149841E0,7.550475155E0
9.804247833E0,1.385219421E0,-4.646786957E0,-6.546486511E0,8.146652534E0
9.814181833E0,2.447111206E0,-4.924908600E0,-5.612728271E0,7.857849364E0
9.824114833E0,2.884501648E0,-4.849315796E0,-4.319268036E0,7.105792694E0
9.834048833E0,3.406765594E0,-5.045408020E0,-2.953358459E0,6.766425947E0
9.843981833E0,3.655697937E0,-5.411846008E0,-2.021396484E0,6.836537747E0
9.853915833E0,3.578009491E0,-5.741011505E0,-1.511107635E0,6.931436453E0
9.863848833E0,3.121907959E0,-5.940247192E0,-1.300046539E0,6.835420032E0
9.873781833E0,2.418670349E0,-6.029461670E0,-1.348096619E0,6.634888001E0
9.883715833E0,2.175126801E0,-6.019582214E0,-1.473685455E0,6.567974989E0
9.893648833E0,1.948797455E0,-6.016139374E0,-1.659149780E0,6.537929525E0
9.903582833E0,1.260678406E0,-6.098767548E0,-2.063309326E0,6.560603708E0
9.913515833E0,2.142045593E-1,-6.127058716E0,-2.495310974E0,6.619162255E0
9.923449833E0,-1.095122681E0,-6.298601990E0,-2.568957825E0,6.889936503E0
9.933382833E0,-2.824027405E0,-6.891668701E0,-2.806214447E0,7.958961477E0
9.943316833E0,-4.415068817E0,-7.655081177E0,-3.722159729E0,9.588929739E0
9.953249833E0,-5.762716370E0,-8.438851318E0,-5.106930084E0,1.142382801E1
9.963183833E0,-7.425159302E0,-9.294921112E0,-6.863826599E0,1.373465197E1
9.973116833E0,-8.702902222E0,-1.050515442E1,-7.749834137E0,1.568944568E1
9.983050833E0,-8.646619263E0,-1.202853653E1,-8.138575745E0,1.690225224E1
9.992983833E0,-6.887627106E0,-1.342917389E1,-8.491691437E0,1.731735955E1
1.000291783E1,-3.062481537E0,-1.431578018E1,-7.821085968E0,1.659788363E1
1.001285083E1,2.828518066E0,-1.419138885E1,-5.590274963E0,1.551280781E1
1.002278383E1,6.596632233E0,-1.285167480E1,-3.632047119E0,1.489539756E1
1.003271783E1,7.935298462E0,-1.025023453E1,-1.947899323E0,1.310841643E1
1.004265108E1,8.735384674E0,-7.419920197E0,-5.149291992E-1,1.147289472E1
1.005258508E1,7.774233398E0,-7.344626770E0,-5.998027039E-1,1.071176972E1
1.006251808E1,3.316353607E0,-9.319170685E0,-3.460054779E0,1.047936652E1
1.007245208E1,-9.234297180E-1,-1.235141510E1,-6.171216888E0,1.383813916E1
1.008238508E1,-3.421435089E0,-1.702888824E1,-6.937772827E0,1.870352760E1
1.009231908E1,-4.816384277E0,-2.250704636E1,-6.856192474E0,2.401607937E1
1.010225208E1,-5.512137451E0,-2.570394836E1,-5.065765686E0,2.677197420E1
1.011218608E1,-5.469925232E0,-2.043984512E1,-1.694476318E0,2.122683680E1
1.012211908E1,-3.699556732E0,-1.121872055E1,2.178419952E0,1.201215735E1
1.013205308E1,-1.794468384E0,-7.939938812E0,4.328399048E0,9.219424247E0
1.014198608E1,1.586700439E0,-9.242380371E0,4.461472321E0,1.038479410E1
1.015191908E1,3.325484619E0,-1.101379669E1,2.177671509E0,1.170917669E1
1.016185308E1,3.730841675E0,-1.058344162E1,-1.509910126E0,1.132290796E1
1.017178608E1,3.610791321E0,-8.603957977E0,-4.062402191E0,1.017688648E1
1.018172008E1,3.728147278E0,-6.864874420E0,-5.313500519E0,9.447691289E0
1.019165308E1,4.166286163E0,-6.980134735E0,-5.688171387E0,9.921467383E0
1.020158708E1,4.628075867E0,-8.200097809E0,-5.148393860E0,1.073157256E1
1.021152008E1,4.693040771E0,-9.755363617E0,-3.765270081E0,1.146163207E1
1.022145408E1,4.461771698E0,-1.117366425E1,-3.337609406E0,1.248590469E1
1.023138708E1,3.672912140E0,-1.239168137E1,-3.259920959E0,1.332933364E1
1.024132108E1,1.989063721E0,-1.324730209E1,-2.707120514E0,1.366659755E1
1.025125408E1,4.959187317E-1,-1.372855133E1,-1.826052704E0,1.385833776E1
1.026118808E1,5.316943359E-1,-1.271830215E1,-8.861572266E-2,1.272971961E1
1.027112108E1,2.038610687E0,-1.053179901E1,2.094444580E0,1.092984090E1
1.028105408E1,2.748883667E0,-8.472082214E0,2.019151154E0,9.132880698E0
1.029098808E1,2.738704834E0,-6.554869080E0,-6.435118103E-1,7.133086307E0
1.030092108E1,2.963237915E0,-4.949158173E0,-2.796334991E0,6.410494126E0
1.031085508E1,3.250789948E0,-3.936813354E0,-3.132386169E0,5.989822851E0
1.032078808E1,4.183799744E0,-3.418291626E0,-3.525468750E0,6.451188095E0
1.033072208E1,4.250111847E0,-3.427722015E0,-3.585344238E0,6.532030483E0
1.034065508E1,2.655926971E0,-4.579726410E0,-3.142415314E0,6.156510056E0
1.035058908E1,5.572911072E-1,-5.873336334E0,-2.141446838E0,6.276340306E0
1.036052208E1,-8.262817383E-1,-6.810986481E0,-1.465901642E0,7.015778358E0
1.037045608E1,-1.454076233E0,-7.183412018E0,-1.580413513E0,7.497563123E0
1.038038908E1,-1.489253082E0,-7.186256104E0,-1.886826324E0,7.577616057E0
1.039032308E1,-7.578739929E-1,-7.080276489E0,-2.023192749E0,7.402566923E0
1.040025608E1,-3.891906738E-2,-7.044800262E0,-2.017055511E0,7.327976417E0
1.041019008E1,6.318360901E-1,-7.159910889E0,-1.582060089E0,7.359786335E0
1.042012308E1,1.323547668E0,-7.090305634E0,-1.761686554E0,7.424806524E0
1.043005608E1,2.303110657E0,-7.173831940E0,-2.137554932E0,7.831814891E0
1.043999008E1,2.881507874E0,-7.354506226E0,-2.051184540E0,8.160833748E0
1.044992308E1,2.628833313E0,-7.283404083E0,-2.396067352E0,8.105546150E0
1.045985708E1,2.179318085E0,-7.229815521E0,-2.401905212E0,7.923938947E0
1.046979008E1,1.682501221E0,-7.427853699E0,-2.163600769E0,7.917385251E0
1.047972408E1,1.488354950E0,-7.895630951E0,-2.103425903E0,8.305455382E0
1.048965708E1,1.344803467E0,-7.896080017E0,-2.940784607E0,8.532572303E0
1.049959108E1,7.044351196E-1,-7.740254059E0,-3.947590942E0,8.717295222E0
1.050952408E1,-1.225950623E-1,-7.968229980E0,-4.340374146E0,9.074500884E0
1.051945808E1,-2.619552612E-2,-8.698112183E0,-3.970193939E0,9.561395383E0
1.052939108E1,2.830613708E-1,-9.022038574E0,-3.222648468E0,9.584506608E0
1.053932508E1,4.340972900E-3,-8.904981995E0,-2.995870056E0,9.395422320E0
1.054925808E1,1.613644409E-1,-9.769733734E0,-3.748055878E0,1.046525960E1
1.055919108E1,1.520088959E0,-1.157243500E1,-5.199288025E0,1.277750047E1
1.056912508E1,3.744463348E0,-1.281814453E1,-6.336772614E0,1.478108664E1
1.057905808E1,4.098926239E0,-1.222283249E1,-6.164331207E0,1.428977990E1
1.058899208E1,3.133134613E0,-1.067325485E1,-5.254523163E0,1.230223213E1
1.059892508E1,2.496358795E0,-9.369466095E0,-5.014272766E0,1.091611806E1
1.060885908E1,2.084714813E0,-8.394094391E0,-5.656287689E0,1.033443017E1
1.061879208E1,6.301895142E-1,-7.641010437E0,-6.244264984E0,9.888024298E0
1.062872608E1,-1.257385254E-1,-7.599546661E0,-6.438111877E0,9.960833508E0
1.063865908E1,-6.908134460E-1,-7.254364471E0,-5.764362946E0,9.291442690E0
1.064859308E1,6.765930176E-2,-7.858957214E0,-4.865033112E0,9.243177671E0
1.065852608E1,6.457571411E-1,-9.552984467E0,-3.545676727E0,1.021020754E1
1.066846008E1,7.559280396E-1,-1.180011154E1,-1.360221405E0,1.190227969E1
1.067839308E1,1.415007477E0,-1.279045212E1,-1.044228516E0,1.291078327E1
1.068832608E1,1.373843079E0,-1.176942535E1,-1.428778839E0,1.193516765E1
1.069826008E1,1.336271210E0,-1.122635468E1,-1.277742920E0,1.137757826E1
1.070819308E1,2.624492340E0,-1.145852188E1,-7.530839539E-1,1.177933866E1
1.071812708E1,4.027824097E0,-1.189142166E1,-4.586462402E-1,1.256342439E1
1.072806008E1,5.975873108E0,-1.292801605E1,-7.476951599E-1,1.426196713E1
1.073799408E1,9.598639526E0,-1.616263962E1,-2.231110382E0,1.892994067E1
1.074792708E1,1.202898560E1,-1.911554901E1,-3.839216309E0,2.290939306E1
1.075786108E1,9.482780457E0,-1.938513840E1,-2.920127563E0,2.177691119E1
1.076779408E1,5.616620178E0,-1.771551041E1,-9.171427917E-1,1.860717287E1
1.077772808E1,3.091820526E0,-1.699371140E1,2.962339783E-1,1.727522317E1
1.078766108E1,-1.385668488E0,-1.572285416E1,-5.586383057E-1,1.579367901E1
1.079759508E1,-5.319937134E0,-1.431158890E1,-7.830216980E-1,1.528844109E1
1.080752808E1,-8.833131409E0,-1.276784912E1,6.337820435E-1,1.553846393E1
1.081746108E1,-9.026678925E0,-1.078986237E1,3.049308929E0,1.439445543E1
1.082739508E1,-6.623426514E0,-9.210496674E0,4.853956146E0,1.233952665E1
1.083732808E1,-4.418811035E0,-8.461903381E0,5.062322845E0,1.080540663E1
1.084726208E1,-1.589544525E0,-8.318351898E0,4.090992737E0,9.405203436E0
1.085719508E1,6.355783081E-1,-7.882009277E0,2.559976501E0,8.311649037E0
1.086712908E1,1.134191437E0,-6.562802582E0,3.185375977E-1,6.667700814E0
1.087706208E1,2.760260010E-1,-4.922812958E0,-2.650837555E0,5.597965480E0
1.088699608E1,-2.136058044E-1,-3.921844482E0,-4.822371826E0,6.219466345E0
1.089692908E1,4.460723877E-2,-3.780538330E0,-5.274431763E0,6.489536986E0
1.090686308E1,5.528004456E-1,-4.097129974E0,-5.040318604E0,6.518962646E0
1.091679608E1,1.283880157E0,-4.443659363E0,-4.647685089E0,6.557090321E0
1.092673008E1,1.935624847E0,-4.652774506E0,-3.808230743E0,6.316452766E0
1.093666308E1,3.001558228E0,-5.091212769E0,-2.523901520E0,6.426498123E0
1.094659608E1,3.982767792E0,-5.538332977E0,-1.437909851E0,6.971596387E0
1.095653008E1,4.473148041E0,-5.829477539E0,-8.637039185E-1,7.398502972E0
1.096646308E1,3.849844208E0,-6.019881592E0,-7.934999084E-1,7.189570009E0
1.097639708E1,2.917582855E0,-6.005661163E0,-9.286688232E-1,6.741118713E0
1.098633008E1,2.368075562E0,-5.752836914E0,-1.157243500E0,6.327884871E0
1.099626408E1,2.169588318E0,-5.693709869E0,-1.350192261E0,6.240870507E0
1.100619708E1,1.712738342E0,-5.816005554E0,-1.336271210E0,6.208463093E0
1.101613108E1,3.631448364E-1,-5.968238983E0,-9.972262573E-1,6.061865302E0
1.102606408E1,-1.403032379E0,-6.297254791E0,-5.489085388E-1,6.474968598E0
1.103599808E1,-3.137176208E0,-6.833290100E0,-1.366358643E0,7.642163574E0
1.104593100E1,-5.063969421E0,-7.507488098E0,-3.341201935E0,9.652450166E0
1.105586500E1,-6.442602539E0,-8.166268158E0,-5.639372864E0,1.183205770E1
1.106579800E1,-7.149732056E0,-9.106163635E0,-6.989565125E0,1.352386429E1
1.107573200E1,-7.414232025E0,-1.022837997E1,-8.188871155E0,1.505483989E1
1.108566500E1,-5.839207306E0,-1.159653488E1,-8.711135101E0,1.563521148E1
1.109559800E1,-1.848506012E0,-1.234991821E1,-8.575517120E0,1.514849657E1
1.110553200E1,2.934497681E0,-1.285915924E1,-7.334148560E0,1.509168606E1
1.111546500E1,5.108576660E0,-1.353724915E1,-6.345304871E0,1.579928998E1
1.112539900E1,4.836592255E0,-1.256517059E1,-5.427413635E0,1.451664408E1
1.113533200E1,4.371060333E0,-9.952353973E0,-3.817810822E0,1.152090263E1
1.114526600E1,3.733685760E0,-8.700207825E0,-2.414179688E0,9.770480496E0
1.115519900E1,2.594554596E0,-9.626331940E0,-1.745520172E0,1.012150289E1
1.116513300E1,1.159937897E0,-1.111648315E1,-2.730022888E0,1.150541953E1
1.117506600E1,-1.541494446E0,-1.324370956E1,-5.174589386E0,1.430204263E1
1.118500000E1,-5.121749268E0,-1.666544403E1,-7.300767975E0,1.890160187E1
1.119493300E1,-7.685168610E0,-2.139336227E1,-7.388934631E0,2.390259653E1
1.120486700E1,-8.281378784E0,-2.616469025E1,-4.503385162E0,2.781101811E1
1.121480000E1,-5.806126099E0,-2.351011047E1,-1.796264648E-1,2.421711503E1
1.122473300E1,-1.220561829E0,-1.351569397E1,2.639610901E0,1.382502443E1
1.123466700E1,6.650669861E-1,-7.819289703E0,4.739893341E0,9.167889312E0
1.124460000E1,1.234782257E0,-6.827152863E0,4.436623993E0,8.235188880E0
1.125453400E1,2.034269714E0,-8.383466492E0,2.203717346E0,8.903770765E0
1.126446700E1,3.275638275E0,-1.104972198E1,-8.098159790E-1,1.155343949E1
1.127440100E1,4.306544495E0,-1.122500748E1,-3.340752869E0,1.247829107E1
1.128433400E1,4.305945740E0,-8.890611877E0,-5.210963745E0,1.116862979E1
1.129426800E1,3.640878754E0,-7.230414276E0,-5.520070953E0,9.798268828E0
1.130420100E1,3.612737274E0,-6.960675201E0,-5.274731140E0,9.451225237E0
1.131413500E1,3.441792755E0,-7.642207947E0,-5.906567230E0,1.025362454E1
1.132406800E1,2.958747253E0,-8.674461365E0,-6.120622101E0,1.102100178E1
1.133400200E1,2.560724945E0,-9.750573578E0,-5.602848816E0,1.153355592E1
1.134393500E1,1.985920258E0,-1.096320190E1,-4.903802490E0,1.217304211E1
1.135386800E1,1.382375336E0,-1.203167999E1,-3.438200226E0,1.258942039E1
1.136380200E1,1.088087311E0,-1.230620911E1,-1.718426514E0,1.247315943E1
1.137373500E1,1.572629700E0,-1.140328674E1,6.541397095E-1,1.152978801E1
1.138366900E1,2.510279846E0,-9.866282959E0,2.611619110E0,1.051026159E1
1.139360200E1,3.224295044E0,-8.473130035E0,3.569626923E0,9.743318095E0
1.140353600E1,3.217259674E0,-7.350015564E0,3.194357300E0,8.635821163E0
1.141346900E1,2.748733978E0,-6.381529541E0,1.587448883E0,7.127373410E0
1.142340300E1,2.379900970E0,-5.861660614E0,-4.466711426E-1,6.342121797E0
1.143333600E1,1.790127411E0,-5.368286591E0,-2.850522308E0,6.336287122E0
1.144327000E1,1.600471802E0,-5.113666077E0,-4.697531433E0,7.125860811E0
1.145320300E1,1.371897125E0,-5.200186157E0,-5.299429779E0,7.550363817E0
1.146313700E1,8.271798706E-1,-5.868097229E0,-5.659281464E0,8.194282050E0
1.147307000E1,1.484912109E-1,-6.542744293E0,-3.526666260E0,7.434172949E0
1.148300400E1,-3.528163147E-1,-7.078180847E0,-5.936654663E-1,7.111790361E0
1.149293700E1,-3.125500488E-1,-7.250771942E0,1.061293030E0,7.334693190E0
1.150287000E1,5.164260864E-2,-7.124434662E0,1.347946930E0,7.251013525E0
1.151280400E1,4.252656555E-1,-7.000342712E0,3.155438232E-1,7.020343074E0
1.152273700E1,1.032403107E0,-6.995702362E0,-5.414241028E-1,7.092168059E0
1.153267100E1,1.920356598E0,-7.195087738E0,-1.552721100E0,7.607101934E0
1.154260400E1,2.939587097E0,-7.565118256E0,-3.004552002E0,8.654450835E0
1.155253800E1,2.896027679E0,-8.019872589E0,-3.814068604E0,9.340902097E0
1.156247100E1,2.346670074E0,-8.252339172E0,-3.893852692E0,9.421785979E0
1.157240500E1,1.660197601E0,-7.989485779E0,-3.397035828E0,8.839003988E0
1.158233800E1,1.059496765E0,-7.628436584E0,-2.469714203E0,8.087958108E0
1.159227200E1,4.273612976E-1,-7.324119415E0,-1.964664459E0,7.595081917E0
1.160220500E1,-3.861968994E-2,-7.367978210E0,-2.439626770E0,7.761467205E0
1.161213900E1,-4.034111023E-1,-7.861651611E0,-3.474275208E0,8.604585684E0
1.162207200E1,-3.592529297E-1,-8.415499878E0,-4.245321808E0,9.432521302E0
1.163200500E1,1.496887207E-4,-8.851842499E0,-5.020410004E0,1.017642532E1
1.164193900E1,4.475692749E-1,-8.992250519E0,-5.196443939E0,1.039537961E1
1.165187200E1,7.843688965E-1,-9.121282196E0,-5.120252380E0,1.048951895E1
1.166180600E1,7.119195557E-1,-9.573641510E0,-5.250481567E0,1.094207466E1
1.167173900E1,1.279838562E0,-1.031400192E1,-5.304519196E0,1.166852803E1
1.168167300E1,2.236050110E0,-1.105990082E1,-4.756808167E0,1.224534810E1
1.169160600E1,2.105371857E0,-1.087668182E1,-4.089346161E0,1.180921463E1
1.170154000E1,1.621877289E0,-1.052191956E1,-4.151317291E0,1.142692926E1
1.171147300E1,1.002465363E0,-1.034064651E1,-4.902904358E0,1.148792315E1
1.172140700E1,2.469863892E-1,-1.038166122E1,-5.628445587E0,1.181182847E1
1.173134000E1,-6.442602539E-1,-1.003453308E1,-5.643115082E0,1.153046717E1
1.174127400E1,-1.233285370E0,-9.166637878E0,-5.140011292E0,1.058149134E1
1.175120700E1,-1.027613068E0,-8.784632263E0,-4.530927887E0,9.937558057E0
1.176114100E1,-1.119671631E-1,-9.353150024E0,-3.881428528E0,1.012716344E1
1.177107400E1,1.240620117E0,-1.043210632E1,-3.581302643E0,1.109926616E1
1.178100700E1,2.552192688E0,-1.153531219E1,-2.907104645E0,1.216669110E1
1.179094100E1,4.043990479E0,-1.272593628E1,-1.658401337E0,1.345561623E1
1.180087400E1,5.928721161E0,-1.407178757E1,-6.262976074E-1,1.528257794E1
1.181080800E1,7.867040405E0,-1.493474304E1,1.154698792E0,1.691952138E1
1.182074100E1,9.356892242E0,-1.420366333E1,1.538051605E0,1.707808792E1
1.183067500E1,1.008078690E1,-1.349593506E1,-4.176315308E-1,1.685042859E1
1.184060800E1,9.768236847E0,-1.335447922E1,-1.919159088E0,1.665664246E1
1.185054200E1,8.790919189E0,-1.313308960E1,-2.753973083E0,1.604190358E1
1.186047500E1,7.547604675E0,-1.300600388E1,-2.802322540E0,1.529625721E1
1.187040900E1,4.804409180E0,-1.342348572E1,-1.573228455E0,1.434389641E1
1.188034200E1,2.221230927E0,-1.417731812E1,3.532653809E-2,1.435031232E1
1.189027500E1,5.179229736E-1,-1.396341293E1,7.447013855E-1,1.399284550E1
1.190020900E1,-3.313958588E0,-1.382075958E1,-6.975494385E-1,1.422962727E1
1.191014200E1,-6.423891449E0,-1.368499191E1,5.257067871E-1,1.512685535E1
1.192007600E1,-8.060737610E0,-1.265154099E1,7.870632935E-1,1.502186569E1
1.193000900E1,-7.100185089E0,-1.120464981E1,1.848056946E0,1.339298772E1
1.193994300E1,-5.154381409E0,-1.004471191E1,3.403771820E0,1.179192723E1
1.194987600E1,-2.381547546E0,-9.084758148E0,3.888014832E0,1.016470652E1
1.195981000E1,1.803749084E-1,-8.602311401E0,3.276835785E0,9.207059754E0
1.196974300E1,4.336482239E-1,-7.749534760E0,1.569785614E0,7.918810936E0
1.197967700E1,2.502795410E-1,-7.049590302E0,-6.985972595E-1,7.088540146E0
1.198961000E1,8.361611938E-1,-6.575376434E0,-2.802023163E0,7.196254206E0
1.199954400E1,1.174607391E0,-5.870192871E0,-3.954177246E0,7.174565113E0
1.200947700E1,1.078956299E0,-4.786147156E0,-4.628524933E0,6.744968076E0
1.201941100E1,1.442550201E0,-3.931873627E0,-4.813091125E0,6.380158892E0
1.202934400E1,2.013762360E0,-3.382815399E0,-4.337230682E0,5.857495101E0
1.203927700E1,2.971470795E0,-3.289110260E0,-3.505859528E0,5.651454327E0
1.204921121E1,3.907923431E0,-3.694167938E0,-2.505190430E0,5.932513918E0
1.205914421E1,3.748804321E0,-4.427193604E0,-1.848206635E0,6.088468182E0
1.206907821E1,3.191962280E0,-5.065466309E0,-1.705403595E0,6.225429587E0
1.207901121E1,2.883453827E0,-5.514083405E0,-1.698218536E0,6.450067283E0
1.208894521E1,2.665207672E0,-5.906417542E0,-1.682650909E0,6.694805015E0
1.209887821E1,2.483335876E0,-6.299649811E0,-1.669927368E0,6.974324500E0
1.210881221E1,2.134112091E0,-6.605463867E0,-1.202000427E0,7.044955099E0
1.211874521E1,1.258133698E0,-6.909032593E0,-5.038522339E-1,7.040703008E0
1.212867921E1,-3.354524231E-1,-7.215744781E0,6.316864014E-2,7.223814183E0
1.213861221E1,-2.261646881E0,-7.822732544E0,-4.326004028E-2,8.143221875E0
1.214854621E1,-3.691174164E0,-8.488547974E0,-1.754950562E0,9.421256014E0
1.215847921E1,-5.138813782E0,-9.088500366E0,-5.056484985E0,1.160070198E1
1.216841221E1,-7.077731781E0,-9.759554901E0,-8.149802399E0,1.455206096E1
1.217834621E1,-7.831713867E0,-1.055230637E1,-9.121581573E0,1.599656720E1
1.218827921E1,-6.888076172E0,-1.165865570E1,-8.339607697E0,1.590342424E1
1.219821321E1,-4.628375244E0,-1.268252655E1,-7.617808685E0,1.550159173E1
1.220814621E1,-7.785310364E-1,-1.350791016E1,-5.956114197E0,1.478326905E1
1.221808021E1,2.059866486E0,-1.371792343E1,-4.366419983E0,1.454269908E1
1.222801321E1,2.545905762E0,-1.240904526E1,-4.123774567E0,1.332184511E1
1.223794721E1,2.680026855E0,-1.040276733E1,-3.445235596E0,1.128139001E1
1.224788021E1,2.862497406E0,-9.122030640E0,-1.808389435E0,9.730139091E0
1.225781421E1,2.500999146E0,-9.485175476E0,-1.506766663E0,9.924409117E0
1.226774721E1,1.742376709E0,-1.061502594E1,-3.271297302E0,1.124348871E1
1.227768121E1,-7.027885437E-1,-1.237087463E1,-5.793103180E0,1.367817588E1
1.228761421E1,-3.758534088E0,-1.551927750E1,-7.398514709E0,1.759865257E1
1.229754721E1,-5.701942749E0,-1.928275131E1,-7.825426941E0,2.157716284E1
1.230748121E1,-6.509513397E0,-2.242247223E1,-6.059848480E0,2.412183221E1
1.231741421E1,-5.995632019E0,-2.090732300E1,-2.882705383E0,2.194023128E1
1.232734821E1,-2.574346619E0,-1.434167633E1,1.687141571E0,1.466824417E1
1.233728121E1,-5.493576050E-2,-9.578581238E0,5.228477325E0,1.091280036E1
1.234721521E1,5.557942200E-1,-8.719218292E0,5.606141968E0,1.038087196E1
1.235714821E1,1.754651184E0,-1.014545242E1,4.154311066E0,1.110258105E1
1.236708221E1,2.934797058E0,-1.230755630E1,1.879641266E0,1.279148261E1
1.237701521E1,4.645290070E0,-1.242850479E1,-1.868564301E0,1.339917847E1
1.238694921E1,4.926704865E0,-9.956545258E0,-4.859794006E0,1.212529637E1
1.239688221E1,4.389322357E0,-7.694149933E0,-6.138285370E0,1.077704232E1
1.240681621E1,3.951782227E0,-6.653663635E0,-6.096522217E0,9.851670197E0
1.241674921E1,3.786226501E0,-6.547085266E0,-4.973707123E0,9.051938972E0
1.242668221E1,3.692072296E0,-7.061116333E0,-4.517306213E0,9.159520573E0
1.243661621E1,3.895948334E0,-8.191116486E0,-4.903503113E0,1.031102058E1
1.244654921E1,4.302502899E0,-1.003273682E1,-4.698130188E0,1.188443379E1
1.245648321E1,3.638932800E0,-1.146765289E1,-4.166884918E0,1.273231419E1
1.246641621E1,1.848955078E0,-1.198063614E1,-3.173550568E0,1.253098960E1
1.247635021E1,6.735992432E-1,-1.185998703E1,-1.264570312E0,1.194621975E1
1.248628321E1,6.593788147E-1,-1.065918411E1,1.850002899E0,1.083861140E1
1.249621721E1,1.292262726E0,-9.120533752E0,4.180656281E0,1.011592635E1
1.250615021E1,1.908531189E0,-7.193740540E0,3.433410187E0,8.196383334E0
1.251608421E1,2.111209717E0,-5.471721497E0,9.822573853E-1,5.946576509E0
1.252601721E1,2.653681641E0,-4.778213654E0,-1.563199310E0,5.684799385E0
1.253595121E1,2.933150482E0,-4.835993500E0,-3.832480316E0,6.832138044E0
1.254588421E1,2.544109497E0,-5.316943359E0,-5.302722931E0,7.928508706E0
1.255581721E1,1.434317322E0,-6.102958832E0,-5.357209625E0,8.246397253E0
1.256575121E1,3.896397400E-1,-7.048093414E0,-3.933819580E0,8.080988578E0
1.257568421E1,-6.876699829E-1,-8.067323914E0,-1.415456543E0,8.219374815E0
1.258561821E1,-1.421593781E0,-8.301137695E0,1.676513672E-2,8.422000771E0
1.259555121E1,-1.564995575E0,-7.748936005E0,-2.880010986E-1,7.910636194E0
1.260548521E1,-1.437460785E0,-6.994804230E0,-1.254391479E0,7.250315697E0
1.261541821E1,-1.021625519E0,-6.678961029E0,-1.807790680E0,6.994308134E0
1.262535221E1,-9.729766846E-3,-6.681356049E0,-2.418820038E0,7.105723305E0
1.263528521E1,1.271605682E0,-6.608008575E0,-3.373983765E0,7.527717103E0
1.264521921E1,2.580932922E0,-6.527775421E0,-3.845802612E0,8.003953050E0
1.265515221E1,3.532354431E0,-6.669231262E0,-3.634591827E0,8.376540527E0
1.266508621E1,3.908222809E0,-6.781048737E0,-3.155887299E0,8.438984070E0
1.267501921E1,3.583248596E0,-6.867868195E0,-2.766546936E0,8.225634686E0
1.268495221E1,2.750380554E0,-7.186405792E0,-2.533631287E0,8.101130100E0
1.269488621E1,1.847757568E0,-7.478747864E0,-2.199825439E0,8.011560997E0
1.270481921E1,1.363364868E0,-8.073461151E0,-1.549577637E0,8.333110438E0
1.271475321E1,7.430548096E-1,-8.349636841E0,-2.042352905E0,8.627848585E0
1.272468621E1,-2.332150269E-1,-8.652008057E0,-3.201242981E0,9.228195343E0
1.273462021E1,-1.207987976E0,-9.094338226E0,-3.643872528E0,9.871374257E0
1.274455321E1,-1.847009125E0,-8.671916656E0,-3.294648743E0,9.458767972E0
1.275448721E1,-2.157912598E0,-8.600964203E0,-2.852917328E0,9.315165553E0
1.276442021E1,-4.472698975E-1,-9.847422180E0,-2.748584290E0,1.023359612E1
1.277435421E1,8.894503784E-1,-1.083731369E1,-3.660937042E0,1.147348901E1
1.278428721E1,1.980232086E0,-1.215607132E1,-5.407055969E0,1.345093466E1
1.279422121E1,3.354524231E0,-1.213122299E1,-6.355932770E0,1.410025835E1
1.280415421E1,3.937561798E0,-1.107097778E1,-6.033802643E0,1.320900134E1
1.281408821E1,3.491938477E0,-9.930200043E0,-5.273234253E0,1.177325387E1
1.282402121E1,2.593357086E0,-9.173224182E0,-4.753664703E0,1.065227070E1
1.283395421E1,1.236279144E0,-9.453890533E0,-4.123175812E0,1.038773369E1
1.284388821E1,-4.834945679E-2,-9.385931854E0,-3.862418060E0,1.014969594E1
1.285382121E1,-2.606080627E-1,-8.878936157E0,-4.420457611E0,9.921888396E0
1.286375521E1,3.019221497E-1,-9.633217621E0,-4.673581238E0,1.071132113E1
1.287368821E1,9.647438049E-1,-1.112726074E1,-3.681743774E0,1.176018280E1
1.288362221E1,2.070045319E0,-1.214035400E1,-2.927612000E0,1.265875961E1
1.289355521E1,2.352807312E0,-1.205712708E1,-2.551743622E0,1.254676895E1
1.290348921E1,2.726430359E0,-1.165206940E1,-1.808389435E0,1.210266153E1
1.291342221E1,4.390070801E0,-1.213960556E1,-2.103126526E-1,1.291073105E1
1.292335621E1,6.486611023E0,-1.245050903E1,1.104253693E0,1.408228227E1
1.293328921E1,8.364006958E0,-1.216116074E1,6.012995911E-1,1.477200068E1
1.294322221E1,1.066502197E1,-1.356494156E1,-3.249742126E-1,1.725850345E1
1.295315621E1,1.252041367E1,-1.570040085E1,-2.325114899E0,2.021557579E1
1.296308921E1,1.160416901E1,-1.644150970E1,-2.957250366E0,2.034023868E1
1.297302321E1,7.762857056E0,-1.560310318E1,-2.848726044E0,1.765882268E1
1.298295621E1,4.324806519E0,-1.558349396E1,-2.334245911E0,1.634007158E1
1.299289021E1,1.090632019E0,-1.571013062E1,-2.253264313E0,1.590832745E1
1.300282321E1,-3.658242645E0,-1.517768784E1,-3.079096985E0,1.591306965E1
1.301275721E1,-9.889484711E0,-1.503009476E1,-1.369651794E0,1.804387991E1
1.302269021E1,-1.247415985E1,-1.406639877E1,2.627186737E0,1.898342299E1
1.303262421E1,-1.146301254E1,-1.170880142E1,5.576802979E0,1.730888265E1
1.304255721E1,-1.001926483E1,-8.806037750E0,7.965086517E0,1.553623416E1
1.305249121E1,-7.395071869E0,-7.316784668E0,8.701105957E0,1.356214108E1
1.306242421E1,-2.581531677E0,-7.684869232E0,6.608757019E0,1.045931117E1
1.307235721E1,9.816586304E-1,-7.364685059E0,3.011886749E0,8.017088092E0
1.308229121E1,1.776056671E0,-5.983956299E0,-1.012793884E0,6.323595634E0
1.309222421E1,1.924398193E0,-4.273014221E0,-4.373754730E0,6.410279977E0
1.310215821E1,2.563119965E0,-3.173251190E0,-5.989494781E0,7.246596084E0
1.311209121E1,2.669398956E0,-2.683469696E0,-6.901847534E0,7.871607192E0
1.312202521E1,2.717898102E0,-2.841990051E0,-7.109914856E0,8.124947188E0
1.313195821E1,2.985840912E0,-3.657045135E0,-5.984405365E0,7.622488612E0
1.314189221E1,3.149450684E0,-4.497098236E0,-4.297413483E0,6.972137032E0
1.315182521E1,3.433260498E0,-5.218747559E0,-2.432441711E0,6.703683794E0
1.316175921E1,3.567082214E0,-5.594466248E0,-1.070424042E0,6.720709468E0
1.317169221E1,3.257975006E0,-5.771997070E0,-6.914122009E-1,6.663962946E0
1.318162621E1,2.733615417E0,-6.281537476E0,-6.887178040E-1,6.885107009E0
1.319155921E1,2.114502869E0,-6.793772278E0,-7.264393616E-1,7.152214922E0
1.320149221E1,2.246977386E0,-7.039261780E0,-1.111438751E0,7.472309541E0
1.321142621E1,2.054777069E0,-7.251520386E0,-1.851799164E0,7.761173677E0
1.322135921E1,1.331331482E0,-7.495513000E0,-2.356250153E0,7.969132540E0
1.323129321E1,2.543211365E-1,-7.919132080E0,-1.745969238E0,8.113306399E0
1.324122621E1,-1.258582764E0,-8.399932251E0,-1.455273743E0,8.617465640E0
1.325116021E1,-3.314257965E0,-8.759484558E0,-2.295626221E0,9.642757662E0
1.326109321E1,-4.941374359E0,-9.256002045E0,-3.599265289E0,1.109258604E1
1.327102721E1,-6.597829742E0,-1.000264938E1,-6.088888092E0,1.344094157E1
1.328096021E1,-7.968229980E0,-1.100331848E1,-8.395291901E0,1.597017948E1
1.329089421E1,-7.819140015E0,-1.205263641E1,-8.550818481E0,1.671889625E1
1.330082721E1,-6.424939270E0,-1.242161911E1,-7.998018036E0,1.611039287E1
1.331076121E1,-2.933898926E0,-1.269734573E1,-7.231611786E0,1.490391092E1
1.332069421E1,1.800455933E0,-1.253104156E1,-6.308930511E0,1.414465441E1
1.333062721E1,4.231101379E0,-1.135703293E1,-5.206173706E0,1.319047613E1
1.334056121E1,4.607269135E0,-9.526489563E0,-3.670966187E0,1.120075556E1
1.335049421E1,3.872147827E0,-7.195686493E0,-1.805096283E0,8.368381295E0
1.336042821E1,2.353106689E0,-7.231911163E0,-1.617686005E0,7.775252933E0
1.337036121E1,-5.134323120E-2,-9.667496338E0,-3.699407043E0,1.035126727E1
1.338029521E1,-1.812730408E0,-1.248269211E1,-6.508016510E0,1.419358562E1
1.339022821E1,-4.675826569E0,-1.627745087E1,-8.037984924E0,1.874641199E1
1.340016221E1,-7.338639221E0,-2.053699310E1,-7.323670349E0,2.300564841E1
1.341009521E1,-7.875422974E0,-2.351534958E1,-4.684807892E0,2.523769755E1
1.342002921E1,-6.468648376E0,-2.188613754E1,-1.570983124E0,2.287606645E1
1.342996221E1,-1.853894806E0,-1.326436661E1,1.666634216E0,1.349659279E1
1.343989621E1,1.421743469E0,-7.116800537E0,3.673510895E0,8.134180147E0
1.344982921E1,2.244133301E0,-6.141129456E0,3.312611389E0,7.329597498E0
1.345976221E1,2.900368652E0,-9.222771149E0,1.216370544E0,9.744290804E0
1.346969621E1,3.124302979E0,-1.267055145E1,-2.692900085E-1,1.305284108E1
1.347962921E1,3.291954346E0,-1.256981094E1,-2.857857056E0,1.330430222E1
1.348956321E1,2.761756897E0,-1.007973907E1,-4.299958191E0,1.130124247E1
1.349949621E1,2.564167786E0,-8.369994507E0,-4.756359100E0,9.962666128E0
1.350943021E1,2.601739655E0,-7.992629242E0,-4.771178284E0,9.665159784E0
1.351936321E1,2.643951874E0,-8.326135712E0,-4.369114380E0,9.767506225E0
1.352929721E1,2.612666931E0,-8.798852692E0,-3.859573975E0,9.957015037E0
1.353923021E1,2.358794861E0,-9.180259552E0,-4.079167328E0,1.031894785E1
1.354916421E1,2.374661865E0,-9.487720184E0,-3.938609619E0,1.054364733E1
1.355909721E1,2.390977936E0,-9.967622223E0,-3.665128326E0,1.088592825E1
1.356903121E1,2.680775299E0,-1.050365753E1,-2.719993744E0,1.117639225E1
1.357896421E1,3.314557343E0,-1.066127975E1,-9.647438049E-1,1.120624411E1
1.358889721E1,3.913910980E0,-1.046309189E1,8.512797546E-1,1.120355605E1
1.359883121E1,4.452940063E0,-9.919123077E0,1.926044769E0,1.104207074E1
1.360876421E1,4.513414307E0,-8.854387207E0,2.208208008E0,1.018073004E1
1.361869821E1,3.716471558E0,-7.617958374E0,5.478607178E-1,8.493856721E0
1.362863121E1,2.894680481E0,-6.853049011E0,-2.246228943E0,7.771035986E0
1.363856521E1,1.843566284E0,-6.390510864E0,-4.160148926E0,7.845011462E0
1.364849821E1,9.369017029E-1,-6.205046539E0,-5.620362396E0,8.424301800E0
1.365843221E1,1.321751404E-1,-5.954018555E0,-5.920787659E0,8.397829107E0
1.366836521E1,-7.286846924E-1,-6.085744629E0,-4.158652039E0,7.406865454E0
1.367829921E1,-1.121617584E0,-6.497837677E0,-1.064586182E0,6.679316149E0
1.368823221E1,-8.563691711E-1,-6.823260956E0,1.491498413E0,7.036677181E0
1.369816621E1,-9.400451660E-2,-6.976242828E0,2.085612946E0,7.281935334E0
1.370809921E1,2.866539001E-1,-6.708300018E0,6.923103333E-1,6.750018755E0
1.371803221E1,9.487271118E-1,-6.752607880E0,-7.445516968E-1,6.859457233E0
1.372796621E1,2.238145752E0,-6.877747650E0,-2.077829132E0,7.525296210E0
1.373789921E1,3.423231354E0,-7.005881195E0,-3.016377411E0,8.360587115E0
1.374783321E1,3.988156586E0,-7.019802246E0,-3.217409363E0,8.691072404E0
1.375776621E1,3.747756500E0,-7.012916565E0,-2.956202545E0,8.483266530E0
1.376770021E1,2.553090820E0,-6.959328003E0,-2.258353729E0,7.749237418E0
1.377763321E1,1.626966705E0,-6.592890015E0,-1.685345306E0,6.996685516E0
1.378756721E1,1.112935638E0,-6.158493347E0,-1.605561218E0,6.460920435E0
1.379750021E1,4.144880676E-1,-6.443201294E0,-1.978585510E0,6.752884117E0
1.380743421E1,-3.312611389E-1,-7.591912537E0,-2.777623901E0,8.090863022E0
1.381736721E1,-5.894741821E-1,-8.762927399E0,-4.086951141E0,9.687081399E0
1.382730021E1,-9.434880066E-1,-9.396859131E0,-4.867428131E0,1.062464059E1
1.383723421E1,-1.128652954E0,-1.037253021E1,-4.520150299E0,1.137079589E1
1.384716721E1,2.781216431E-1,-1.079914307E1,-3.342698822E0,1.130807137E1
1.385710121E1,1.745669861E0,-9.881700897E0,-2.862198029E0,1.043491991E1
1.386703421E1,2.127076721E0,-9.562414856E0,-3.470832367E0,1.039282977E1
1.387696821E1,1.535656586E0,-1.047776138E1,-4.329596558E0,1.144059138E1
1.388690121E1,1.560804291E0,-1.172841064E1,-4.746928711E0,1.274853162E1
1.389683521E1,1.801204376E0,-1.156524994E1,-5.194348297E0,1.280549092E1
1.390676821E1,1.807640991E0,-1.040665924E1,-5.473667450E0,1.189651873E1
1.391670221E1,1.675615540E0,-9.858798523E0,-5.757177887E0,1.153900745E1
1.392663521E1,1.145418091E0,-9.827812958E0,-5.813460846E0,1.147581009E1
1.393656921E1,4.945715332E-1,-9.839937744E0,-5.976322174E0,1.152325486E1
1.394650221E1,2.375559998E-1,-9.299112396E0,-5.770799561E0,1.094678271E1
1.395643521E1,-4.326004028E-2,-8.975186005E0,-5.335504761E0,1.044142932E1
1.396636921E1,-2.598596191E-1,-9.437424774E0,-4.517605591E0,1.046619671E1
1.397630221E1,2.475851440E-1,-1.076216995E1,-3.073558502E0,1.119519372E1
1.398623621E1,1.349144440E0,-1.281066010E1,-1.528471527E0,1.297187064E1
1.399616921E1,2.751578064E0,-1.369382355E1,-8.367599487E-1,1.399257490E1
1.400610321E1,3.832779694E0,-1.271725433E1,-9.997709656E-1,1.331984609E1
1.401603621E1,4.986580353E0,-1.156989029E1,-1.276994476E0,1.266329577E1
1.402597021E1,6.227948914E0,-1.091320587E1,-1.257684631E0,1.262803154E1
1.403590321E1,7.767497406E0,-1.043869263E1,-1.170865173E0,1.306412052E1
1.404583700E1,9.102571106E0,-1.058149567E1,-1.302441559E0,1.401860212E1
1.405577000E1,9.942773895E0,-1.161195282E1,-1.436562653E0,1.535447535E1
1.406570400E1,1.110061615E1,-1.324071579E1,-2.239043884E0,1.742278827E1
1.407563700E1,1.126542343E1,-1.437266190E1,-2.652633820E0,1.845317429E1
1.408557000E1,8.365054779E0,-1.479583191E1,-1.028960266E0,1.702790482E1
1.409550400E1,4.430935822E0,-1.488235199E1,3.408412170E-1,1.553170196E1
1.410543700E1,1.811981964E0,-1.510928009E1,-1.990859985E-1,1.521884551E1
1.411537100E1,-2.931503906E0,-1.599319199E1,-3.325334930E0,1.659619708E1
1.412530400E1,-8.258177032E0,-1.578781906E1,-1.432221680E0,1.787467419E1
1.413523800E1,-1.106379272E1,-1.386177429E1,3.299139404E0,1.803997275E1
1.414517100E1,-1.131886230E1,-1.074345886E1,5.207670593E0,1.645169855E1
1.415510500E1,-9.301357727E0,-7.738906860E0,6.938371582E0,1.394800829E1
1.416503800E1,-4.503983917E0,-7.125033417E0,7.507637787E0,1.128789606E1
1.417497200E1,2.670446777E-1,-7.678282928E0,4.694238281E0,9.003511239E0
1.418490500E1,1.739682312E0,-7.289092255E0,6.896159363E-1,7.525485405E0
1.419483900E1,1.942510529E0,-6.794520721E0,-2.749332733E0,7.582723090E0
1.420477200E1,2.531984711E0,-6.025270386E0,-5.054389343E0,8.262062783E0
1.421470500E1,3.195105743E0,-5.194198608E0,-6.043083344E0,8.585293017E0
1.422463900E1,3.242557068E0,-4.349355469E0,-5.871091003E0,7.993796276E0
1.423457200E1,3.135080566E0,-3.863765259E0,-5.026996307E0,7.073054786E0
1.424450600E1,3.115770721E0,-4.023932190E0,-3.775299225E0,6.336634887E0
1.425443900E1,3.233276367E0,-4.508324890E0,-2.629282379E0,6.139396975E0
1.426437300E1,3.433859253E0,-5.062921600E0,-1.863774261E0,6.395171538E0
1.427430600E1,3.299438782E0,-5.486091614E0,-1.324445801E0,6.537404236E0
1.428424000E1,2.526895294E0,-5.951623535E0,-9.424401855E-1,6.534157638E0
1.429417300E1,1.362317047E0,-6.415808258E0,-1.441352692E0,6.715355607E0
1.430410700E1,1.156045990E0,-7.115453339E0,-1.372196503E0,7.338190634E0
1.431404000E1,1.067130890E0,-7.598498840E0,-1.728755035E0,7.865401893E0
1.432397400E1,8.698411560E-1,-7.773484955E0,-2.251168671E0,8.139499516E0
1.433390700E1,3.882925415E-1,-7.767497406E0,-2.538421326E0,8.180976096E0
1.434384000E1,-4.076023865E-1,-7.593708801E0,-2.856509857E0,8.123435334E0
1.435377400E1,-1.450334015E0,-7.523504791E0,-2.939886475E0,8.206675672E0
1.436370700E1,-2.644850006E0,-7.741301880E0,-2.396965485E0,8.524577989E0
1.437364100E1,-4.090992737E0,-8.493637390E0,-4.218677216E0,1.032837524E1
1.438357400E1,-5.735473022E0,-9.592352600E0,-7.650141449E0,1.354376400E1
1.439350800E1,-6.962621155E0,-1.093341385E1,-9.106463013E0,1.584125312E1
1.440344100E1,-7.191046143E0,-1.198812057E1,-8.150700531E0,1.618209191E1
1.441337500E1,-7.009623413E0,-1.205293579E1,-6.884783020E0,1.555018710E1
1.442330800E1,-5.482948151E0,-1.232896179E1,-6.359974365E0,1.491694651E1
1.443324200E1,-3.437451782E0,-1.282727554E1,-6.389463043E0,1.473703873E1
1.444317500E1,-5.358856201E-1,-1.207089844E1,-6.119274902E0,1.354397607E1
1.445310900E1,2.675985260E0,-9.917326813E0,-4.346960449E0,1.115393802E1
1.446304200E1,4.461322632E0,-7.449857941E0,-2.597698059E0,9.063764018E0
1.447297500E1,5.649252319E0,-7.942034454E0,-9.427395630E-1,9.791768018E0
1.448290900E1,5.344785461E0,-1.049871780E1,-8.409512329E-1,1.181088507E1
1.449284200E1,3.959566040E0,-1.255708740E1,-3.075055389E0,1.352089394E1
1.450277600E1,2.190844116E0,-1.488654327E1,-4.544848938E0,1.571828936E1
1.451270900E1,3.209326172E-1,-1.750714371E1,-4.136348419E0,1.799201092E1
1.452264300E1,-1.873953094E0,-1.973735596E1,-3.224444733E0,2.008661157E1
1.453257600E1,-2.442171478E0,-2.101644608E1,-1.361568604E0,2.120162909E1
1.454251000E1,-1.695823517E0,-1.776161453E1,3.513194275E-1,1.784584527E1
1.455244300E1,-2.806064758E0,-1.153501282E1,8.526269531E-1,1.190199533E1
1.456237700E1,-3.720513153E0,-8.645571442E0,1.198407898E0,9.488113889E0
1.457231000E1,-2.381697235E0,-8.604556732E0,3.918850708E-1,8.936691344E0
1.458224400E1,2.106120300E-1,-9.619745636E0,-1.630559235E0,9.759230858E0
1.459217700E1,2.242037659E0,-9.236692200E0,-3.432212677E0,1.010560733E1
1.460211100E1,3.995790710E0,-7.971373444E0,-4.689148865E0,1.007458461E1
1.461204400E1,4.936284943E0,-7.319928131E0,-5.446124725E0,1.037345321E1
1.462197700E1,5.160668335E0,-7.223528595E0,-5.753435669E0,1.057893591E1
1.463191100E1,4.680616608E0,-7.548053741E0,-5.048701172E0,1.021619649E1
1.464184400E1,3.773952026E0,-8.419691162E0,-5.218448181E0,1.060028842E1
1.465177800E1,3.329975281E0,-9.541458435E0,-4.567302246E0,1.109001417E1
1.466171100E1,2.593357086E0,-1.061397812E1,-3.571273499E0,1.149504358E1
1.467164500E1,1.576820984E0,-1.133113678E1,-2.420765991E0,1.169363644E1
1.468157800E1,3.960763550E-1,-1.166164948E1,-1.522933044E0,1.176733912E1
1.469151200E1,-5.766009521E-1,-1.146825165E1,3.906875610E-2,1.148280414E1
1.470144500E1,-9.934840393E-1,-1.043884232E1,1.707050171E0,1.062405100E1
1.471137900E1,-3.171903992E-1,-8.919801178E0,2.099833374E0,9.169120078E0
1.472131200E1,6.286926270E-1,-7.152276764E0,1.268013153E0,7.290965278E0
1.473124600E1,1.477727051E0,-5.814808044E0,3.370989990E-1,6.009101893E0
1.474117900E1,2.204016724E0,-5.364244995E0,-4.370910645E-1,5.815828633E0
1.475111200E1,2.667153625E0,-5.726042633E0,-1.601369934E0,6.516567990E0
1.476104600E1,2.908900909E0,-6.366410980E0,-2.767594757E0,7.526783776E0
1.477097900E1,2.682721252E0,-6.968309326E0,-3.913910980E0,8.430482035E0
1.478091300E1,2.890788574E0,-7.047344971E0,-4.154311066E0,8.676406523E0
1.479084600E1,2.206262054E0,-7.079528046E0,-3.463946686E0,8.184511973E0
1.480078000E1,1.352437592E0,-7.027136993E0,-2.282453613E0,7.511280601E0
1.481071300E1,7.725434875E-1,-7.056625671E0,-8.087681580E-1,7.144710998E0
1.482064700E1,6.622229004E-1,-7.019502869E0,9.325607300E-2,7.051287570E0
1.483058000E1,7.473957825E-1,-6.910828857E0,2.622546387E-1,6.956071697E0
1.484051400E1,7.390132141E-1,-6.894363098E0,-4.029620361E-1,6.945556958E0
1.485044700E1,8.095166016E-1,-7.080725555E0,-1.177152100E0,7.223411838E0
1.486038000E1,1.152303772E0,-7.475903778E0,-1.580114136E0,7.727464135E0
1.487031400E1,1.649420013E0,-7.936795349E0,-1.760638733E0,8.295369524E0
1.488024700E1,2.192490692E0,-8.409811707E0,-2.189047852E0,8.962359001E0
1.489018100E1,2.674039307E0,-8.754095764E0,-2.620750122E0,9.521187429E0
1.490011400E1,2.525099030E0,-9.037007446E0,-2.760260010E0,9.780729217E0
1.491004800E1,2.253713379E0,-8.936416626E0,-2.792293396E0,9.629936060E0
1.491998100E1,1.858385468E0,-8.992250519E0,-2.495310974E0,9.515289948E0
1.492991500E1,1.247805176E0,-9.092392273E0,-2.363135834E0,9.476973460E0
1.493984800E1,3.902384949E-1,-8.852890320E0,-2.861449585E0,9.312026999E0
1.494978200E1,-4.833448792E-1,-8.973090363E0,-3.522774353E0,9.651938255E0
1.495971500E1,-8.958869934E-1,-9.136999512E0,-4.227658539E0,1.010744628E1
1.496964900E1,-4.436773682E-1,-9.203760681E0,-4.291425934E0,1.016476251E1
1.497958200E1,1.892065430E-1,-9.055568848E0,-4.106111298E0,9.944811525E0
1.498951500E1,3.516188049E-1,-8.976682892E0,-4.926555176E0,1.024575119E1
1.499944900E1,8.375083923E-1,-9.730814667E0,-6.035000153E0,1.148091465E1
1.500938200E1,1.874102783E0,-1.063373703E1,-6.875352631E0,1.280074600E1
1.501931600E1,2.608775024E0,-1.120659576E1,-7.119944000E0,1.353096812E1
1.502924900E1,2.127974854E0,-1.068268524E1,-6.574627991E0,1.272296248E1
1.503918300E1,9.397457886E-1,-1.012045441E1,-6.023623810E0,1.181485351E1
1.504911662E1,-3.186872864E-1,-1.012419662E1,-5.662275238E0,1.160440777E1
1.505905062E1,-1.445693665E0,-9.613159332E0,-5.400769043E0,1.112075397E1
1.506898363E1,-1.726659393E0,-8.810378723E0,-4.942422180E0,1.024849564E1
1.507891763E1,-1.457968140E0,-8.446036377E0,-4.563560028E0,9.710163835E0
1.508885062E1,-9.087602234E-1,-8.955576782E0,-3.899690552E0,9.809984049E0
1.509878463E1,2.342628479E-1,-1.020862106E1,-3.252735901E0,1.071686120E1
1.510871763E1,1.329086151E0,-1.180624878E1,-2.827170868E0,1.221257038E1
1.511865163E1,2.258952484E0,-1.309222458E1,-2.867586823E0,1.359162481E1
1.512858462E1,4.077969818E0,-1.350162323E1,-2.260000305E0,1.428395145E1
1.513851763E1,6.194418640E0,-1.332005081E1,-4.131408691E-1,1.469575657E1
1.514845163E1,7.771389313E0,-1.218526062E1,9.038204956E-1,1.448074445E1
1.515838462E1,8.912017365E0,-1.145867157E1,-4.712200928E-1,1.452402341E1
1.516831862E1,9.782606964E0,-1.130389343E1,-1.886227570E0,1.506768928E1
1.517825163E1,1.055829391E1,-1.212463669E1,-2.604134674E0,1.628698568E1
1.518818563E1,1.074495575E1,-1.258852203E1,-3.319646759E0,1.688031444E1
1.519811862E1,9.294472046E0,-1.270004013E1,-2.442321167E0,1.592617853E1
1.520805263E1,6.055058441E0,-1.395802414E1,-1.470841370E0,1.528573011E1
1.521798563E1,3.185675354E0,-1.526091476E1,-9.386979675E-1,1.561810490E1
1.522791963E1,1.469943237E-1,-1.526271103E1,-1.458866272E0,1.533297903E1
1.523785262E1,-4.692442017E0,-1.503144196E1,-2.979254608E0,1.602620408E1
1.524778663E1,-8.511450348E0,-1.430784668E1,-7.200027466E-2,1.664825660E1
1.525771963E1,-9.618248749E0,-1.242221786E1,2.289638672E0,1.587654405E1
1.526765262E1,-9.863588562E0,-1.016730698E1,4.061803436E0,1.473644318E1
1.527758662E1,-8.727301483E0,-7.875422974E0,6.652765503E0,1.350730791E1
1.528751963E1,-5.729186096E0,-7.144642639E0,7.272177429E0,1.169418900E1
1.529745363E1,-7.762857056E-1,-7.621850281E0,5.223986664E0,9.272823619E0
1.530738662E1,1.560205536E0,-7.415279846E0,1.990261230E0,7.834650999E0
1.531732063E1,2.478545837E0,-6.681505737E0,-1.203197937E0,7.227267372E0
1.532725363E1,2.522704010E0,-5.729784851E0,-4.168980560E0,7.521626744E0
1.533718763E1,2.511477356E0,-4.503385162E0,-6.511609039E0,8.305964647E0
1.534712062E1,3.268453217E0,-3.612587585E0,-6.824608154E0,8.385037385E0
1.535705463E1,3.345243530E0,-3.419489136E0,-5.356311493E0,7.181478471E0
1.536698763E1,3.268752594E0,-3.956272888E0,-3.952979736E0,6.477876773E0
1.537692162E1,3.132984924E0,-4.792134705E0,-2.513722687E0,6.252915425E0
1.538685462E1,2.972219238E0,-5.595813446E0,-1.472487946E0,6.505031597E0
1.539678863E1,2.628833313E0,-6.345454559E0,-8.144563293E-1,6.916566870E0
1.540672163E1,2.031874695E0,-6.889423370E0,-4.758604431E-1,7.198549320E0
1.541665462E1,1.350042572E0,-7.187902679E0,-7.854167175E-1,7.355639965E0
1.542658863E1,8.710386658E-1,-7.240144043E0,-1.426832886E0,7.430628924E0
1.543652163E1,6.655160522E-1,-7.194638672E0,-1.796713715E0,7.445395719E0
1.544645563E1,2.866539001E-1,-7.171287231E0,-2.186054077E0,7.502557127E0
1.545638862E1,-3.760180664E-1,-7.065756683E0,-2.396666107E0,7.470630196E0
1.546632263E1,-1.463207245E0,-7.175029449E0,-2.740052032E0,7.818561772E0
1.547625563E1,-3.230282593E0,-7.574997711E0,-3.726650391E0,9.038984406E0
1.548618962E1,-4.931345215E0,-8.353229370E0,-5.449417877E0,1.112612968E1
1.549612262E1,-6.139632568E0,-9.439520416E0,-7.514373779E0,1.353755691E1
1.550605663E1,-7.763006744E0,-1.062685135E1,-9.478140106E0,1.621818064E1
1.551598963E1,-7.980654144E0,-1.184561691E1,-8.956325226E0,1.685898105E1
1.552592362E1,-7.572153625E0,-1.279434402E1,-7.482639771E0,1.664399734E1
1.553585662E1,-5.710624695E0,-1.356104965E1,-7.190597076E0,1.637736207E1
1.554578963E1,-1.562600555E0,-1.314566345E1,-6.260131989E0,1.464375091E1
1.555572363E1,3.335364075E0,-1.155806488E1,-3.888164520E0,1.264244204E1
1.556565662E1,5.318440247E0,-9.935588837E0,-2.079625397E0,1.145978071E1
1.557559063E1,5.850583649E0,-9.119485931E0,-6.439608765E-1,1.085398721E1
1.558552363E1,5.954617310E0,-9.810598755E0,-5.915698242E-1,1.149153036E1
1.559545762E1,4.522245941E0,-1.172077652E1,-2.996319122E0,1.291531025E1
1.560539062E1,9.969268799E-1,-1.440888657E1,-6.237828369E0,1.573278037E1
1.561532463E1,-1.749711456E0,-1.791564423E1,-6.863976288E0,1.926514907E1
1.562525763E1,-3.937262421E0,-2.078412918E1,-6.139632568E0,2.202673714E1
1.563519162E1,-4.473896484E0,-2.146641037E1,-3.537593536E0,2.221119294E1
1.564512462E1,-3.071911926E0,-1.757405457E1,-3.576063538E-1,1.784410040E1
1.565505863E1,-2.490071869E0,-1.025203079E1,2.453547821E0,1.083164300E1
1.566499163E1,-2.248025208E0,-6.978787537E0,3.910019073E0,8.309352681E0
1.567492462E1,-8.178991699E-1,-6.964716797E0,2.124082947E0,7.327207345E0
1.568485863E1,1.154100037E0,-8.008047180E0,-9.541159058E-1,8.146846242E0
1.569479163E1,3.327729950E0,-9.491013336E0,-3.068768463E0,1.051524896E1
1.570472562E1,4.808301086E0,-1.079255676E1,-5.016817474E0,1.283617928E1
1.571465862E1,5.312602386E0,-1.055155792E1,-5.743855591E0,1.313586677E1
1.572459263E1,5.214556274E0,-1.011940659E1,-5.303770752E0,1.255882045E1
1.573452563E1,4.986280975E0,-1.009919861E1,-4.646337891E0,1.218381165E1
1.574445962E1,4.589156799E0,-1.016311569E1,-4.198618927E0,1.191543879E1
1.575439262E1,3.881727905E0,-1.035292099E1,-3.684438171E0,1.165443560E1
1.576432663E1,2.394121399E0,-1.089703949E1,-2.663710785E0,1.147051185E1
1.577425963E1,5.590873718E-1,-1.147064667E1,-7.679031372E-1,1.150990829E1
1.578419362E1,-4.918771362E-1,-1.139759857E1,1.878443756E0,1.156182283E1
1.579412663E1,3.793112183E-1,-1.034349060E1,2.862048340E0,1.073885448E1
1.580405963E1,1.810784454E0,-8.961115265E0,2.717898102E0,9.537688254E0
1.581399362E1,2.588267670E0,-7.904163208E0,2.132465515E0,8.586171133E0
1.582392662E1,2.990032196E0,-6.783144379E0,1.006057892E0,7.480875128E0
1.583386063E1,3.115321655E0,-5.935157776E0,-6.746470642E-1,6.736948530E0
1.584379363E1,3.394940186E0,-5.401367798E0,-2.717898102E0,6.934505249E0
1.585372762E1,3.367098083E0,-5.348228302E0,-4.772076416E0,7.919192433E0
1.586366062E1,3.104843445E0,-5.771098938E0,-5.888604584E0,8.810295098E0
1.587359463E1,2.844534760E0,-6.410120087E0,-6.126909027E0,9.312359086E0
1.588352763E1,2.254461823E0,-6.831643524E0,-4.802912292E0,8.649966349E0
1.589346162E1,1.101259918E0,-6.988666992E0,-2.864443359E0,7.632776395E0
1.590339463E1,5.436694336E-1,-6.767876129E0,-7.857160950E-1,6.834988920E0
1.591332863E1,4.293072510E-1,-6.581064606E0,1.186133423E0,6.700867747E0
1.592326162E1,2.628533936E-1,-6.506819000E0,1.519490204E0,6.687049864E0
1.593319462E1,1.236428833E-1,-6.518345032E0,6.908134460E-1,6.556015004E0
1.594312863E1,2.749781799E-1,-6.632856903E0,-5.219645691E-1,6.659042777E0
1.595306163E1,9.732760620E-1,-6.995253296E0,-1.800306244E0,7.288479782E0
1.596299562E1,1.955683136E0,-7.319179688E0,-2.851121063E0,8.094688329E0
1.597292862E1,2.469564514E0,-7.515571289E0,-3.395239563E0,8.608728848E0
1.598286263E1,2.022294617E0,-7.659272461E0,-3.406765594E0,8.623235006E0
1.599279563E1,1.193318481E0,-7.599696350E0,-2.865640869E0,8.209219890E0
1.600272962E1,8.319699097E-1,-7.397466888E0,-2.242486725E0,7.774537736E0
1.601266263E1,7.312294006E-1,-7.536378021E0,-2.031126251E0,7.839461969E0
1.602259663E1,4.939727783E-1,-7.943381653E0,-2.653082886E0,8.389289004E0
1.603252962E1,-2.368075562E-1,-8.816066895E0,-3.649860077E0,9.544663005E0
1.604246362E1,-9.134005737E-1,-9.848020935E0,-4.626279602E0,1.091880396E1
1.605239583E1,-8.628057861E-1,-1.041144928E1,-4.906347198E0,1.154187822E1
1.606232883E1,-9.774673462E-2,-1.016940262E1,-5.074597321E0,1.136564305E1
1.607226283E1,6.509962463E-1,-9.693242798E0,-5.178032227E0,1.100884961E1
1.608219583E1,9.134005737E-1,-9.833800507E0,-5.361400909E0,1.123755101E1
1.609212983E1,1.274449768E0,-1.070109695E1,-5.242847443E0,1.198437097E1
1.610206283E1,1.722318420E0,-1.124835892E1,-4.738097076E0,1.232645622E1
1.611199683E1,1.635049896E0,-1.107397156E1,-4.762945404E0,1.216519146E1
1.612192983E1,8.653504944E-1,-1.040710831E1,-5.116360474E0,1.162901025E1
1.613186383E1,-2.068698120E-1,-9.818831635E0,-5.680088196E0,1.134529205E1
1.614179683E1,-1.084045715E0,-9.655820618E0,-6.155798950E0,1.150234270E1
1.615173083E1,-1.630708923E0,-9.170679474E0,-6.032006378E0,1.109710208E1
1.616166383E1,-1.673968964E0,-8.471782837E0,-5.372028809E0,1.017015094E1
1.617159783E1,-1.286125488E0,-8.421188049E0,-4.231101379E0,9.511716239E0
1.618153083E1,-6.872209167E-1,-9.009614410E0,-2.713407440E0,9.434405352E0
1.619146383E1,6.550378418E-1,-1.001462448E1,-1.532513123E0,1.015235808E1
1.620139783E1,2.372117157E0,-1.109313171E1,-1.463356934E0,1.143791609E1
1.621133083E1,3.299289093E0,-1.259495865E1,-9.819580078E-1,1.305689601E1
1.622126483E1,4.558769989E0,-1.338247101E1,-1.579216003E-1,1.413852373E1
1.623119783E1,6.510561218E0,-1.308339294E1,2.080673218E-1,1.461526156E1
1.624113183E1,9.019194489E0,-1.268028122E1,-7.458988953E-1,1.557856753E1
1.625106483E1,1.175131302E1,-1.322425003E1,-2.092199249E0,1.781436062E1
1.626099883E1,1.339564362E1,-1.416549271E1,-2.559826813E0,1.966360000E1
1.627093183E1,1.295885193E1,-1.411429916E1,-2.612217865E0,1.933827723E1
1.628086583E1,1.018362305E1,-1.323787170E1,-2.573448486E0,1.689881838E1
1.629079883E1,6.405928802E0,-1.377570328E1,-1.618883514E0,1.527830843E1
1.630073283E1,3.374283142E0,-1.538620422E1,-1.200503540E0,1.579754018E1
1.631066583E1,5.748046875E-2,-1.649449951E1,-2.492466888E0,1.668185269E1
1.632059883E1,-4.879552917E0,-1.730880615E1,-3.797752533E0,1.838009063E1
1.633053283E1,-9.544152832E0,-1.682471283E1,6.388714600E-1,1.935381027E1
1.634046583E1,-1.210068649E1,-1.475960724E1,3.824247437E0,1.946528931E1
1.635039983E1,-1.138607254E1,-1.157587784E1,5.656138000E0,1.719405399E1
1.636033283E1,-9.900262299E0,-8.186476135E0,6.861880646E0,1.456430538E1
1.637026683E1,-4.855902100E0,-7.271428986E0,7.264992371E0,1.136809478E1
1.638019983E1,9.460327148E-2,-7.637866974E0,5.562432861E0,9.449159805E0
1.639013383E1,1.334325256E0,-7.257507935E0,2.387684784E0,7.755829030E0
1.640006683E1,2.118245087E0,-6.589596863E0,-1.478924561E0,7.077921087E0
