"Time (s)","Acceleration x (m/s^2)","Acceleration y (m/s^2)","Acceleration z (m/s^2)","Absolute acceleration (m/s^2)"
-1.905166777E-3,-4.985233154E0,5.093009033E0,7.441625061E0,1.030383784E1
8.027833304E-3,-5.215903473E0,4.790637817E0,6.985373840E0,9.947427176E0
1.796183328E-2,-4.910538483E0,4.597988434E0,6.456673279E0,9.324350683E0
2.789583325E-2,-4.451742554E0,4.580774231E0,5.990093536E0,8.756867299E0
3.782983334E-2,-4.400549011E0,4.612358551E0,5.771997070E0,8.599687970E0
4.776283330E-2,-4.567901001E0,4.535867615E0,5.737718353E0,8.623295569E0
5.769683328E-2,-4.612059174E0,4.370760956E0,5.826483765E0,8.621052964E0
6.763083325E-2,-3.941753082E0,4.371509399E0,5.747597809E0,8.226930920E0
7.756483334E-2,-4.346212006E0,3.846101990E0,6.126010895E0,8.438605856E0
8.749783330E-2,-4.648882599E0,3.538940735E0,5.875581665E0,8.286052790E0
9.743183327E-2,-5.017416229E0,3.304827576E0,5.223537598E0,7.961262209E0
1.073658332E-1,-4.660857697E0,3.053949280E0,4.627626801E0,7.243281748E0
1.172998333E-1,-4.201912079E0,2.666554871E0,4.285139008E0,6.567267035E0
1.272338333E-1,-3.921395416E0,2.399061127E0,4.837640076E0,6.673499667E0
1.371668333E-1,-3.717369690E0,1.773511963E0,5.516927490E0,6.884814524E0
1.471008332E-1,-3.936663666E0,1.241218872E0,6.442003784E0,7.650971040E0
1.570348333E-1,-4.252506866E0,7.436535645E-1,7.293582916E0,8.475446126E0
1.669688333E-1,-3.894002380E0,1.848655701E-1,7.657476196E0,8.592692914E0
1.769018333E-1,-3.633544006E0,9.160949707E-2,8.066276093E0,8.847363695E0
1.868358332E-1,-2.396067352E0,7.499404907E-2,8.437653809E0,8.771588491E0
1.967698333E-1,-1.884880371E0,2.210902405E-1,1.100601288E1,1.116843652E1
2.067038333E-1,-4.086651764E0,-3.911366272E-1,1.453357727E1,1.510227065E1
2.166368333E-1,-7.650291138E0,-1.038091278E0,1.445394287E1,1.638661199E1
2.265708332E-1,-8.761430511E0,-3.993695068E-1,1.051308792E1,1.369113502E1
2.365048333E-1,-8.229885864E0,-5.375321960E-1,6.607409821E0,1.056777303E1
2.464388333E-1,-8.103847961E0,-1.826501770E0,4.935237122E0,9.662557940E0
2.563718333E-1,-9.286987610E0,-2.214045868E0,5.322930908E0,1.093086142E1
2.663058332E-1,-1.085123474E1,-2.201022949E0,5.964646454E0,1.257659750E1
2.762398333E-1,-1.169098846E1,-2.141895905E0,5.667214966E0,1.316754551E1
2.861738333E-1,-1.199156342E1,-1.978585510E0,4.091441803E0,1.282389527E1
2.961068333E-1,-1.119252502E1,-1.887574768E0,2.046244812E0,1.153354554E1
3.060408332E-1,-9.439370728E0,-2.388133850E0,7.426057434E-1,9.765058439E0
3.159748333E-1,-8.621621246E0,-3.000211029E0,-4.289330292E0,1.008622692E1
3.259088333E-1,-1.022194336E1,-3.169508972E0,-7.692503357E0,1.317985285E1
3.358423749E-1,-1.179756683E1,-4.304897919E0,-1.458866272E0,1.264290394E1
3.457763749E-1,-1.309911026E1,-5.422024841E0,3.044219513E0,1.450007984E1
3.557103749E-1,-1.108579697E1,-4.816833344E0,4.823419647E0,1.301392158E1
3.656443750E-1,-7.094047852E0,-2.670147400E0,4.775219879E0,8.958678862E0
3.755783750E-1,-6.412515106E0,-1.357976074E0,5.247487793E0,8.396462180E0
3.855113749E-1,-5.435796204E0,-9.268725586E-1,5.054838409E0,7.480532364E0
3.954453750E-1,-4.209695892E0,-1.558259583E0,4.830305328E0,6.594055050E0
4.053793750E-1,-4.955594788E0,-1.513802032E0,3.974385223E0,6.530333391E0
4.153133749E-1,-6.668782196E0,-1.228046265E0,3.828887787E0,7.787241828E0
4.252463749E-1,-6.943760376E0,-2.557731171E0,4.221820679E0,8.519481601E0
4.351803750E-1,-6.445746002E0,-3.076103210E0,2.710263977E0,7.639082622E0
4.451143750E-1,-6.658753052E0,-3.258873138E0,1.779649200E0,7.624067000E0
4.550483749E-1,-6.596482544E0,-3.304827576E0,2.492766266E0,7.787769316E0
4.649813749E-1,-7.382048950E0,-2.881507874E0,4.121978302E0,8.932437487E0
4.749153750E-1,-8.130492554E0,-3.364852753E0,5.937702484E0,1.061524630E1
4.848493750E-1,-9.142388306E0,-3.164718933E0,7.239844666E0,1.208362779E1
4.947833749E-1,-1.059990738E1,-3.162623291E0,6.910529480E0,1.304283866E1
5.047163749E-1,-1.161599442E1,-3.835923157E0,6.694977722E0,1.394519127E1
5.146503750E-1,-1.074510544E1,-3.994742889E0,6.622528381E0,1.323907640E1
5.245843750E-1,-8.586743774E0,-3.130739594E0,6.047424316E0,1.095924450E1
5.345183749E-1,-8.115373993E0,-2.354753265E0,4.361330566E0,9.509225115E0
5.444513749E-1,-9.176367645E0,-2.962639160E0,2.962339783E0,1.008753741E1
5.543853750E-1,-1.017703674E1,-4.535119171E0,2.025288391E0,1.132436205E1
5.643193750E-1,-1.070379135E1,-4.381538544E0,1.930236053E0,1.172581940E1
5.742533749E-1,-1.053988220E1,-2.552941132E0,3.796555023E0,1.149001546E1
5.841863749E-1,-1.004501129E1,-5.740562439E-1,6.409371643E0,1.192945251E1
5.941203750E-1,-9.112600250E0,6.480024719E-1,8.291856995E0,1.233751527E1
6.040543750E-1,-8.625513153E0,1.727407837E0,9.216334534E0,1.274065294E1
6.139883749E-1,-8.788075104E0,3.132685547E0,9.172924805E0,1.308382713E1
6.239223749E-1,-9.382039948E0,4.333189087E0,7.936196594E0,1.303005824E1
6.338553750E-1,-1.006985962E1,4.453239441E0,7.096293182E0,1.309926682E1
6.437893750E-1,-1.033181488E1,3.524121552E0,6.461912384E0,1.268550918E1
6.537233749E-1,-9.393416290E0,2.414029999E0,5.982758789E0,1.139549091E1
6.636573749E-1,-8.073012085E0,2.160457306E0,5.492079163E0,1.000020167E1
6.735903750E-1,-7.511080627E0,3.125949554E0,5.630990295E0,9.894237945E0
6.835243750E-1,-6.997798004E0,3.431913300E0,5.815257111E0,9.724423945E0
6.934583749E-1,-7.627987518E0,3.114273834E0,5.694458313E0,1.001557540E1
7.033923749E-1,-8.518336029E0,2.036664734E0,4.783003693E0,9.979337466E0
7.133253750E-1,-9.550888824E0,1.203048248E0,4.534071350E0,1.064070512E1
7.232593750E-1,-9.977651367E0,8.520281982E-1,3.946842499E0,1.076369103E1
7.331933749E-1,-8.510103149E0,-9.948312378E-1,3.866309967E0,9.399994551E0
7.431273749E-1,-6.824159088E0,-2.477198639E0,3.202590179E0,7.934875186E0
7.530603750E-1,-7.322323151E0,-2.389780426E0,1.808838501E0,7.911975956E0
7.629943750E-1,-9.483079834E0,-3.097808075E0,2.487826538E-1,9.979334187E0
7.729283749E-1,-1.375594437E1,-4.525389404E0,-7.258406067E-1,1.449937927E1
7.828623749E-1,-1.694581100E1,-5.862858124E0,-1.779200134E0,1.801941090E1
7.927963750E-1,-1.736269409E1,-5.242997131E0,-1.597028961E0,1.820721468E1
8.027293750E-1,-1.534399200E1,-4.356690216E0,-6.909631348E-1,1.596547119E1
8.126633749E-1,-1.226519440E1,-3.315006409E0,-1.055904236E0,1.274908604E1
8.225973749E-1,-9.421408081E0,-3.315605164E0,-1.036893768E0,1.004147980E1
8.325313750E-1,-7.914940796E0,-4.170776825E0,4.216731262E-1,8.956532552E0
8.424643750E-1,-8.480614471E0,-4.235592041E0,1.335073700E0,9.573060301E0
8.523983749E-1,-9.202263794E0,-3.283422089E0,1.805545349E0,9.935920368E0
8.623323749E-1,-1.313428711E1,-8.260572052E0,1.438134384E1,2.115584078E1
8.722663750E-1,-1.616174149E1,-7.199578400E0,1.511541733E1,2.327040305E1
8.821993750E-1,-4.915328522E0,8.354576569E0,-8.811127167E0,1.309944144E1
8.921333749E-1,-6.136938171E0,3.170706482E0,-3.545527039E0,7.764415734E0
9.020673749E-1,-5.252128143E0,2.106120300E-1,-3.030298462E0,6.067282442E0
9.120013750E-1,-4.024231567E0,-2.383044434E-1,-7.718100128E0,8.707485188E0
9.219343750E-1,-6.152505798E0,-6.531218262E0,-4.537663879E0,1.005487608E1
9.318683749E-1,-6.641538849E0,-7.690108337E0,-5.816005554E0,1.170784887E1
9.418023749E-1,-9.025331726E0,-4.900060272E0,-6.824308777E0,1.233038498E1
9.517363750E-1,-9.860295410E0,-2.538121948E0,-4.744982758E0,1.123309174E1
9.616703750E-1,-9.366921387E0,-2.318827972E0,-1.929337921E0,9.840656698E0
9.716033749E-1,-8.486751709E0,-3.254232788E0,8.798703003E-1,9.131766387E0
9.815373749E-1,-7.922574921E0,-4.762047272E0,3.020868073E0,9.724707271E0
9.914713750E-1,-7.715106354E0,-5.172194366E0,4.009113007E0,1.011669154E1
1.001405375E0,-7.833959198E0,-4.443809052E0,3.996239777E0,9.853338924E0
1.011338375E0,-7.275769958E0,-3.573069763E0,3.291205902E0,8.748467998E0
1.021272375E0,-6.289321289E0,-3.453767853E0,2.597997437E0,7.631098567E0
1.031206375E0,-5.288801880E0,-4.366869049E0,1.251248016E0,6.971842813E0
1.041140375E0,-5.051694946E0,-5.050198059E0,-2.543211365E-1,7.147643074E0
1.051073375E0,-6.289920044E0,-5.334307251E0,-5.804928589E-1,8.267702218E0
1.061007375E0,-7.882458344E0,-5.201533356E0,1.487905884E-1,9.445170058E0
1.070941375E0,-9.027127991E0,-5.040019226E0,2.087409210E0,1.054742200E1
1.080875375E0,-9.069340210E0,-4.906796265E0,5.197342072E0,1.154737832E1
1.090809375E0,-7.191345520E0,-3.906426544E0,8.380023651E0,1.171325809E1
1.100742375E0,-9.937834167E0,-1.339863739E0,1.653461609E1,1.933776905E1
1.110676375E0,-1.097278198E1,-9.940827942E-1,2.444192276E1,2.681040345E1
1.120610375E0,-8.842861176E0,-4.379442902E0,2.487422379E1,2.676009572E1
1.130544375E0,-1.027358597E1,-6.822811890E0,1.544682816E1,1.976617896E1
1.140477375E0,-1.251098328E1,-8.637039185E0,7.875872040E0,1.712169702E1
1.150411375E0,-1.373423950E1,-8.751700745E0,2.717449036E0,1.651078829E1
1.160345375E0,-1.533995041E1,-7.502997437E0,-1.049168243E0,1.710876393E1
1.170279375E0,-1.504685989E1,-6.251899109E0,-2.696642303E0,1.651563244E1
1.180212375E0,-1.145882126E1,-5.094805298E0,-2.290836182E0,1.274792360E1
1.190146375E0,-7.395221558E0,-3.866160278E0,-5.926176453E-1,8.365864741E0
1.200080375E0,-5.494174805E0,-3.432062988E0,1.435065765E0,6.635090571E0
1.210014375E0,-8.583300934E0,-2.449356537E0,3.469485168E0,9.576519707E0
1.219948375E0,-1.065888474E1,-2.073787537E0,4.952900391E0,1.193497553E1
1.229881375E0,-9.619745636E0,-2.907853088E0,4.966522064E0,1.120988212E1
1.239815375E0,-7.843988342E0,-4.206552429E0,2.727328491E0,9.309218934E0
1.249749375E0,-8.237370300E0,-3.597019958E0,5.557942200E-1,9.005649852E0
1.259683375E0,-9.589658203E0,-2.971470795E0,-8.608598328E-1,1.007632189E1
1.269616375E0,-9.400002594E0,-3.653003540E0,-1.562001801E0,1.020511309E1
1.279550375E0,-1.002450394E1,-4.679868164E0,-1.250200195E0,1.113350105E1
1.289484375E0,-1.168110901E1,-4.943619690E0,2.354753265E0,1.290087386E1
1.299418375E0,-1.194605804E1,-3.176544342E0,9.222771149E0,1.542265361E1
1.309351375E0,-1.098236206E1,-1.020428009E0,3.022065582E0,1.143618949E1
1.319285375E0,-9.177415466E0,4.029620361E-1,7.405101013E0,1.179927345E1
1.329219375E0,-7.436685333E0,-7.870632935E-1,1.156659714E1,1.377352267E1
1.339152583E0,-7.705077209E0,-1.421593781E0,4.306843872E0,8.940808007E0
1.349085583E0,-7.586523743E0,-2.107617188E0,2.092498627E0,8.147143255E0
1.359019583E0,-8.720864868E0,-3.772006073E0,-3.353027344E-2,9.501717642E0
1.368953583E0,-1.260558655E1,-5.565576324E0,-3.154540100E0,1.413603817E1
1.378887583E0,-1.341001373E1,-6.843768311E0,-1.140178986E0,1.509853109E1
1.388821583E0,-1.119222565E1,-6.186934204E0,-5.357209625E0,1.386519977E1
1.398754583E0,-8.993597717E0,-4.352798309E0,-2.560874634E0,1.031453983E1
1.408688583E0,-7.686815186E0,-3.088377686E0,5.354365540E0,9.863794136E0
1.418622583E0,-5.169050903E0,-1.732646942E0,7.818541260E0,9.531565459E0
1.428556583E0,-2.210303650E0,-8.592132568E-1,5.756429443E0,6.225766586E0
1.438489583E0,-3.880680084E0,-1.710043945E0,1.390159149E0,4.462787321E0
1.448423583E0,-5.538782043E0,-2.326611786E0,-5.915698242E-1,6.036653360E0
1.458357583E0,-6.531068573E0,-2.422262878E0,-5.303471375E-1,6.985948915E0
1.468291583E0,-8.610544281E0,-2.490071869E0,-7.797285461E-1,8.997216644E0
1.478224583E0,-1.036699173E1,-2.650837555E0,-2.264490967E0,1.093752150E1
1.488158583E0,-1.102547241E1,-2.552342377E0,-3.586092682E0,1.187162812E1
1.498092583E0,-1.177406570E1,-2.434836731E0,-3.198997650E0,1.244148862E1
1.508026583E0,-1.236443802E1,-2.319726105E0,-2.195185089E0,1.277025036E1
1.517960583E0,-1.216340607E1,-2.424059143E0,-1.539698181E0,1.249780702E1
1.527893583E0,-1.123503662E1,-2.153871002E0,-1.039887543E0,1.148680000E1
1.537827583E0,-9.944570160E0,-1.073717194E0,-9.342073059E-1,1.004589904E1
1.547761583E0,-8.097111969E0,-4.607418823E-1,-1.741029510E0,8.294979751E0
1.557695583E0,-6.710844727E0,-6.144721985E-1,-2.185754700E0,7.084527975E0
1.567628583E0,-4.819228363E0,-1.536105652E0,-3.932921448E0,6.407218874E0
1.577562583E0,-2.965183868E0,-2.979853363E0,-4.610711975E0,6.239431573E0
1.587496583E0,-2.471959534E0,-5.609734497E0,-5.048401794E0,7.941414593E0
1.597430583E0,-4.474345551E0,-7.469916229E0,-5.264701996E0,1.017528887E1
1.607363583E0,-6.798412628E0,-6.941215668E0,-4.504432983E0,1.070928596E1
1.617297583E0,-9.375453644E0,-6.448440399E0,-1.148112488E0,1.143676864E1
1.627231583E0,-1.191162964E1,-7.631280670E0,1.853894806E0,1.426745567E1
1.637165583E0,-1.098266144E1,-6.615792389E0,5.869294739E-1,1.283479830E1
1.647099583E0,-8.239915009E0,-3.884571991E0,-1.797462158E0,9.285309317E0
1.657032583E0,-6.248156891E0,-2.912942505E0,-1.777104492E0,7.119185273E0
1.666966583E0,-6.530918884E0,-5.595514069E0,-1.899400177E0,8.807405986E0
1.676900583E0,-7.278314667E0,-7.584278412E0,-1.089883575E0,1.056801730E1
1.686834583E0,-8.654552765E0,-8.255931702E0,1.389111328E0,1.204123424E1
1.696767583E0,-8.279732208E0,-6.302493896E0,-1.586251373E0,1.052575832E1
1.706701583E0,-8.538094940E0,-6.247857513E0,-3.035238190E0,1.100670067E1
1.716635583E0,-9.324260101E0,-7.495063934E0,-2.874322815E0,1.230363936E1
1.726569583E0,-8.190368042E0,-8.416248322E0,-1.839524689E0,1.188693466E1
1.736502583E0,-6.656358032E0,-8.366401978E0,-1.610500946E0,1.081191461E1
1.746436583E0,-6.757697296E0,-8.597671051E0,-1.227746887E0,1.100426202E1
1.756370583E0,-7.125482483E0,-8.481961670E0,-7.027885437E-1,1.110000388E1
1.766304583E0,-6.899751892E0,-8.243507538E0,-3.348536682E-1,1.075519036E1
1.776238583E0,-6.925498352E0,-8.249195709E0,-5.382806396E-1,1.078431747E1
1.786171583E0,-5.360502777E0,-7.158863068E0,-8.798703003E-1,8.986572327E0
1.796105583E0,-4.704267426E0,-6.742728424E0,-6.771917725E-1,8.249430726E0
1.806039583E0,-5.292693787E0,-7.062762909E0,-2.544708252E-1,8.829495049E0
1.815973583E0,-5.867348785E0,-7.360493774E0,-7.833210754E-1,9.445434997E0
1.825906583E0,-7.363038483E0,-8.594976654E0,-1.042432251E0,1.136550150E1
1.835840583E0,-7.633975067E0,-8.994196472E0,-6.372248840E-1,1.181436418E1
1.845774583E0,-7.521708527E0,-8.569978638E0,1.989363098E-1,1.140439427E1
1.855708583E0,-7.227420502E0,-8.774004364E0,5.240602112E-1,1.137951663E1
1.865641583E0,-6.710695038E0,-9.221873016E0,5.078938293E-1,1.141640600E1
1.875575583E0,-7.006629639E0,-8.896599426E0,5.929170227E-1,1.133992464E1
1.885509583E0,-7.001091156E0,-8.575068054E0,3.686833191E-1,1.107623568E1
1.895443583E0,-6.489006042E0,-8.580756226E0,-1.410067749E-1,1.075901760E1
1.905377583E0,-5.354814606E0,-7.565567322E0,-1.568887482E0,9.400705095E0
1.915310583E0,-4.546495514E0,-5.797893219E0,-2.765349426E0,7.869774119E0
1.925244583E0,-5.098098450E0,-7.971223755E0,-8.345146179E-1,9.498812063E0
1.935178583E0,-4.661905518E0,-8.178392944E0,3.917353821E-1,9.421938803E0
1.945112583E0,-3.898792419E0,-6.761738892E0,-6.616241455E-2,7.805515526E0
1.955045583E0,-4.847220154E0,-6.311175842E0,-4.112847290E0,8.957789714E0
1.964979583E0,-5.142256622E0,-4.682412872E0,-3.122057648E0,7.623321942E0
1.974913583E0,-3.088377686E0,-3.372486877E0,-4.936734009E-1,4.599506266E0
1.984847583E0,-2.109114075E0,-3.657943268E0,7.304809570E-2,4.223061349E0
1.994781583E0,-3.844305725E0,-5.589077454E0,3.328628082E0,7.556205278E0
2.004714583E0,-7.017856293E0,-8.091423798E0,4.357738037E0,1.156336140E1
2.014648583E0,-1.020203476E1,-1.004321503E1,-7.896080017E-1,1.433775304E1
2.024582583E0,-9.851763153E0,-1.062939606E1,-4.258644104E0,1.510554029E1
2.034516583E0,-5.316793671E0,-7.709418182E0,-1.637295227E0,9.507058394E0
2.044449583E0,-4.335135040E0,-6.179449768E0,-1.932182007E0,7.791811250E0
2.054383583E0,-5.221891022E0,-8.454568634E0,-2.644700317E0,1.028310830E1
2.064317583E0,-5.031636658E0,-1.054332504E1,-1.789079590E0,1.181862412E1
2.074251583E0,-5.323529663E0,-9.421707458E0,-2.282004547E0,1.105966022E1
2.084184583E0,-6.392307129E0,-7.624245300E0,-1.304537201E0,1.003456646E1
2.094118583E0,-6.098168793E0,-6.221811676E0,-2.513273621E-1,8.715604890E0
2.104052583E0,-6.392905884E0,-6.984176331E0,3.149450684E-1,9.473497509E0
2.113986583E0,-6.981631622E0,-8.924441528E0,-3.802093506E-2,1.133094357E1
2.123920583E0,-5.932014313E0,-9.415270844E0,-2.086660767E-1,1.113012401E1
2.133853583E0,-6.502478027E0,-8.212372284E0,7.527845764E-1,1.050199808E1
2.143787583E0,-5.023254089E0,-6.988666992E0,-7.560777283E-1,8.639803326E0
2.153721583E0,-5.383704529E0,-8.302634583E0,-1.193168793E0,9.967029007E0
2.163655583E0,-5.244943085E0,-9.992320862E0,-1.099613342E0,1.133865308E1
2.173588583E0,-6.155948639E0,-1.038225998E1,-1.950743408E0,1.222670952E1
2.183522583E0,-5.852379913E0,-8.985364838E0,-2.470612335E0,1.100413819E1
2.193456583E0,-6.208190002E0,-8.851393433E0,-1.705852661E0,1.094526026E1
2.203390583E0,-6.561904449E0,-7.083719330E0,-1.160087585E0,9.725403475E0
2.213324583E0,-8.164471893E0,-6.895261230E0,-1.521885223E0,1.079441353E1
2.223257583E0,-8.992250519E0,-1.027388535E1,-2.420616302E0,1.386624220E1
2.233191583E0,-8.191565552E0,-1.072893906E1,-2.443518677E0,1.371796862E1
2.243125583E0,-8.465795288E0,-1.083282303E1,-3.491938477E0,1.418497018E1
2.253059583E0,-7.835007019E0,-1.060215271E1,-3.655847626E0,1.368057743E1
2.262992583E0,-6.399941254E0,-8.323591003E0,-2.978955231E0,1.091400887E1
2.272926583E0,-6.950346680E0,-6.097869415E0,-2.746638336E0,9.645483530E0
2.282860583E0,-6.338269501E0,-5.193599854E0,-2.792592773E0,8.657119273E0
2.292794583E0,-6.145021362E0,-4.686454468E0,-2.596949615E0,8.152808739E0
2.302728583E0,-5.683830414E0,-5.006938019E0,-2.336790619E0,7.926912822E0
2.312661583E0,-4.973707123E0,-5.561684418E0,-2.040257263E0,7.735162946E0
2.322595583E0,-4.511168976E0,-5.752387848E0,-1.085841980E0,7.390511774E0
2.332529583E0,-4.049079895E0,-5.080734558E0,-2.948867798E-2,6.496905512E0
2.342463833E0,-3.639681244E0,-4.609514465E0,-1.800755310E-1,5.875996116E0
2.352396833E0,-3.627855835E0,-5.155279541E0,-1.281335449E0,6.432733916E0
2.362330833E0,-4.495751038E0,-8.340056763E0,-3.495081940E0,1.009870893E1
2.372264833E0,-5.918991394E0,-1.050754944E1,-2.103575592E0,1.224206211E1
2.382198833E0,-5.168452148E0,-1.251277954E1,-7.460485840E-1,1.355872922E1
2.392131833E0,-4.788392487E0,-1.140912460E1,-8.195457458E-1,1.240034201E1
2.402065833E0,-4.557422791E0,-1.072878937E1,-1.256337433E0,1.172413782E1
2.411999833E0,-4.739893341E0,-1.059317139E1,-2.077829132E0,1.178979401E1
2.421933833E0,-4.566853180E0,-1.006042923E1,-2.277064819E0,1.128066525E1
2.431867833E0,-4.271068268E0,-9.127718811E0,-2.361489258E0,1.035055102E1
2.441800833E0,-4.368815002E0,-8.436156921E0,-2.444267120E0,9.809675320E0
2.451734833E0,-4.172124023E0,-7.909402313E0,-2.072290649E0,9.179305658E0
2.461668833E0,-3.947291565E0,-7.401059418E0,-1.744472351E0,8.567378536E0
2.471602833E0,-4.465364227E0,-6.551575928E0,-1.440155182E0,8.058329341E0
2.481535833E0,-3.483106842E0,-7.330106964E0,-1.781595154E0,8.308825589E0
2.491469833E0,-2.464475098E0,-6.654112701E0,-2.927911377E-1,7.101871584E0
2.501403833E0,-2.113005981E0,-5.094206543E0,-6.721023560E-2,5.515455720E0
2.511337833E0,-3.266806641E0,-5.560187531E0,-8.175997925E-1,6.500475400E0
2.521271833E0,-4.329895935E0,-6.658603363E0,-1.938468933E-1,7.944971628E0
2.531204833E0,-2.527943115E0,-7.570656738E0,-8.339158630E-1,8.025008131E0
2.541138833E0,-9.904902649E-1,-7.946076050E0,-1.743424530E0,8.195164711E0
2.551072833E0,-2.544857941E0,-8.182434540E0,-1.489103394E0,8.697468934E0
2.561006833E0,-2.980302429E0,-1.175400742E1,-1.331780548E0,1.219887422E1
2.570939833E0,-3.362158356E0,-1.357392288E1,-1.549427948E0,1.406969147E1
2.580873833E0,-4.287234650E0,-1.179936310E1,-1.624571686E0,1.265877497E1
2.590807833E0,-3.823648682E0,-1.116183884E1,-8.819659424E-1,1.183151721E1
2.600741833E0,-2.407144318E0,-1.020173538E1,-3.221301270E-1,1.048682585E1
2.610675833E0,-1.775607605E0,-9.639055481E0,1.212478638E-2,9.801240735E0
2.620608833E0,-2.431094513E0,-8.424032135E0,1.661544800E-1,8.769386823E0
2.630542833E0,-3.625161438E0,-8.614136810E0,2.874023438E-2,9.345906828E0
2.640476833E0,-4.003873901E0,-9.551337891E0,-1.407073975E-2,1.035660464E1
2.650410833E0,-3.645968170E0,-1.012434631E1,2.430944824E-1,1.076357594E1
2.660343833E0,-2.789000244E0,-1.061143341E1,3.073109436E-1,1.097613235E1
2.670277833E0,-1.676663361E0,-1.067071014E1,4.233197021E-1,1.080992389E1
2.680211833E0,-1.673070831E0,-9.469308472E0,1.399439850E0,9.717273323E0
2.690145833E0,-8.155041504E-1,-8.752898254E0,2.236349487E-1,8.793650406E0
2.700079833E0,7.493417358E-1,-8.716523895E0,-1.020278320E0,8.807966264E0
2.710012833E0,4.041595459E-1,-8.907526703E0,-1.057101746E0,8.979133644E0
2.719946833E0,-1.306034088E0,-8.745264130E0,-2.380050659E-1,8.845451721E0
2.729880833E0,-2.355202332E0,-8.429121552E0,-3.400927734E-1,8.758580436E0
2.739814833E0,-2.550845490E0,-7.597600708E0,-6.646179199E-2,8.014659469E0
2.749747833E0,-1.826801147E0,-7.601492615E0,1.104104004E0,7.895501128E0
2.759681833E0,-2.930605774E0,-7.332202606E0,2.422562256E0,8.259446298E0
2.769615833E0,-3.430117035E0,-7.790699158E0,1.284329224E0,8.608728001E0
2.779549833E0,-1.897005157E0,-7.651937714E0,5.730084229E-1,7.904373346E0
2.789483833E0,1.826352081E0,-5.391638031E0,7.436535645E-1,5.740935743E0
2.799416833E0,3.889661407E0,-2.677182770E0,-2.659220123E0,5.419245807E0
2.809350833E0,-1.387913818E0,-9.122180328E0,-2.853516083E0,9.658314177E0
2.819284833E0,-3.209625549E0,-1.370445145E1,4.075574799E0,1.465346360E1
2.829218833E0,-4.231999512E0,-1.410262344E1,2.349364471E0,1.491017509E1
2.839151833E0,-3.234623566E0,-1.345986008E1,8.066725159E-1,1.386655485E1
2.849085833E0,-1.576222229E0,-1.219289474E1,-1.639091492E-1,1.229544733E1
2.859019833E0,-4.129911804E-1,-1.147708328E1,-4.087998962E-1,1.149178488E1
2.868953833E0,-5.072950745E-1,-1.090123077E1,1.728904724E-1,1.091439745E1
2.878887833E0,-1.421444092E0,-1.094029953E1,6.297404480E-1,1.105021403E1
2.888820833E0,-2.174977112E0,-1.085707260E1,7.912545776E-1,1.110101953E1
2.898754833E0,-2.249821472E0,-1.092173813E1,1.152303772E0,1.121043551E1
2.908688833E0,-2.391277313E0,-1.114073273E1,1.402433624E0,1.148045961E1
2.918622833E0,-2.921175385E0,-1.099508560E1,1.226250000E0,1.144241505E1
2.928555833E0,-4.077820129E0,-1.115330658E1,2.802172852E-1,1.187869464E1
2.938489833E0,-5.043312378E0,-1.226100311E1,-1.414857788E0,1.333300490E1
2.948423833E0,-5.101840668E0,-1.424677368E1,-2.570754089E0,1.534953143E1
2.958357833E0,-4.299658813E0,-1.540716064E1,-4.286935272E0,1.656035866E1
2.968291833E0,-5.446873169E0,-1.555595123E1,-5.994135132E0,1.753812139E1
2.978224833E0,-7.355104980E0,-1.463401840E1,-4.998106384E0,1.712405125E1
2.988158833E0,-6.496640167E0,-1.179592026E1,-2.375559998E0,1.367455131E1
2.998092833E0,-5.462440796E0,-9.106762390E0,3.097059631E-1,1.062390222E1
3.008026833E0,-4.402195587E0,-7.410340118E0,1.325044556E0,8.720562467E0
3.017959833E0,-2.822081451E0,-6.617139587E0,6.497987366E-1,7.223082336E0
3.027893833E0,-1.230740662E0,-5.747597809E0,-1.397493896E0,6.041737526E0
3.037827833E0,-6.752458191E-1,-5.704637146E0,-3.022215271E0,6.490965031E0
3.047761833E0,-1.698667603E0,-6.665339355E0,-3.395688629E0,7.670914001E0
3.057695833E0,-2.668500824E0,-7.521558838E0,-3.274590454E0,8.626568648E0
3.067628833E0,-2.636916504E0,-8.129145355E0,-2.845432892E0,9.007375933E0
3.077562833E0,-2.588417358E0,-8.508157196E0,-2.442171478E0,9.222409925E0
3.087496833E0,-2.646047516E0,-9.084907837E0,-2.247127075E0,9.725569287E0
3.097430833E0,-2.139051819E0,-9.847571869E0,-2.243384857E0,1.032390382E1
3.107363833E0,-1.312770081E0,-1.006836273E1,-1.957180023E0,1.034049549E1
3.117297833E0,-1.047821045E0,-9.657467194E0,-1.366658020E0,9.809809156E0
3.127231833E0,-1.067579956E0,-8.969048767E0,-1.267115021E0,9.120808255E0
3.137165833E0,-1.478176117E0,-8.126151581E0,-1.431323547E0,8.382602892E0
3.147099833E0,-2.117796021E0,-7.552245026E0,-1.657203827E0,8.016719369E0
3.157032833E0,-3.265908508E0,-7.271878052E0,-1.889520721E0,8.192475654E0
3.166966833E0,-3.207380219E0,-8.092172241E0,-3.041974182E0,9.220853885E0
3.176900833E0,-2.571203156E0,-1.014724869E1,-1.236877899E0,1.054075939E1
3.186834833E0,-3.018922119E0,-1.067924240E1,8.951385498E-2,1.109811343E1
3.196767833E0,-3.434907074E0,-9.455088043E0,2.773731995E-1,1.006350895E1
3.206701833E0,-2.638563080E0,-8.581804047E0,-1.224453735E-1,8.979107344E0
3.216635833E0,-1.832788696E0,-8.715326385E0,-5.607339478E-1,8.923589579E0
3.226569833E0,-1.527723083E0,-9.031319275E0,-1.003213806E0,9.214396541E0
3.236502833E0,-8.771759033E-1,-9.038953400E0,-1.353784790E0,9.181767226E0
3.246436833E0,-4.146377563E-1,-8.949888611E0,-1.431922302E0,9.073193048E0
3.256370833E0,-3.357518005E-1,-8.904682617E0,-1.250349884E0,8.998304097E0
3.266304833E0,-3.963757324E-1,-8.905131683E0,-1.257534943E0,9.002215180E0
3.276238833E0,-5.607339478E-1,-8.972940674E0,-1.293759613E0,9.083055699E0
3.286171833E0,-9.859996033E-1,-9.096433868E0,-1.116378479E0,9.217570463E0
3.296105833E0,-1.248553619E0,-9.136700134E0,-8.936416626E-1,9.264813593E0
3.306039833E0,-1.547032928E0,-9.074579315E0,-7.484436035E-1,9.235879409E0
3.315973833E0,-1.748064880E0,-8.922794952E0,-5.649252319E-1,9.109947371E0
3.325906833E0,-1.683698730E0,-8.760532379E0,-4.082011414E-1,8.930195807E0
3.335840333E0,-1.675166473E0,-8.485554199E0,-2.959346008E-1,8.654385597E0
3.345774333E0,-1.725312195E0,-8.227341156E0,-3.894900513E-1,8.415316225E0
3.355708333E0,-1.692230988E0,-8.143964539E0,-6.114784241E-1,8.340366298E0
3.365642333E0,-1.863325195E0,-8.165519714E0,-7.337741089E-1,8.407503639E0
3.375575333E0,-2.608775024E0,-8.188422089E0,-6.701564026E-1,8.620039039E0
3.385509333E0,-3.120860138E0,-7.568860474E0,-4.471202087E-1,8.199227607E0
3.395443333E0,-4.004921722E0,-5.797444153E0,3.650907898E-1,7.055710311E0
3.405377333E0,-3.701352997E0,-5.996380463E0,1.785786438E-1,7.049005816E0
3.415311333E0,-4.335584106E0,-8.924291840E0,8.328680420E-1,9.956603013E0
3.425244333E0,-4.170028381E0,-1.107726471E1,1.207239532E0,1.189757780E1
3.435178333E0,-2.344724121E0,-1.068358337E1,8.641529846E-1,1.097193899E1
3.445112333E0,-9.940827942E-1,-1.031400192E1,3.570075989E-1,1.036794535E1
3.455046333E0,-1.364712067E0,-9.921967163E0,-7.933502197E-3,1.001538488E1
3.464979333E0,-1.290616150E0,-9.081165619E0,-4.456233215E-1,9.183236858E0
3.474913333E0,-1.152752838E0,-8.936416626E0,-5.234614563E-1,9.025651950E0
3.484847333E0,-5.333409119E-1,-9.679172058E0,2.327659607E-1,9.696649125E0
3.494781333E0,-8.607101440E-2,-1.067879333E1,5.824388123E-1,1.069501147E1
3.504715333E0,-1.071771240E-1,-1.090572144E1,5.291496277E-1,1.091907717E1
3.514648333E0,-1.640588379E-1,-1.090946365E1,7.945477295E-1,1.093958951E1
3.524582333E0,-9.327104187E-1,-1.069540878E1,1.001567230E0,1.078261817E1
3.534516333E0,-1.521286469E0,-1.005623795E1,1.177152100E0,1.023855074E1
3.544450333E0,-2.101030884E0,-9.761949921E0,1.208137665E0,1.005830968E1
3.554383333E0,-2.483036499E0,-9.581425323E0,1.236877899E0,9.974920973E0
3.564317333E0,-2.207459564E0,-9.775870972E0,1.065334625E0,1.007846560E1
3.574251333E0,-2.043849792E0,-1.067579956E1,1.898052979E-1,1.087134050E1
3.584185333E0,-2.666854248E0,-1.224693237E1,-3.341052246E-1,1.253838468E1
3.594119333E0,-2.969824219E0,-1.388991577E1,-1.040037231E0,1.424188518E1
3.604052333E0,-2.457888794E0,-1.497650620E1,-2.860551453E0,1.544408332E1
3.613986333E0,-1.717678070E0,-1.555774750E1,-4.447102203E0,1.627177443E1
3.623920333E0,-6.951544189E-1,-1.541718979E1,-4.694387970E0,1.613103404E1
3.633854333E0,-8.833131409E-1,-1.464000595E1,-4.243675232E0,1.526822831E1
3.643787333E0,-1.771266632E0,-1.381297577E1,-4.544250183E0,1.464875062E1
3.653721333E0,-3.689078522E0,-1.200817886E1,-4.600982208E0,1.337814252E1
3.663655333E0,-5.448669434E0,-9.261690216E0,-3.768712921E0,1.138727805E1
3.673589333E0,-6.146218872E0,-7.075187073E0,-2.518063660E0,9.704376494E0
3.683523333E0,-5.997278595E0,-6.012846222E0,-1.964215393E0,8.716639969E0
3.693456333E0,-5.266348572E0,-6.114484863E0,-1.532363434E0,8.213981380E0
3.703390333E0,-4.506528625E0,-7.258106689E0,-7.762857056E-1,8.578550721E0
3.713324333E0,-3.905229034E0,-8.938362579E0,-7.092251587E-1,9.779986694E0
3.723258333E0,-3.528013458E0,-1.058583664E1,-1.183888092E0,1.122089156E1
3.733191333E0,-2.489173737E0,-1.254975266E1,-1.606609039E0,1.289470706E1
3.743125333E0,-1.861079865E0,-1.395952103E1,-1.554367676E0,1.416855336E1
3.753059333E0,-1.314266968E0,-1.422896072E1,-1.291663971E0,1.434778787E1
3.762993333E0,-1.216520233E0,-1.360954880E1,-1.159339142E0,1.371290659E1
3.772927333E0,-2.108964386E0,-1.229932343E1,-1.669927368E0,1.259006533E1
3.782860333E0,-2.532583466E0,-1.051787796E1,-2.082170105E0,1.101703990E1
3.792794333E0,-2.237397308E0,-9.218879242E0,-1.998045044E0,9.694630740E0
3.802728333E0,-1.914818115E0,-7.977810059E0,-1.595232697E0,8.358035002E0
3.812662333E0,-1.513203278E0,-6.874454498E0,-1.012644196E0,7.111494715E0
3.822595333E0,-4.686753845E-1,-6.035000153E0,-1.072819061E0,6.147505526E0
3.832529333E0,-7.999365234E-1,-5.320535889E0,-1.320254517E0,5.539952398E0
3.842463333E0,-1.328637085E0,-5.100044403E0,-8.267308044E-1,5.334717728E0
3.852397333E0,-1.410516815E0,-5.142556000E0,-5.746549988E-1,5.363363522E0
3.862331333E0,-1.976040802E0,-5.620063019E0,-1.044827271E0,6.048265008E0
3.872264333E0,-2.134411469E0,-6.229445801E0,-1.167272644E0,6.687617866E0
3.882198333E0,-2.340233459E0,-6.760840759E0,-9.380992126E-1,7.215655933E0
3.892132333E0,-2.373164978E0,-6.988217926E0,-8.361611938E-1,7.427399770E0
3.902066333E0,-2.229763184E0,-7.113208008E0,-9.151968384E-1,7.510469844E0
3.911999333E0,-2.154469757E0,-6.853498077E0,-9.532177734E-1,7.247123564E0
3.921933333E0,-2.061363373E0,-6.640191650E0,-7.533833313E-1,6.993493444E0
3.931867333E0,-2.029779053E0,-6.724167023E0,-6.010002136E-1,7.049512494E0
3.941801333E0,-2.122136993E0,-6.808142395E0,-3.499722290E-1,7.139800337E0
3.951735333E0,-2.359992371E0,-6.798562317E0,-7.604187012E-2,7.196929618E0
3.961668333E0,-2.737507324E0,-6.769373016E0,1.742376709E-1,7.304020547E0
3.971602333E0,-2.785557404E0,-6.888824615E0,4.409829712E-1,7.443769248E0
3.981536333E0,-2.878963165E0,-7.046297150E0,5.749543762E-1,7.633433367E0
3.991470333E0,-2.517764282E0,-7.145241394E0,7.119195557E-1,7.609233931E0
4.001403333E0,-2.051184540E0,-7.502698059E0,8.446934509E-1,7.823767840E0
4.011337333E0,-1.740730133E0,-8.001909943E0,8.822653198E-1,8.236449248E0
4.021271333E0,-1.579964447E0,-8.554261322E0,9.051676941E-1,8.745913501E0
4.031205333E0,-1.147962799E0,-9.074729004E0,7.303312683E-1,9.176159809E0
4.041139333E0,-1.319655762E0,-9.506281586E0,-2.918930054E-2,9.597485761E0
4.051072333E0,-1.472188568E0,-9.814490662E0,-1.606908417E0,1.005354270E1
4.061006333E0,-2.515668640E0,-1.028690826E1,-2.406994629E0,1.086014242E1
4.070940333E0,-3.298840027E0,-1.096784225E1,-1.711241455E0,1.158033922E1
4.080874333E0,-3.781586151E0,-1.167826492E1,-7.722441101E-1,1.229953765E1
4.090807333E0,-4.127067719E0,-1.242596008E1,-3.737727356E-1,1.309873574E1
4.100741333E0,-3.935017090E0,-1.280317566E1,3.757186890E-2,1.339429274E1
4.110675333E0,-3.885769501E0,-1.238284973E1,1.125359802E0,1.302691854E1
4.120609333E0,-3.304228821E0,-1.143936172E1,2.501448212E0,1.216692927E1
4.130543333E0,-2.871927795E0,-1.149399811E1,3.325933685E0,1.230535642E1
4.140476333E0,-3.058439941E0,-1.294163773E1,3.486250305E0,1.374750825E1
4.150410333E0,-3.652255096E0,-1.482472183E1,3.240461426E0,1.560807275E1
4.160344333E0,-3.819607086E0,-1.617596191E1,2.376907196E0,1.678990262E1
4.170278333E0,-2.215093689E0,-1.560774353E1,6.126759338E-1,1.577604735E1
4.180211333E0,-8.881031799E-1,-1.375594437E1,-2.321222992E0,1.397865547E1
4.190145333E0,-3.114573212E0,-1.247026794E1,-4.442761230E0,1.359949544E1
4.200079333E0,-6.769073639E0,-1.177511353E1,-3.345243530E0,1.398800596E1
4.210013333E0,-8.594527588E0,-1.085812042E1,-9.373507690E-1,1.387960050E1
4.219947333E0,-8.581055603E0,-9.918674011E0,8.807684326E-1,1.314497480E1
4.229880333E0,-7.294930115E0,-9.079069977E0,9.942324829E-1,1.168905536E1
4.239814333E0,-4.217629395E0,-7.551047516E0,-7.195536804E-1,8.678967323E0
4.249748333E0,-1.987866211E0,-6.030958557E0,-2.806663513E0,6.942725205E0
4.259682333E0,-1.482816467E0,-5.396128693E0,-4.294419708E0,7.054005258E0
4.269615333E0,-1.400337982E0,-6.090834045E0,-4.686155090E0,7.811482277E0
4.279549333E0,-5.466632080E-1,-7.873926086E0,-3.603606262E0,8.676608253E0
4.289483333E0,1.987866211E-1,-9.747430115E0,-2.627785492E0,1.009738414E1
4.299417333E0,7.888595581E-2,-1.078701828E1,-3.452270966E0,1.132625981E1
4.309351333E0,-1.132694550E0,-1.106244553E1,-4.064647522E0,1.183985040E1
4.319284333E0,-2.954855347E0,-1.127979355E1,-3.558250580E0,1.219122881E1
4.329218333E0,-4.207450562E0,-1.102232895E1,-2.842139740E0,1.213557308E1
4.339152875E0,-4.121529236E0,-1.028855484E1,-1.997146912E0,1.126188083E1
4.349086875E0,-3.780538330E0,-1.004501129E1,-1.245110779E0,1.080486107E1
4.359019875E0,-3.441942444E0,-9.418713684E0,-7.719447327E-1,1.005758589E1
4.368953875E0,-2.693798218E0,-9.051078186E0,-4.276606750E-1,9.453119000E0
4.378887875E0,-2.320773926E0,-8.705446930E0,-5.761518860E-1,9.027887287E0
4.388821875E0,-2.028282166E0,-8.406817932E0,-1.372795258E0,8.756316755E0
4.398755875E0,-1.780547333E0,-8.060438232E0,-2.288291473E0,8.566054586E0
4.408688875E0,-1.711989899E0,-7.700736237E0,-2.676284637E0,8.330350981E0
4.418622875E0,-1.923649750E0,-7.283254395E0,-2.301763458E0,7.876822834E0
4.428556875E0,-2.391427002E0,-6.804699554E0,-1.824705505E0,7.439919980E0
4.438490875E0,-2.489473114E0,-6.453829193E0,-1.674418030E0,7.117096555E0
4.448424875E0,-2.049537964E0,-6.214925995E0,-1.765877838E0,6.778217725E0
4.458357875E0,-1.744771729E0,-6.325396271E0,-2.024989014E0,6.866982370E0
4.468291875E0,-1.583856354E0,-6.846762085E0,-2.037562866E0,7.316994904E0
4.478225875E0,-1.394200745E0,-7.573500824E0,-1.761387177E0,7.899632601E0
4.488159875E0,-1.239572296E0,-8.205037537E0,-1.521585846E0,8.436492396E0
4.498092875E0,-1.102457428E0,-8.587941284E0,-1.339414673E0,8.761402830E0
4.508026875E0,-1.133442993E0,-8.750353546E0,-1.292412415E0,8.917606745E0
4.517960875E0,-1.105600891E0,-8.582702179E0,-1.191821594E0,8.735305875E0
4.527894875E0,-1.147214355E0,-8.203390961E0,-1.205892334E0,8.370537638E0
4.537828875E0,-1.272952881E0,-7.699089661E0,-1.017284546E0,7.869641573E0
4.547761875E0,-1.362766113E0,-7.292834473E0,-8.324189758E-1,7.465620368E0
4.557695875E0,-1.410367126E0,-7.119644623E0,-6.837780762E-1,7.290132197E0
4.567629875E0,-1.604663086E0,-7.135960693E0,-5.251080322E-1,7.332981459E0
4.577563875E0,-2.149530029E0,-7.358847198E0,-4.790039063E-2,7.666511976E0
4.587496875E0,-2.899320831E0,-7.551496582E0,6.230044556E-1,8.112909248E0
4.597430875E0,-3.003953247E0,-7.846383362E0,8.084687805E-1,8.440562110E0
4.607364875E0,-3.150348816E0,-8.263715515E0,5.824388123E-1,8.863008899E0
4.617298875E0,-3.317102051E0,-8.275241547E0,8.831634521E-2,8.915749461E0
4.627232875E0,-2.776576080E0,-8.605604553E0,-4.546046448E-1,9.053864912E0
4.637165875E0,-2.093696136E0,-9.087452545E0,-1.010847931E0,9.380147697E0
4.647099875E0,-1.470541992E0,-9.143286438E0,-1.539099426E0,9.387811656E0
4.657033875E0,-1.023122406E0,-1.032507889E1,-1.467248840E0,1.047887650E1
4.666967875E0,-2.336640930E-1,-1.127215942E1,-1.159788208E0,1.133407630E1
4.676900875E0,7.207511902E-1,-1.204934326E1,-7.069798279E-1,1.209156631E1
4.686834875E0,4.023632813E-1,-1.245380219E1,1.393601990E-1,1.246107966E1
4.696768875E0,-4.056564331E-2,-1.216026260E1,8.578660583E-1,1.219055234E1
4.706702875E0,-1.013392639E0,-1.146226410E1,1.505569153E0,1.160505068E1
4.716636875E0,-7.752378845E-1,-1.116647919E1,1.579216003E0,1.130421047E1
4.726569875E0,-1.522783356E0,-1.133592682E1,1.252146149E0,1.150608430E1
4.736503875E0,-2.706072693E0,-1.115240845E1,4.312532043E-1,1.148412047E1
4.746437875E0,-3.976181488E0,-1.128488297E1,-3.550616455E-1,1.197015754E1
4.756371875E0,-4.895719299E0,-1.187959625E1,-1.250499573E0,1.290955552E1
4.766304875E0,-4.134851532E0,-1.276620255E1,-3.603905640E0,1.389464143E1
4.776238875E0,-2.711311798E0,-1.366672989E1,-5.518574066E0,1.498617287E1
4.786172875E0,-1.337917786E0,-1.434736450E1,-6.723568268E0,1.590104595E1
4.796106875E0,-9.312135315E-1,-1.458207642E1,-6.916067963E0,1.616589333E1
4.806040875E0,-2.130818939E0,-1.368768631E1,-5.836961975E0,1.503207474E1
4.815973875E0,-3.526067505E0,-1.185998703E1,-3.932023315E0,1.298280600E1
4.825907875E0,-4.238735504E0,-9.838590546E0,-2.796634369E0,1.107185199E1
4.835841875E0,-4.417763214E0,-8.263266449E0,-2.885250092E0,9.804227268E0
4.845775875E0,-4.585564270E0,-7.648345184E0,-2.892135773E0,9.374915096E0
4.855709875E0,-4.711003418E0,-8.233179016E0,-2.813549194E0,9.894182583E0
4.865642875E0,-5.343737640E0,-9.204509125E0,-2.573897552E0,1.095004424E1
4.875576875E0,-5.851631470E0,-1.025352768E1,-2.304906921E0,1.202867477E1
4.885510875E0,-5.160069580E0,-1.146421005E1,-2.453398132E0,1.280912146E1
4.895444875E0,-4.168381805E0,-1.250304977E1,-2.599494324E0,1.343350406E1
4.905377875E0,-3.162623291E0,-1.276590317E1,-2.306403809E0,1.335252666E1
4.915311875E0,-2.216889954E0,-1.226519440E1,-1.489103394E0,1.255257040E1
4.925245875E0,-2.098935242E0,-1.161823975E1,-1.098864899E0,1.185734068E1
4.935179875E0,-2.206262054E0,-1.076157120E1,-1.431173859E0,1.107823386E1
4.945113875E0,-1.721569977E0,-9.783954163E0,-1.667382660E0,1.007321831E1
4.955046875E0,-1.147064667E0,-8.616681519E0,-2.413281555E0,9.021468041E0
4.964980875E0,-1.019829254E0,-7.543413391E0,-2.957849121E0,8.166517539E0
4.974914875E0,-7.801776123E-1,-7.353159027E0,-2.321971436E0,7.750430706E0
4.984848875E0,-5.343887329E-1,-7.798183594E0,-1.467398529E0,7.953018114E0
4.994781875E0,-1.507664795E0,-7.762707367E0,-1.376687164E0,8.026702084E0
5.004715875E0,-2.114652557E0,-7.243586884E0,-1.759740601E0,7.748418765E0
5.014649875E0,-1.897903290E0,-6.754553833E0,-2.021097107E0,7.301429168E0
5.024583875E0,-2.105072479E0,-6.399342499E0,-1.937870178E0,7.009868429E0
5.034517875E0,-2.522254944E0,-6.224655762E0,-1.729952545E0,6.935477284E0
5.044450875E0,-2.601290588E0,-6.166576538E0,-1.731299744E0,6.913087424E0
5.054384875E0,-2.586471405E0,-6.110293579E0,-1.605561218E0,6.826664543E0
5.064318875E0,-2.149679718E0,-6.085894318E0,-1.251846771E0,6.574675115E0
5.074252875E0,-2.014510803E0,-5.932014313E0,-8.288264465E-1,6.319335476E0
5.084185875E0,-1.739382935E0,-5.486540680E0,-6.939569092E-1,5.797340581E0
5.094119875E0,-1.641636200E0,-5.201533356E0,-5.854325867E-1,5.485767948E0
5.104053875E0,-1.885928192E0,-5.182223511E0,-3.815565491E-1,5.527906571E0
5.113987875E0,-2.206262054E0,-5.336402893E0,-2.481838989E-1,5.779825546E0
5.123921875E0,-2.101030884E0,-5.458848267E0,-8.876541138E-2,5.849891834E0
5.133854875E0,-2.410138092E0,-5.663173370E0,2.662962341E-1,6.160455497E0
5.143788875E0,-2.067949677E0,-6.069428558E0,6.348298645E-1,6.443398781E0
5.153722875E0,-1.830842743E0,-6.725065155E0,9.385482788E-1,7.032734842E0
5.163656875E0,-1.686243439E0,-7.569758606E0,1.228046265E0,7.851927147E0
5.173590875E0,-1.437460785E0,-8.682245178E0,1.350791016E0,8.903499942E0
5.183523875E0,-1.273252258E0,-9.652228088E0,6.948550415E-1,9.760609710E0
5.193457875E0,-1.540296936E0,-1.026774811E1,-7.122189331E-1,1.040703712E1
5.203391875E0,-2.209854584E0,-1.055544983E1,-2.033820648E0,1.097439770E1
5.213325875E0,-2.949466553E0,-1.072205338E1,-2.591411133E0,1.141828329E1
5.223258875E0,-3.451672211E0,-1.088566315E1,-2.732717285E0,1.174220793E1
5.233192875E0,-3.773802338E0,-1.131407227E1,-2.196083221E0,1.212734913E1
5.243126875E0,-4.323908386E0,-1.221879089E1,-7.524851990E-1,1.298311475E1
5.253060875E0,-4.017046509E0,-1.251816833E1,5.960604858E-1,1.316041372E1
5.262993875E0,-2.998115387E0,-1.168155807E1,1.576521606E0,1.216276758E1
5.272927875E0,-2.208208008E0,-1.138262970E1,2.550246735E0,1.187199225E1
5.282861875E0,-2.066602478E0,-1.209514801E1,3.392994232E0,1.273090182E1
5.292795875E0,-2.436183929E0,-1.383557877E1,4.077670441E0,1.462824761E1
5.302729875E0,-2.155966644E0,-1.571522003E1,3.740421753E0,1.629745648E1
5.312662875E0,-2.258353729E0,-1.657802582E1,7.815248108E-1,1.674938454E1
5.322596875E0,-2.643652496E0,-1.497935028E1,-4.599335632E0,1.589099499E1
5.332530875E0,-4.418062592E0,-1.212673233E1,-8.966204681E0,1.571527093E1
5.342464833E0,-1.056203613E1,-1.236488708E1,-7.100634155E0,1.774446520E1
5.352398833E0,-1.317679871E1,-1.302770874E1,-1.733694763E0,1.861061301E1
5.362331833E0,-1.087623276E1,-1.143891266E1,1.705702972E0,1.587610105E1
5.372265833E0,-6.572083282E0,-1.012793884E1,2.026186523E0,1.224225697E1
5.382199833E0,-2.739153900E0,-6.909781036E0,-1.454974365E-1,7.434326302E0
5.392133833E0,-2.993774414E-4,-4.692741394E0,-3.096760254E0,5.622432387E0
5.402066833E0,4.451742554E-1,-4.155358887E0,-5.851481781E0,7.190620740E0
5.412000833E0,-1.009351044E0,-5.085973663E0,-7.006330261E0,8.716339906E0
5.421934833E0,-2.061962128E0,-7.530091095E0,-5.220543823E0,9.391913411E0
5.431868833E0,-1.700613556E0,-9.867630157E0,-2.408192139E0,1.029862130E1
5.441802833E0,-1.006357269E0,-1.147753235E1,-1.820963287E0,1.166457933E1
5.451735833E0,-1.562450867E0,-1.235006790E1,-3.015030212E0,1.280842836E1
5.461669833E0,-3.243904266E0,-1.264899628E1,-3.442241821E0,1.350440856E1
5.471603833E0,-4.175716553E0,-1.236728210E1,-2.706372070E0,1.333081862E1
5.481537833E0,-3.580703888E0,-1.137694153E1,-1.833387451E0,1.206720964E1
5.491470833E0,-2.916085968E0,-1.034453842E1,-1.712139587E0,1.088321894E1
5.501404833E0,-2.809806976E0,-9.456584930E0,-1.411564636E0,9.965667490E0
5.511338833E0,-2.756667480E0,-8.715775452E0,-9.135502625E-1,9.186867334E0
5.521272833E0,-2.654430084E0,-8.098459167E0,-1.133442993E0,8.597425951E0
5.531206833E0,-2.590513000E0,-7.509733429E0,-1.952539673E0,8.180419607E0
5.541139833E0,-2.622247009E0,-7.002887421E0,-2.395019531E0,7.851925252E0
5.551073833E0,-2.641407166E0,-6.646179199E0,-2.267634430E0,7.502725883E0
5.561007833E0,-2.722987518E0,-6.481671295E0,-1.947899323E0,7.295274880E0
5.570941833E0,-2.726580048E0,-6.318360901E0,-1.790726166E0,7.110740006E0
5.580875833E0,-2.573298798E0,-6.107000427E0,-1.726060638E0,6.848109684E0
5.590808833E0,-2.104623413E0,-5.967041473E0,-1.634151764E0,6.534942666E0
5.600742833E0,-1.634600830E0,-6.144572296E0,-1.615889740E0,6.560395432E0
5.610676833E0,-1.425186310E0,-6.795867920E0,-1.516197052E0,7.107308232E0
5.620610833E0,-1.527872772E0,-7.662415924E0,-1.470392303E0,7.950412978E0
5.630543833E0,-1.696571960E0,-8.333320770E0,-1.301393738E0,8.603267817E0
5.640477833E0,-1.741029510E0,-8.519234161E0,-1.005758514E0,8.753289932E0
5.650411833E0,-1.667532349E0,-8.349936218E0,-5.942642212E-1,8.535528627E0
5.660345833E0,-1.519041138E0,-7.988138580E0,-3.522175598E-1,8.138912775E0
5.670279833E0,-1.259480896E0,-7.479047241E0,-3.263214111E-1,7.591371775E0
5.680212833E0,-9.840536499E-1,-7.027436371E0,-3.559597778E-1,7.104923004E0
5.690146833E0,-7.964936829E-1,-6.818470917E0,-2.718347168E-1,6.870214112E0
5.700080833E0,-7.750881958E-1,-6.909781036E0,-1.212478638E-2,6.953127548E0
5.710014833E0,-8.363108826E-1,-7.238497467E0,2.606080627E-1,7.291308390E0
5.719947833E0,-8.746311951E-1,-7.726333008E0,5.153782654E-1,7.792741253E0
5.729881833E0,-1.105750580E0,-8.418793030E0,6.255491638E-1,8.514110181E0
5.739815833E0,-1.477277985E0,-9.207053833E0,5.541476440E-1,9.341267052E0
5.749749833E0,-2.131866760E0,-9.578431549E0,1.796264648E-3,9.812808469E0
5.759683833E0,-2.458786926E0,-9.655970306E0,-1.020577698E0,1.001623555E1
5.769616833E0,-2.578238525E0,-9.382339325E0,-1.824555817E0,9.899727725E0
5.779550833E0,-2.105671234E0,-9.173224182E0,-1.712588654E0,9.566339589E0
5.789484833E0,-1.000669098E0,-9.796827393E0,-1.084195404E0,9.907302624E0
5.799418833E0,1.760339355E-1,-1.037732025E1,-2.667453003E-1,1.038224044E1
5.809351833E0,2.803669739E-1,-1.151495453E1,4.399351501E-1,1.152676565E1
5.819285833E0,-3.579057312E-1,-1.223390945E1,1.033001862E0,1.228265972E1
5.829219833E0,-9.238787842E-1,-1.212658264E1,1.630259857E0,1.227050552E1
5.839153833E0,-5.794450378E-1,-1.209320206E1,1.542991333E0,1.220500368E1
5.849087833E0,-4.360432434E-1,-1.184606598E1,1.075363770E0,1.190276523E1
5.859020833E0,-1.476828918E0,-1.165596130E1,3.504212952E-1,1.175437164E1
5.868954833E0,-3.553460541E0,-1.202030365E1,-8.083190918E-3,1.253454614E1
5.878888833E0,-5.428012390E0,-1.265513351E1,-5.902226257E-1,1.378274594E1
5.888822833E0,-4.982688446E0,-1.300166290E1,-2.611170044E0,1.416646150E1
5.898756833E0,-3.550167389E0,-1.350880829E1,-4.429738312E0,1.465312838E1
5.908689833E0,-1.634301453E0,-1.447370178E1,-5.882766724E0,1.570878508E1
5.918623833E0,-1.115779724E0,-1.492830643E1,-6.427184601E0,1.629134737E1
5.928557833E0,-1.798360291E0,-1.436577621E1,-6.111491089E0,1.571495941E1
5.938491833E0,-3.351979523E0,-1.230950226E1,-5.339696045E0,1.383011086E1
5.948424833E0,-4.007915497E0,-9.658365326E0,-4.007765808E0,1.119864251E1
5.958358833E0,-4.458478546E0,-8.071814575E0,-2.952610016E0,9.682464944E0
5.968292833E0,-4.909790039E0,-7.460785217E0,-2.675835571E0,9.323596425E0
5.978226833E0,-5.391787720E0,-7.484885101E0,-2.954705658E0,9.686339108E0
5.988160833E0,-5.956563263E0,-8.288114777E0,-2.249522095E0,1.045149951E1
5.998093833E0,-6.117328949E0,-9.605076141E0,-1.535207520E0,1.149069464E1
6.008027833E0,-5.851631470E0,-1.075663147E1,-1.488205261E0,1.233537459E1
6.017961833E0,-4.776866455E0,-1.213736023E1,-1.852248230E0,1.317439904E1
6.027895833E0,-3.755390625E0,-1.289403671E1,-2.100731506E0,1.359309436E1
6.037828833E0,-2.870580597E0,-1.283670593E1,-1.785337372E0,1.327436182E1
6.047762833E0,-2.180814972E0,-1.221430023E1,-1.422042847E0,1.248868648E1
6.057696833E0,-1.814826050E0,-1.130404312E1,-1.660646667E0,1.156860976E1
6.067630833E0,-1.578916626E0,-1.015443375E1,-1.817520447E0,1.043594188E1
6.077564833E0,-2.049088898E0,-9.071735229E0,-2.078577576E0,9.529723507E0
6.087497833E0,-1.681453400E0,-7.991880798E0,-2.083666992E0,8.428470345E0
6.097431833E0,-1.287173309E0,-7.908653870E0,-1.784439240E0,8.209009962E0
6.107365833E0,-1.050665131E0,-8.282875671E0,-1.330732727E0,8.454630459E0
6.117299833E0,-1.293909302E0,-8.334368591E0,-1.326242065E0,8.537846281E0
6.127233833E0,-6.153703308E-1,-7.821385345E0,-1.663640442E0,8.020003048E0
6.137166833E0,-1.836680603E-1,-7.197482758E0,-2.113455048E0,7.503611413E0
6.147100833E0,-9.948312378E-1,-6.624624023E0,-2.075434113E0,7.013042093E0
6.157034833E0,-2.182012482E0,-6.256689148E0,-1.614243164E0,6.820052680E0
6.166968833E0,-2.605930939E0,-6.098318481E0,-1.378932495E0,6.773611975E0
6.176901833E0,-2.694396973E0,-5.826483765E0,-1.385668488E0,6.567173308E0
6.186835833E0,-2.850222931E0,-5.262905731E0,-1.051413574E0,6.076793397E0
6.196769833E0,-2.235002289E0,-4.271667023E0,-1.188827820E0,4.965449221E0
6.206703833E0,-2.247576141E0,-3.641178131E0,-8.957373047E-1,4.371741302E0
6.216637833E0,-1.965263214E0,-3.581901398E0,-5.282514954E-1,4.119627018E0
6.226570833E0,-2.179168396E0,-3.930077362E0,-1.329235840E-1,4.495770418E0
6.236504833E0,-2.140399017E0,-4.497696991E0,-8.906478882E-2,4.981818816E0
6.246438833E0,-2.111509094E0,-5.196743317E0,-1.528321838E-1,5.611414210E0
6.256372833E0,-2.110760651E0,-5.836363220E0,-4.150868225E-1,6.220188360E0
6.266306833E0,-1.948348389E0,-6.532565460E0,-3.466790771E-1,6.825735075E0
6.276239833E0,-1.475032654E0,-7.165449371E0,-1.240919495E-1,7.316746875E0
6.286173833E0,-1.245410156E0,-7.843838654E0,5.155279541E-1,7.958807722E0
6.296107833E0,-1.260528717E0,-8.661288757E0,9.648934937E-1,8.805559326E0
6.306041833E0,-1.656605072E0,-9.372310181E0,1.103056183E0,9.581298003E0
6.315974833E0,-1.838626556E0,-9.906249847E0,4.073030090E-1,1.008366151E1
6.325908833E0,-2.094743958E0,-1.014784744E1,-1.241518250E0,1.043590569E1
6.335842833E0,-2.782413940E0,-1.053808594E1,-2.456541595E0,1.117263081E1
6.345777083E0,-3.650009766E0,-1.104403381E1,-2.439177704E0,1.188456318E1
6.355711083E0,-4.206851807E0,-1.120375168E1,-2.152972870E0,1.215964415E1
6.365644083E0,-4.493206329E0,-1.127320724E1,-1.855391693E0,1.227666824E1
6.375578083E0,-4.703219604E0,-1.215143097E1,-7.424560547E-1,1.305100725E1
6.385512083E0,-4.753515015E0,-1.309312271E1,7.999365234E-1,1.395226382E1
6.395446083E0,-3.585194550E0,-1.327409637E1,1.782493286E0,1.386479487E1
6.405379083E0,-2.096689911E0,-1.337064560E1,2.372416534E0,1.374040147E1
6.415313083E0,-1.410965881E0,-1.387898849E1,3.198997650E0,1.431260746E1
6.425247083E0,-9.885443115E-1,-1.490405685E1,3.924089813E0,1.544365926E1
6.435181083E0,-8.833131409E-1,-1.592972397E1,3.424279175E0,1.631753767E1
6.445115083E0,-1.605860596E0,-1.626562546E1,5.087919617E-1,1.635262147E1
6.455048083E0,-2.141895905E0,-1.434137695E1,-4.709356842E0,1.524601105E1
6.464982083E0,-4.503834229E0,-1.143996048E1,-8.725654907E0,1.507628177E1
6.474916083E0,-1.063149170E1,-1.229632965E1,-6.497987366E0,1.750577557E1
6.484850083E0,-1.282607803E1,-1.337738159E1,-6.730004883E-1,1.854496011E1
6.494784083E0,-1.005459137E1,-1.157423126E1,2.484533386E0,1.553159821E1
6.504717083E0,-7.011419678E0,-9.682315521E0,1.787582703E0,1.208729464E1
6.514651083E0,-4.476740570E0,-7.191644897E0,-2.912942505E-1,8.476191055E0
6.524585083E0,-1.892065430E0,-4.688999176E0,-2.052831116E0,5.457173302E0
6.534519083E0,-3.176394653E-1,-3.141367493E0,-3.526217194E0,4.733211621E0
6.544452083E0,-4.189787292E-1,-3.193159790E0,-5.084476776E0,6.018614185E0
6.554386083E0,-1.326391754E0,-5.526507568E0,-5.476212158E0,7.892433122E0
6.564320083E0,-1.180744629E0,-8.538394318E0,-4.660708008E0,9.799006814E0
6.574254083E0,-1.206341400E0,-1.086395828E1,-4.273762665E0,1.173651978E1
6.584188083E0,-1.801653442E0,-1.193108917E1,-3.939657440E0,1.269321648E1
6.594121083E0,-2.734363861E0,-1.230022156E1,-3.166365509E0,1.299223101E1
6.604055083E0,-3.650159454E0,-1.212149323E1,-2.659369812E0,1.293547486E1
6.613989083E0,-3.939657440E0,-1.154129974E1,-2.368973694E0,1.242314521E1
6.623923083E0,-3.973636780E0,-1.070947952E1,-2.083367615E0,1.161133763E1
6.633857083E0,-3.918401642E0,-9.907147980E0,-1.483564911E0,1.075669175E1
6.643790083E0,-3.748205566E0,-9.301507416E0,-7.590715027E-1,1.005700128E1
6.653724083E0,-3.179837494E0,-8.701555023E0,-6.915618896E-1,9.290139082E0
6.663658083E0,-2.573598175E0,-8.167315979E0,-1.421444092E0,8.680377940E0
6.673592083E0,-2.286046143E0,-7.879015503E0,-2.205513611E0,8.495244702E0
6.683525083E0,-2.043700104E0,-7.576344910E0,-2.631827087E0,8.276727984E0
6.693459083E0,-1.575922852E0,-7.097640381E0,-2.568209381E0,7.710754259E0
6.703393083E0,-1.314266968E0,-6.685397644E0,-2.038610687E0,7.111805176E0
6.713327083E0,-1.429078217E0,-6.242468719E0,-1.501078491E0,6.577531216E0
6.723261083E0,-1.652713165E0,-5.976172485E0,-1.215023346E0,6.318415950E0
6.733194083E0,-1.763782196E0,-5.950426025E0,-1.452279968E0,6.373979497E0
6.743128083E0,-1.887275391E0,-6.358776855E0,-1.748813324E0,6.859606369E0
6.753062083E0,-1.971550140E0,-7.018005981E0,-1.660496979E0,7.476407435E0
6.762996083E0,-1.939816132E0,-7.547454987E0,-1.396146698E0,7.916829479E0
6.772930083E0,-1.824406128E0,-7.927963715E0,-1.206940155E0,8.224218560E0
6.782863083E0,-1.778751068E0,-8.125702515E0,-1.193617859E0,8.403316031E0
6.792797083E0,-1.488953705E0,-7.937244415E0,-9.771679688E-1,8.134598286E0
6.802731083E0,-1.177002411E0,-7.519313507E0,-9.586065674E-1,7.671006247E0
6.812665083E0,-9.997709656E-1,-7.081923065E0,-1.154998169E0,7.244804832E0
6.822598083E0,-1.135688324E0,-6.778803406E0,-8.913963318E-1,6.930840570E0
6.832532083E0,-1.438358917E0,-6.649322662E0,-4.647834778E-1,6.818972938E0
6.842466083E0,-1.381477203E0,-6.840175781E0,-1.562750244E-1,6.980036237E0
6.852400083E0,-1.489103394E0,-7.103178864E0,2.918930054E-2,7.257646375E0
6.862334083E0,-1.819316711E0,-7.456743622E0,1.448986816E-1,7.676844037E0
6.872267083E0,-2.393223267E0,-8.243357849E0,8.277786255E-2,8.584131779E0
6.882201083E0,-3.059188385E0,-8.837173004E0,-5.643264771E-1,9.368709871E0
6.892135083E0,-3.732188873E0,-9.242380371E0,-1.142873383E0,1.003279564E1
6.902069083E0,-3.779191132E0,-9.526938629E0,-1.332978058E0,1.033545721E1
6.912003083E0,-3.276386719E0,-9.693542175E0,-1.371897125E0,1.032383512E1
6.921936083E0,-2.286195831E0,-9.742041321E0,-1.358425140E0,1.009848401E1
6.931870083E0,-1.063688049E0,-1.065574127E1,-8.300239563E-1,1.074081906E1
6.941804083E0,9.639953613E-2,-1.104373444E1,-2.927911377E-1,1.104803556E1
6.951738083E0,1.179846497E0,-1.165685944E1,2.124082947E-1,1.171834148E1
6.961671083E0,7.186555481E-1,-1.266636017E1,6.999444580E-1,1.270602487E1
6.971605083E0,-3.098556519E-1,-1.227432541E1,7.963439941E-1,1.230403343E1
6.981539083E0,-8.779243469E-1,-1.158396103E1,2.058219910E-1,1.161900456E1
6.991473083E0,-1.411265259E0,-1.169293442E1,-8.641529846E-1,1.180945152E1
7.001407083E0,-3.906426544E0,-1.233944000E1,-1.087787933E0,1.298865776E1
7.011340083E0,-6.282285919E0,-1.283925064E1,-1.584155731E0,1.438134287E1
7.021274083E0,-5.952671356E0,-1.347078735E1,-4.162543945E0,1.530435168E1
7.031208083E0,-4.136797485E0,-1.372016876E1,-6.017636261E0,1.554246025E1
7.041142083E0,-3.440744934E0,-1.295840286E1,-6.402635651E0,1.485774794E1
7.051076083E0,-2.424358521E0,-1.273925858E1,-5.644013214E0,1.414288190E1
7.061009083E0,-2.605781250E0,-1.215861603E1,-4.184847565E0,1.312002244E1
7.070943083E0,-3.390299835E0,-1.048389862E1,-2.593057709E0,1.131946163E1
7.080877083E0,-3.765419769E0,-9.250912628E0,-2.180515594E0,1.022313155E1
7.090811083E0,-4.391567688E0,-8.821006622E0,-2.534379730E0,1.017443390E1
7.100745083E0,-5.162015533E0,-9.221723328E0,-2.841241608E0,1.094345646E1
7.110678083E0,-6.460116119E0,-1.016251694E1,-2.669848022E0,1.233442091E1
7.120612083E0,-7.631430359E0,-1.138891663E1,-2.035317535E0,1.385960565E1
7.130546083E0,-7.450606384E0,-1.270348297E1,-1.792522430E0,1.483587381E1
7.140480083E0,-6.549180908E0,-1.351778961E1,-1.960173798E0,1.514809189E1
7.150413083E0,-5.610033875E0,-1.375175308E1,-2.277962952E0,1.502572155E1
7.160347083E0,-4.172573090E0,-1.328622116E1,-1.927841034E0,1.405882676E1
7.170281083E0,-2.837349701E0,-1.239407639E1,-1.357227631E0,1.278693668E1
7.180215083E0,-1.867217102E0,-1.148980682E1,-1.393452301E0,1.172364576E1
7.190149083E0,-9.645941162E-1,-1.030576904E1,-1.386416931E0,1.044324994E1
7.200082083E0,-4.652325439E-1,-9.040749664E0,-1.464704132E0,9.170439139E0
7.210016083E0,-2.944377136E-1,-7.843688965E0,-1.789079590E0,8.050525195E0
7.219950083E0,-4.796026611E-1,-6.917864227E0,-1.960922241E0,7.206391622E0
7.229884083E0,-8.891510010E-1,-6.352938995E0,-1.825004883E0,6.669412733E0
7.239818083E0,-1.165027313E0,-6.152954865E0,-1.614991608E0,6.467174043E0
7.249751083E0,-1.546733551E0,-6.142177277E0,-1.183738403E0,6.443598605E0
7.259685083E0,-2.138153687E0,-6.211632843E0,-1.251996460E0,6.687568983E0
7.269619083E0,-2.583178253E0,-6.283034363E0,-1.330583038E0,6.922411568E0
7.279553083E0,-2.838696899E0,-6.253096619E0,-1.060993652E0,6.948749883E0
7.289487083E0,-2.748284912E0,-6.156547394E0,-8.433462524E-1,6.794658098E0
7.299420083E0,-2.542762299E0,-6.141428833E0,-7.328759766E-1,6.687293579E0
7.309354083E0,-2.288890228E0,-6.143075409E0,-7.973918152E-1,6.603955456E0
7.319288083E0,-2.023791504E0,-5.995182953E0,-7.918533325E-1,6.376910097E0
7.329222083E0,-1.667682037E0,-5.710175629E0,-8.901988220E-1,6.014958273E0
7.339155083E0,-1.115180969E0,-5.230423279E0,-1.063089294E0,5.452624608E0
7.349088833E0,-1.263372803E-1,-4.915478210E0,-2.522254944E-1,4.923566273E0
7.359022833E0,-2.691403198E-1,-4.846022644E0,7.671546936E-1,4.913745852E0
7.368956833E0,-7.384144592E-1,-4.815635834E0,1.049916687E0,4.983766592E0
7.378890833E0,-1.480720825E0,-4.783901825E0,1.001417542E0,5.106964649E0
7.388823833E0,-1.679657135E0,-4.800517273E0,6.215075684E-1,5.123717970E0
7.398757833E0,-1.635199585E0,-4.948409729E0,3.091072083E-1,5.220745521E0
7.408691833E0,-1.716630249E0,-5.660179596E0,4.559518433E-1,5.932313592E0
7.418625833E0,-1.761387177E0,-7.093449097E0,7.497908020E-1,7.347223361E0
7.428559833E0,-1.774410095E0,-8.600515137E0,6.442602539E-1,8.805252017E0
7.438492833E0,-2.034569092E0,-9.624086609E0,-1.222956848E-1,9.837554100E0
7.448426833E0,-2.591560822E0,-1.031579819E1,-1.287921753E0,1.071403856E1
7.458360833E0,-3.424428864E0,-1.102352646E1,-2.105371857E0,1.173360300E1
7.468294833E0,-4.134552155E0,-1.148322052E1,-1.879491577E0,1.234873935E1
7.478227833E0,-4.192631378E0,-1.152588181E1,-1.445394287E0,1.234962647E1
7.488161833E0,-4.268523560E0,-1.196252380E1,-9.482780457E-1,1.273662045E1
7.498095833E0,-4.489913177E0,-1.289119263E1,-8.996292114E-2,1.365101685E1
7.508029833E0,-3.656446381E0,-1.297801208E1,1.219514008E0,1.353830167E1
7.517963833E0,-2.540217590E0,-1.275288025E1,2.320175171E0,1.320878014E1
7.527896833E0,-2.166744232E0,-1.312410828E1,2.862048340E0,1.360618680E1
7.537830833E0,-2.427352295E0,-1.400053574E1,3.665577393E0,1.467458680E1
7.547764833E0,-2.908152466E0,-1.468521194E1,3.649710388E0,1.540886714E1
7.557698833E0,-4.001628571E0,-1.570908279E1,1.736688538E0,1.630350884E1
7.567632833E0,-4.095782776E0,-1.680734894E1,-1.746118927E0,1.738710287E1
7.577565833E0,-3.994742889E0,-1.621802444E1,-6.528673553E0,1.793337297E1
7.587499833E0,-6.927294617E0,-1.405577087E1,-8.311017151E0,1.773767492E1
7.597433833E0,-1.031205597E1,-1.136436768E1,-4.541555786E0,1.600353336E1
7.607367833E0,-1.034259247E1,-9.467362518E0,5.855822754E-1,1.403364096E1
7.617300833E0,-7.712262268E0,-7.671247559E0,2.868035889E0,1.124956258E1
7.627234833E0,-3.970343628E0,-6.134543152E0,2.217339020E0,7.636284472E0
7.637168833E0,-8.924441528E-1,-4.696184235E0,-1.014739838E0,4.886747371E0
7.647102833E0,-4.565505981E-1,-4.419709167E0,-4.838687897E0,6.569259329E0
7.657036833E0,-1.829794922E0,-5.212610321E0,-6.810836792E0,8.769660975E0
7.666969833E0,-3.575913849E0,-7.476203156E0,-5.285957794E0,9.829655298E0
7.676903833E0,-3.873045959E0,-1.014560211E1,-2.113305359E0,1.106344371E1
7.686837833E0,-2.278112640E0,-1.161779068E1,-1.864822083E0,1.198500809E1
7.696771833E0,-1.037193146E0,-1.188244034E1,-3.092269592E0,1.232194340E1
7.706705833E0,-2.595452728E0,-1.294223648E1,-2.405348053E0,1.341728584E1
7.716638833E0,-4.390669556E0,-1.344878311E1,-8.939410400E-1,1.417557325E1
7.726572833E0,-4.415517883E0,-1.226115280E1,-8.607101440E-1,1.306037856E1
7.736506833E0,-3.549568634E0,-1.072459808E1,-1.542991333E0,1.140163426E1
7.746440833E0,-3.266357574E0,-9.700876923E0,-1.186133423E0,1.030451442E1
7.756374833E0,-3.380270691E0,-9.453591156E0,1.425036621E-1,1.004076307E1
7.766307833E0,-3.016676788E0,-8.655899963E0,-2.691403198E-1,9.170462340E0
7.776241833E0,-2.383194122E0,-7.373816071E0,-1.236129456E0,7.847343098E0
7.786175833E0,-1.943708038E0,-6.756050720E0,-1.825154572E0,7.263154376E0
7.796109833E0,-2.172881470E0,-6.590644684E0,-1.857187958E0,7.183812243E0
7.806043833E0,-2.931803284E0,-6.651118927E0,-1.619033203E0,7.446752446E0
7.815976833E0,-3.070714417E0,-6.595135345E0,-1.305285645E0,7.391134410E0
7.825910833E0,-2.581831055E0,-6.262976074E0,-1.077309723E0,6.859396266E0
7.835844833E0,-2.109263763E0,-5.959257660E0,-9.051676941E-1,6.386006110E0
7.845778833E0,-2.225122833E0,-5.839955750E0,-1.093775482E0,6.344493643E0
7.855712833E0,-2.704875183E0,-6.181994476E0,-1.196012878E0,6.853017749E0
7.865645833E0,-2.605930939E0,-6.843019867E0,-8.075706482E-1,7.366815276E0
7.875579833E0,-3.047512665E0,-7.382647705E0,-1.035696259E0,8.053787141E0
7.885513833E0,-4.399501190E0,-6.944209442E0,-1.531315613E0,8.361972435E0
7.895447833E0,-4.111949158E0,-6.783144379E0,-9.505233765E-1,7.988909076E0
7.905380833E0,-2.096689911E0,-7.773934021E0,9.535171509E-2,8.052282328E0
7.915314833E0,-1.395098877E0,-8.145461426E0,1.441203003E0,8.388796625E0
7.925248833E0,-9.957293701E-1,-8.105195160E0,1.410666504E0,8.287077021E0
7.935182833E0,-1.254990234E0,-7.840395813E0,-3.282673645E-1,7.946984740E0
7.945116833E0,-1.429976349E0,-8.013585663E0,-8.241860962E-1,8.181788940E0
7.955049833E0,-5.465135193E-1,-7.739804993E0,2.597099304E-1,7.763421127E0
7.964983833E0,-1.710942078E-1,-7.275769958E0,8.928932190E-1,7.332350238E0
7.974917833E0,-1.083746338E0,-7.239694977E0,5.963598633E-1,7.344612622E0
7.984851833E0,-2.296224976E0,-7.463778992E0,5.987548828E-2,7.809240107E0
7.994785833E0,-2.581531677E0,-7.918383636E0,-9.220825195E-2,8.329082037E0
8.004718833E0,-2.307152252E0,-8.527467041E0,5.987548828E-4,8.834061694E0
8.014652833E0,-2.012115784E0,-9.201515350E0,-3.573069763E-1,9.425718166E0
8.024586833E0,-1.672023010E0,-1.004156845E1,-9.855505371E-1,1.022741745E1
8.034520833E0,-4.815486145E-1,-1.064286804E1,-1.039139099E0,1.070431405E1
8.044453833E0,1.421444092E0,-1.108744354E1,-6.192622375E-1,1.119532909E1
8.054387833E0,2.799927521E0,-1.167257675E1,1.065783691E-1,1.200416599E1
8.064321833E0,2.805316315E0,-1.252235962E1,8.170010376E-1,1.285872392E1
8.074255833E0,2.038760376E0,-1.319086945E1,1.592687988E0,1.344218121E1
8.084189833E0,1.648072815E0,-1.338860825E1,1.673370209E0,1.359305494E1
8.094122833E0,9.569599915E-1,-1.359862152E1,8.283773804E-1,1.365739685E1
8.104056833E0,-6.997947693E-1,-1.429647034E1,-3.869453430E-1,1.431881641E1
8.113990833E0,-2.933749237E0,-1.504985367E1,-5.989045715E-1,1.534482540E1
8.123924833E0,-5.394482117E0,-1.471964035E1,-9.785151672E-1,1.570750589E1
8.133858833E0,-7.354356537E0,-1.363589401E1,-1.423090668E0,1.555793536E1
8.143791833E0,-6.094276886E0,-1.308698547E1,-2.690205688E0,1.468491083E1
8.153725833E0,-3.383414154E0,-1.272728348E1,-4.450994110E0,1.390117206E1
8.163659833E0,-2.190544739E0,-1.194381271E1,-4.513264618E0,1.295464032E1
8.173593833E0,-1.441053314E0,-1.049512527E1,-5.040617981E0,1.173167161E1
8.183527833E0,-1.728455658E0,-8.725056152E0,-5.654192047E0,1.053964191E1
8.193460833E0,-3.214714966E0,-6.491700439E0,-4.272565155E0,8.410194998E0
8.203394833E0,-3.993695068E0,-4.938081207E0,-2.244282990E0,6.735803771E0
8.213328833E0,-4.231849823E0,-5.336402893E0,-1.827399902E0,7.051605432E0
8.223262833E0,-4.877756653E0,-6.702611847E0,-2.334395599E0,8.612021734E0
8.233196833E0,-5.256020050E0,-8.689879303E0,-2.330803070E0,1.041980768E1
8.243129833E0,-4.967569885E0,-1.099822906E1,-2.329904938E0,1.229090111E1
8.253063833E0,-4.134851532E0,-1.363769028E1,-3.233575745E0,1.461299440E1
8.262997833E0,-4.322261810E0,-1.531285675E1,-4.219425659E0,1.646113854E1
8.272931833E0,-4.193828888E0,-1.623134674E1,-4.599934387E0,1.738402181E1
8.282865833E0,-3.779640198E0,-1.620230713E1,-4.503235474E0,1.723599623E1
8.292798833E0,-3.463198242E0,-1.515718048E1,-3.768712921E0,1.599803298E1
8.302732833E0,-3.269051971E0,-1.356598938E1,-2.838397522E0,1.424005861E1
8.312666833E0,-2.918930054E0,-1.171014862E1,-2.248025208E0,1.227604785E1
8.322600833E0,-2.507286072E0,-9.851912842E0,-1.881886597E0,1.033867338E1
8.332533833E0,-2.225871277E0,-8.241561584E0,-1.954335938E0,8.757697714E0
8.342467833E0,-2.201921082E0,-6.987918549E0,-2.293979645E0,7.677356622E0
8.352401833E0,-2.207010498E0,-5.981710968E0,-2.296224976E0,6.776755166E0
8.362335833E0,-2.325713654E0,-5.221142578E0,-1.919009399E0,6.029251271E0
8.372269833E0,-2.409689026E0,-4.781656494E0,-1.558858337E0,5.576816237E0
8.382202833E0,-2.630330200E0,-4.599485321E0,-1.267414398E0,5.447957547E0
8.392136833E0,-2.917882233E0,-4.600832520E0,-1.148262177E0,5.567782559E0
8.402070833E0,-3.250340881E0,-4.782255249E0,-1.013841705E0,5.870481762E0
8.412004833E0,-3.363954620E0,-4.984484711E0,-9.541159058E-1,6.088646457E0
8.421938833E0,-3.513194275E0,-5.291795654E0,-1.032552795E0,6.435200116E0
8.431871833E0,-3.468736725E0,-5.589526520E0,-8.842112732E-1,6.637527458E0
8.441805833E0,-3.271147614E0,-5.877078552E0,-6.774911499E-1,6.760137075E0
8.451739833E0,-3.232228546E0,-6.134692841E0,-4.683760071E-1,6.949901705E0
8.461673833E0,-2.811453552E0,-6.180048523E0,-4.409829712E-1,6.803803113E0
8.471607833E0,-2.438728638E0,-6.065686340E0,-4.852908325E-1,6.555566744E0
8.481540833E0,-2.118993530E0,-5.788163452E0,-3.571572876E-1,6.174182623E0
8.491474833E0,-1.877395935E0,-5.576204224E0,-1.526824951E-1,5.885743877E0
8.501408833E0,-1.760339355E0,-5.426365814E0,-1.916015625E-1,5.707972648E0
8.511342833E0,-1.856738892E0,-5.323829041E0,-2.086660767E-1,5.642178347E0
8.521276833E0,-1.847907257E0,-5.482199707E0,3.936813354E-2,5.785397541E0
8.531209833E0,-2.093995514E0,-6.156248016E0,5.054988098E-1,6.522249297E0
8.541143833E0,-2.103126526E0,-7.018604736E0,8.366102600E-1,7.374542044E0
8.551077833E0,-2.072739716E0,-8.003556519E0,5.086422729E-1,8.283229071E0
8.561011833E0,-2.397713928E0,-9.290879517E0,-7.643106079E-1,9.625676339E0
8.570945833E0,-3.683989105E0,-1.053344559E1,-1.695374451E0,1.128714074E1
8.580878833E0,-5.325475616E0,-1.131197662E1,-1.776505737E0,1.262843927E1
8.590812833E0,-5.877826996E0,-1.127290787E1,-2.339934082E0,1.292681684E1
8.600746833E0,-5.613327026E0,-1.096679443E1,-3.396586761E0,1.277954702E1
8.610680833E0,-5.601202240E0,-1.114133148E1,-3.065924377E0,1.284144174E1
8.620613833E0,-5.436095581E0,-1.164593216E1,-1.428030396E0,1.293128539E1
8.630547833E0,-4.593797150E0,-1.213870743E1,3.656895447E-1,1.298402554E1
8.640481833E0,-2.820883942E0,-1.220771393E1,1.851050720E0,1.266538805E1
8.650415833E0,-1.053808594E0,-1.213960556E1,3.021766205E0,1.255434613E1
8.660349833E0,7.738906860E-2,-1.232911148E1,4.061354370E0,1.298104689E1
8.670282833E0,3.384461975E-1,-1.298295181E1,4.824317780E0,1.385444426E1
8.680216833E0,-4.948709106E-1,-1.414708099E1,4.288432159E0,1.479105974E1
8.690150833E0,-2.282603302E0,-1.559082870E1,2.304607544E0,1.592468001E1
8.700084833E0,-3.581901398E0,-1.728545471E1,-7.442523193E-1,1.766835798E1
8.710018833E0,-4.833748169E0,-1.899669617E1,-4.583468628E0,2.013076678E1
8.719951833E0,-5.396877136E0,-1.827893875E1,-7.082521820E0,2.033243714E1
8.729885833E0,-5.470074921E0,-1.388467667E1,-5.543422394E0,1.591965758E1
8.739819833E0,-3.853586426E0,-8.825796661E0,-2.002984772E0,9.836501565E0
8.749753833E0,-3.423830109E0,-6.230942688E0,-6.867718506E-1,7.142752618E0
8.759687833E0,-3.828289032E0,-5.139861603E0,-1.056802368E0,6.495444977E0
8.769620833E0,-3.029400330E0,-4.654271393E0,-2.256557465E0,5.994293966E0
8.779554833E0,-2.269730072E0,-4.992118835E0,-4.130360870E0,6.865333640E0
8.789488833E0,-2.692600708E0,-5.076393585E0,-6.972650299E0,9.035359572E0
8.799422833E0,-3.097508698E0,-5.977070618E0,-7.851921844E0,1.034275640E1
8.809356833E0,-2.627186737E0,-7.701035614E0,-4.455335083E0,9.276748912E0
8.819289833E0,-1.979932709E0,-9.538913727E0,-3.295247498E0,1.028443799E1
8.829223833E0,-1.725312195E0,-9.882299652E0,-4.614154816E0,1.104205476E1
8.839157833E0,-3.200793915E0,-1.072609497E1,-3.177891541E0,1.163585792E1
8.849091833E0,-4.508324890E0,-1.185549637E1,-7.985893250E-1,1.270887613E1
8.859024833E0,-5.780080261E0,-1.218750595E1,3.448828125E-1,1.349309354E1
8.868958833E0,-5.770649872E0,-1.181373322E1,4.028123474E-1,1.315397089E1
8.878892833E0,-4.621788940E0,-1.105915237E1,3.270698547E-1,1.199052788E1
8.888826833E0,-3.775448914E0,-1.012629227E1,-1.511856079E-2,1.080722157E1
8.898760833E0,-3.159779205E0,-9.074729004E0,-8.304730225E-1,9.644925949E0
8.908693833E0,-2.620600433E0,-8.101153564E0,-1.667682037E0,8.676254900E0
8.918627833E0,-2.330653381E0,-7.462581482E0,-1.853296051E0,8.034723008E0
8.928561833E0,-2.267634430E0,-7.188800812E0,-1.462009735E0,7.678443559E0
8.938495833E0,-2.373464355E0,-6.832391968E0,-1.502126312E0,7.387238761E0
8.948429833E0,-2.243833923E0,-6.419999542E0,-1.863923950E0,7.051623734E0
8.958362833E0,-1.792672119E0,-6.034850464E0,-1.824705505E0,6.554589509E0
8.968296833E0,-1.291065216E0,-5.794600067E0,-1.542841644E0,6.133889441E0
8.978230833E0,-1.072220306E0,-5.961952057E0,-1.461560669E0,6.231427469E0
8.988164833E0,-1.334924011E0,-6.471941528E0,-1.477277985E0,6.771292307E0
8.998098833E0,-1.783092041E0,-7.161707153E0,-1.462608490E0,7.523874678E0
9.008031833E0,-2.149829407E0,-7.722740479E0,-1.357676697E0,8.130545676E0
9.017965833E0,-2.452500000E0,-8.225993958E0,-1.039139099E0,8.646475751E0
9.027899833E0,-2.676733704E0,-8.481811981E0,-6.599775696E-1,8.918610217E0
9.037833833E0,-2.329455872E0,-8.533753967E0,-1.321751404E-1,8.846965112E0
9.047767833E0,-1.794468384E0,-8.333470459E0,-3.173400879E-2,8.524544194E0
9.057700833E0,-1.317859497E0,-7.847431183E0,-1.196012878E-1,7.958218035E0
9.067634833E0,-8.623567200E-1,-7.152875519E0,-3.023712158E-2,7.204734664E0
9.077568833E0,-7.536827087E-1,-6.888225861E0,6.255491638E-1,6.957514275E0
9.087502833E0,-1.105600891E0,-6.907835083E0,9.901908875E-1,7.065480653E0
9.097436833E0,-1.167272644E0,-7.077432404E0,7.658074951E-1,7.213808701E0
9.107369833E0,-1.200204163E0,-7.107519836E0,6.724017334E-1,7.239437295E0
9.117303833E0,-1.280137939E0,-6.939868469E0,5.825885010E-1,7.080955930E0
9.127237833E0,-1.552870789E0,-7.425458679E0,2.502795410E-1,7.590222930E0
9.137171833E0,-1.727108459E0,-8.364605713E0,-8.008346558E-1,8.578512022E0
9.147105833E0,-1.001716919E0,-9.262738037E0,-2.239642639E0,9.582157997E0
9.157038833E0,-1.601369934E0,-1.047566574E1,-1.412462769E0,1.069107148E1
9.166972833E0,-2.661016388E0,-1.102457428E1,-5.068460083E-1,1.135249484E1
9.176906833E0,-1.914369049E0,-1.124985580E1,-3.875440979E-1,1.141815462E1
9.186840833E0,-7.906558228E-1,-1.204964264E1,5.538482666E-3,1.207555610E1
9.196774833E0,-5.833369446E-1,-1.303339691E1,8.231382751E-1,1.307238592E1
9.206707833E0,-7.990383911E-1,-1.344174774E1,1.702709198E0,1.357270287E1
9.216641833E0,-7.849676514E-1,-1.338082443E1,2.329605560E0,1.360476750E1
9.226575833E0,-6.195616150E-1,-1.298040710E1,2.320175171E0,1.320068324E1
9.236509833E0,-2.380050659E-1,-1.241757751E1,1.410666504E0,1.249971431E1
9.246443833E0,-2.013313293E-1,-1.225681183E1,5.128335571E-1,1.226918778E1
9.256376833E0,-2.010918274E0,-1.243209732E1,9.430389404E-2,1.259403547E1
9.266310833E0,-4.534969482E0,-1.225187210E1,-1.441502380E-1,1.306503339E1
9.276244833E0,-5.618566132E0,-1.189187073E1,-1.958227844E0,1.329735053E1
9.286178833E0,-5.761967926E0,-1.184456909E1,-4.022285614E0,1.377217749E1
9.296112833E0,-4.487967224E0,-1.189845703E1,-5.662424927E0,1.392042333E1
9.306045833E0,-3.057092743E0,-1.117336487E1,-6.789131927E0,1.342692112E1
9.315979833E0,-2.336640930E0,-1.017703674E1,-5.763464813E0,1.192683924E1
9.325913833E0,-2.355651398E0,-9.379794617E0,-4.274211731E0,1.057348223E1
9.335847833E0,-3.021466827E0,-8.493338013E0,-2.605781250E0,9.383823757E0
9.345780458E0,-3.088826752E0,-8.050708466E0,-1.966460724E0,8.844304680E0
9.355714458E0,-2.570903778E0,-8.435258789E0,-2.474204865E0,9.158866021E0
9.365648458E0,-2.343526611E0,-9.917775879E0,-3.506158905E0,1.077717707E1
9.375582458E0,-2.755769348E0,-1.215442474E1,-4.208648071E0,1.315435381E1
9.385516458E0,-3.959715729E0,-1.409573776E1,-4.415218506E0,1.529259056E1
9.395449458E0,-4.454436951E0,-1.547856216E1,-4.124073944E0,1.662636103E1
9.405383458E0,-4.206552429E0,-1.560968948E1,-3.461401978E0,1.653296080E1
9.415317458E0,-3.650009766E0,-1.468700821E1,-2.874322815E0,1.540430177E1
9.425251458E0,-3.435056763E0,-1.356314529E1,-2.424358521E0,1.419986054E1
9.435185458E0,-3.639531555E0,-1.242940292E1,-2.293979645E0,1.315289282E1
9.445118458E0,-4.068539429E0,-1.107786346E1,-2.122735748E0,1.199074973E1
9.455052458E0,-4.212689667E0,-9.871821442E0,-1.840572510E0,1.088978053E1
9.464986458E0,-4.096980286E0,-8.790619812E0,-1.736987915E0,9.852784944E0
9.474920458E0,-3.751947784E0,-8.072563019E0,-1.681902466E0,9.059369833E0
9.484854458E0,-3.376229095E0,-7.559579773E0,-1.551523590E0,8.423383803E0
9.494787458E0,-3.276985474E0,-7.125332794E0,-1.350491638E0,7.958192564E0
9.504721458E0,-3.008593597E0,-6.769373016E0,-1.031205597E0,7.479266772E0
9.514655458E0,-2.753374329E0,-6.624025269E0,-5.704637146E-1,7.196124638E0
9.524589458E0,-2.500999146E0,-6.613547058E0,-3.547622681E-1,7.079537957E0
9.534523458E0,-2.221380615E0,-6.265820160E0,-8.773255920E-1,6.705574868E0
9.544456458E0,-1.481020203E0,-5.648952942E0,-1.332229614E0,5.989901996E0
9.554390458E0,-8.532257080E-1,-5.054988098E0,-1.404080200E0,5.315293030E0
9.564324458E0,-7.840695190E-1,-4.651277618E0,-1.131646729E0,4.850749717E0
9.574258458E0,-8.391549683E-1,-4.643044739E0,-8.397537231E-1,4.792413987E0
9.584192458E0,-8.921447754E-1,-4.580325165E0,-9.309141541E-1,4.758350773E0
9.594125458E0,-1.311273193E0,-4.494703217E0,-1.007704468E0,4.789286240E0
9.604059458E0,-1.770817566E0,-4.368815002E0,-6.370751953E-1,4.756911202E0
9.613993458E0,-2.133363647E0,-4.289030914E0,-2.377056885E-1,4.796199603E0
9.623927458E0,-2.390079803E0,-4.364324341E0,9.939331055E-2,4.976915455E0
9.633861458E0,-2.632425842E0,-4.583468628E0,5.379812622E-1,5.312934624E0
9.643794458E0,-2.714604950E0,-5.026696930E0,1.069525909E0,5.812112157E0
9.653728458E0,-2.583777008E0,-5.580694885E0,1.609004059E0,6.356803685E0
9.663662458E0,-2.337539063E0,-6.377338257E0,1.649569702E0,6.989678985E0
9.673596458E0,-1.913171539E0,-7.493866425E0,9.397457886E-1,7.791109130E0
9.683530458E0,-1.480122070E0,-8.717721405E0,-1.507365417E-1,8.843763302E0
9.693463458E0,-1.862576752E0,-1.021071671E1,-6.557862854E-1,1.039990305E1
9.703397458E0,-2.803819427E0,-1.160731247E1,-6.477030945E-1,1.195870501E1
9.713331458E0,-3.849694519E0,-1.206521027E1,-4.644841003E-1,1.267301038E1
9.723265458E0,-4.579726410E0,-1.131661697E1,-4.544549561E-1,1.221663796E1
9.733199458E0,-5.390590210E0,-1.002929398E1,-1.691632233E0,1.151116067E1
9.743132458E0,-6.474336548E0,-9.250613251E0,-2.815345459E0,1.163688314E1
9.753066458E0,-7.167844391E0,-9.883347473E0,-2.270478516E0,1.241827779E1
9.763000458E0,-6.545887756E0,-1.121946899E1,-5.763015747E-1,1.300220191E1
9.772934458E0,-3.587739258E0,-1.216265762E1,2.129022675E0,1.285826003E1
9.782868458E0,3.793112183E-1,-1.264211060E1,4.126918030E0,1.330407042E1
9.792801458E0,2.315085754E0,-1.291559189E1,4.535867615E0,1.388330764E1
9.802735458E0,3.239114227E0,-1.297337173E1,4.648732910E0,1.415665754E1
9.812669458E0,2.777174835E0,-1.282757492E1,4.861440582E0,1.399617744E1
9.822603458E0,1.038540344E0,-1.315150131E1,5.031486969E0,1.411936309E1
9.832536458E0,1.526824951E-1,-1.363260086E1,4.913532257E0,1.449185693E1
9.842470458E0,-2.850073242E-1,-1.413765060E1,3.314557343E0,1.452379717E1
9.852404458E0,-1.764081573E0,-1.477861771E1,-2.177970886E-1,1.488512548E1
9.862338458E0,-4.711302795E0,-1.494746658E1,-3.963457947E0,1.616577032E1
9.872272458E0,-7.015910339E0,-1.450438797E1,-6.585854645E0,1.740614115E1
9.882205458E0,-8.580905914E0,-1.330373474E1,-5.992638245E0,1.692728618E1
9.892139458E0,-7.620353394E0,-1.108025848E1,-3.884571991E0,1.399756455E1
9.902073458E0,-5.514981537E0,-8.299042053E0,-3.493585052E0,1.055908409E1
9.912007458E0,-4.007616119E0,-7.914491730E0,-3.819607086E0,9.658652318E0
9.921941458E0,-2.264041901E0,-8.540040894E0,-4.761598206E0,1.003648353E1
9.931874458E0,3.695814514E-1,-8.026608582E0,-3.741469574E0,8.863499892E0
9.941808458E0,2.214345245E0,-6.811585236E0,-3.356919250E0,7.910115368E0
9.951742458E0,2.327210541E0,-6.393654327E0,-4.423601074E0,8.115600472E0
9.961676458E0,1.016087036E0,-7.370073853E0,-4.239783325E0,8.563070950E0
9.971610458E0,-1.670376434E0,-9.219328308E0,-4.115691376E0,1.023352761E1
9.981543458E0,-5.438939667E0,-1.001507355E1,-5.060376892E0,1.246961014E1
9.991477458E0,-7.367229767E0,-9.491911469E0,-4.575385437E0,1.285716180E1
1.000141146E1,-8.361462250E0,-9.454788666E0,-2.670746155E0,1.290116137E1
1.001134546E1,-8.346343689E0,-1.023481659E1,-7.217990112E-1,1.322625863E1
1.002127946E1,-6.596033478E0,-1.044138702E1,7.798782349E-2,1.235055880E1
1.003121246E1,-4.359833679E0,-9.905651093E0,-5.367837524E-1,1.083596835E1
1.004114646E1,-3.058439941E0,-9.363628235E0,-1.574875031E0,9.975561135E0
1.005108046E1,-1.790127411E0,-8.906329193E0,-1.963017883E0,9.294121532E0
1.006101446E1,-1.243464203E0,-8.222850494E0,-1.665736084E0,8.481518153E0
1.007094846E1,-1.463057556E0,-7.554640045E0,-1.337468719E0,7.810374268E0
1.008088146E1,-2.023043060E0,-6.992409210E0,-1.146765289E0,7.368959249E0
1.009081546E1,-2.486778717E0,-6.464307404E0,-9.352551270E-1,6.988994259E0
1.010074946E1,-2.257455597E0,-6.122268677E0,-7.735913086E-1,6.570899713E0
1.011068346E1,-2.190844116E0,-6.047274628E0,-7.990383911E-1,6.481341737E0
1.012061746E1,-2.242187347E0,-6.285279694E0,-6.815327454E-1,6.707952878E0
1.013055046E1,-1.718127136E0,-6.779102783E0,-7.223977661E-1,7.030651032E0
1.014048446E1,-1.110241241E0,-7.395071869E0,-7.340734863E-1,7.513892962E0
1.015041846E1,-7.238946533E-1,-7.754773865E0,-8.921447754E-1,7.839417291E0
1.016035246E1,-5.668711853E-1,-7.859256592E0,-8.925938416E-1,7.930068151E0
1.017028646E1,-3.565585327E-1,-7.954159241E0,-1.073417816E0,8.034177557E0
1.018021946E1,-1.905537415E-1,-7.965236206E0,-1.000818787E0,8.030126823E0
1.019015346E1,-1.079255676E-1,-7.862849121E0,-8.008346558E-1,7.904263430E0
1.020008746E1,-1.649569702E-1,-7.719147949E0,-4.143383789E-1,7.732019927E0
1.021002146E1,-7.185058594E-3,-7.732170868E0,-1.486408997E-1,7.733602787E0
1.021995546E1,5.807922363E-2,-7.829318848E0,1.830693054E-1,7.831674226E0
1.022988846E1,4.805007935E-2,-8.030500488E0,4.802014160E-1,8.044988521E0
1.023982246E1,1.945953369E-2,-8.284671936E0,4.715194702E-1,8.298102095E0
1.024975646E1,-2.514770508E-1,-8.356223145E0,3.761677551E-1,8.368465100E0
1.025969046E1,-7.249424744E-1,-8.206983490E0,3.682342529E-1,8.247164122E0
1.026962346E1,-9.807604980E-1,-8.040529633E0,1.047821045E-1,8.100801640E0
1.027955746E1,-1.127455444E0,-8.227191467E0,-5.569917297E-1,8.322744440E0
1.028949146E1,-1.270707550E0,-8.618926849E0,-1.469643860E0,8.835182555E0
1.029942546E1,-8.846603394E-1,-9.237290955E0,-2.572700043E0,9.629587406E0
1.030935946E1,-8.485853577E-1,-1.008497818E1,-2.972967682E0,1.054824245E1
1.031929246E1,-8.590635681E-1,-1.087892715E1,-2.272274780E0,1.114685063E1
1.032922646E1,-4.646337891E-1,-1.152558243E1,-1.350042572E0,1.161367943E1
1.033916046E1,-5.605842590E-1,-1.182376236E1,-3.864962769E-1,1.184335216E1
1.034909521E1,-8.159532166E-1,-1.179981216E1,3.733236694E-1,1.183388006E1
1.035902921E1,-1.388961639E0,-1.172077652E1,1.229393463E0,1.186664337E1
1.036896221E1,-2.293829956E0,-1.179247742E1,1.823807373E0,1.215115027E1
1.037889621E1,-2.974464569E0,-1.185699326E1,2.263592834E0,1.243219937E1
1.038883021E1,-3.008443909E0,-1.191192902E1,2.300416260E0,1.249946809E1
1.039876421E1,-2.975213013E0,-1.228016327E1,1.983525238E0,1.279017884E1
1.040869821E1,-2.647993469E0,-1.274165359E1,1.349443817E0,1.308367702E1
1.041863121E1,-2.642454987E0,-1.322634567E1,5.954617310E-1,1.350086526E1
1.042856521E1,-3.618724823E0,-1.312410828E1,6.481521606E-2,1.361402176E1
1.043849921E1,-4.639152832E0,-1.252909561E1,-3.260220337E-1,1.336436554E1
1.044843321E1,-4.887935486E0,-1.210906906E1,-1.420845337E0,1.313545844E1
1.045836721E1,-3.581452332E0,-1.187046524E1,-2.821632385E0,1.271598817E1
1.046830021E1,-2.269281006E0,-1.171359146E1,-4.249962158E0,1.266570328E1
1.047823421E1,-1.516197052E0,-1.167886368E1,-5.080584869E0,1.282603029E1
1.048816821E1,-1.094673615E0,-1.148531616E1,-6.308331757E0,1.314936680E1
1.049810221E1,-9.966275024E-1,-1.104328537E1,-7.136110382E0,1.318603388E1
1.050803621E1,-1.393751678E0,-1.016251694E1,-6.159990234E0,1.196514830E1
1.051796921E1,-2.002685394E0,-8.951984253E0,-3.822151794E0,9.937686612E0
1.052790321E1,-1.335073700E0,-8.395890656E0,-1.623374176E0,8.654983847E0
1.053783721E1,-8.831634521E-3,-8.756939850E0,-6.267466736E-1,8.779344220E0
1.054777121E1,3.938310242E-1,-1.011042526E1,-7.958949280E-1,1.014934730E1
1.055770521E1,-2.606080627E-1,-1.194530960E1,-1.668280792E0,1.206405814E1
1.056763821E1,-1.333127747E0,-1.355102051E1,-2.577789459E0,1.385829661E1
1.057757221E1,-3.055745544E0,-1.393781616E1,-3.151246948E0,1.461268824E1
1.058750621E1,-4.747228088E0,-1.314266968E1,-3.659290466E0,1.444494193E1
1.059744021E1,-5.562432861E0,-1.223196350E1,-3.867058411E0,1.398269399E1
1.060737421E1,-6.011499023E0,-1.157512939E1,-3.761378174E0,1.357459785E1
1.061730721E1,-6.438261566E0,-1.102502335E1,-3.425476685E0,1.321878369E1
1.062724121E1,-5.953569489E0,-1.049841843E1,-2.424657898E0,1.231018867E1
1.063717521E1,-4.736450500E0,-9.756261749E0,-1.935624847E0,1.101658977E1
1.064710921E1,-3.843407593E0,-8.804540863E0,-1.937271423E0,9.800241951E0
1.065704321E1,-2.795287170E0,-8.255482635E0,-2.386636963E0,9.036739451E0
1.066697621E1,-1.878294067E0,-7.731272736E0,-2.524051208E0,8.346939632E0
1.067691021E1,-1.108894043E0,-6.918612671E0,-2.199376373E0,7.343984186E0
1.068684421E1,-4.463717651E-1,-6.108796692E0,-1.747017059E0,6.369357376E0
1.069677821E1,-1.537303162E-1,-5.354814606E0,-1.355581055E0,5.525873005E0
1.070671221E1,-1.875599670E-1,-4.789440308E0,-1.494492188E0,5.020699563E0
1.071664521E1,-4.912783813E-1,-4.681365051E0,-1.535806274E0,4.951286106E0
1.072657921E1,-9.532177734E-1,-4.744683380E0,-1.346000977E0,5.023182570E0
1.073651321E1,-1.475930786E0,-4.951852570E0,-1.148411865E0,5.293209364E0
1.074644721E1,-1.757644958E0,-5.091961212E0,-1.170565796E0,5.512495721E0
1.075638121E1,-1.841021576E0,-5.232219543E0,-1.328038330E0,5.703434720E0
1.076631421E1,-1.911974030E0,-5.143753510E0,-1.372196503E0,5.656568580E0
1.077624821E1,-1.907483368E0,-5.150040436E0,-1.124761047E0,5.605934062E0
1.078618221E1,-1.930984497E0,-5.250930634E0,-6.870712280E-1,5.636757979E0
1.079611621E1,-1.933229828E0,-5.365442505E0,-2.615061951E-1,5.709092426E0
1.080605021E1,-1.924697571E0,-5.439538422E0,1.273851013E-1,5.771418018E0
1.081598321E1,-2.053429871E0,-5.624703369E0,7.831713867E-1,6.038809456E0
1.082591721E1,-1.998943176E0,-6.030808868E0,1.288969574E0,6.482890713E0
1.083585121E1,-1.825304260E0,-6.613696747E0,1.419049072E0,7.006170179E0
1.084578521E1,-1.673519897E0,-7.278164978E0,1.388811951E0,7.596127496E0
1.085571921E1,-1.658850403E0,-8.137677612E0,1.139430542E0,8.382832668E0
1.086565221E1,-1.988315277E0,-9.228309631E0,7.066804504E-1,9.466493202E0
1.087558621E1,-2.741099854E0,-1.030981064E1,4.480183411E-1,1.067738471E1
1.088552021E1,-3.731590118E0,-1.106424179E1,-2.450404358E-1,1.167913764E1
1.089545421E1,-4.787045288E0,-1.145702499E1,-1.504970398E0,1.250776400E1
1.090538821E1,-5.482349396E0,-1.168769531E1,-1.903441772E0,1.304919412E1
1.091532121E1,-5.617069244E0,-1.174158325E1,-1.536554718E0,1.310638183E1
1.092525521E1,-5.676645355E0,-1.189456512E1,-1.350042572E0,1.324868284E1
1.093518921E1,-5.334756317E0,-1.262953674E1,-6.780899048E-1,1.372678510E1
1.094512321E1,-3.481609955E0,-1.307321411E1,9.235794067E-1,1.356036629E1
1.095505721E1,-1.278940430E0,-1.258358231E1,2.351609802E0,1.286515841E1
1.096499021E1,-2.224374390E-1,-1.210562622E1,3.614533539E0,1.263568428E1
1.097492421E1,2.073188782E-1,-1.220097794E1,4.659660187E0,1.306213140E1
1.098485821E1,-4.745132446E-1,-1.276425659E1,4.600832520E0,1.357641591E1
1.099479221E1,-1.590891724E0,-1.356389374E1,3.604354706E0,1.412450079E1
1.100472521E1,-2.694396973E0,-1.454315735E1,1.994153137E0,1.492447143E1
1.101465921E1,-3.993994446E0,-1.591834763E1,1.953437805E-1,1.641291997E1
1.102459321E1,-4.624633026E0,-1.682815567E1,-3.475772095E0,1.779480389E1
1.103452721E1,-5.656736755E0,-1.697485062E1,-7.019802246E0,1.922034983E1
1.104446121E1,-7.706424408E0,-1.502994507E1,-6.575077057E0,1.812511694E1
1.105439421E1,-7.959548035E0,-1.135718262E1,-2.632725220E0,1.411634669E1
1.106432821E1,-5.496270447E0,-7.973918152E0,-6.635700989E-1,9.707352100E0
1.107426221E1,-4.752616882E0,-6.173761597E0,-5.418731689E-1,7.810014470E0
1.108419621E1,-4.485272827E0,-5.302573242E0,-6.420149231E-1,6.974750066E0
1.109413021E1,-1.692680054E0,-4.644691315E0,-1.857337646E0,5.280911503E0
1.110406421E1,-4.558021545E-1,-5.406157837E0,-5.016967163E0,7.389469377E0
1.111399721E1,-1.485660553E0,-7.010371857E0,-7.619904327E0,1.046018369E1
1.112393121E1,-2.193837891E0,-8.188721466E0,-6.701863403E0,1.080662098E1
1.113386521E1,-2.019151154E0,-8.359815674E0,-5.949976959E0,1.045780643E1
1.114379921E1,-2.557431793E0,-8.302933960E0,-6.146368561E0,1.064222797E1
1.115373221E1,-3.791315918E0,-8.349936218E0,-5.320535889E0,1.060205704E1
1.116366621E1,-5.121000824E0,-9.068442078E0,-3.479214935E0,1.098026538E1
1.117360021E1,-5.528453522E0,-9.315428467E0,-1.479822693E0,1.093301793E1
1.118353421E1,-4.615651703E0,-1.012299911E1,-6.966513062E-1,1.114740664E1
1.119346821E1,-3.840114441E0,-1.100376755E1,-6.204597473E-1,1.167109033E1
1.120340121E1,-3.277883606E0,-1.116513199E1,-4.544549561E-1,1.164522316E1
1.121333521E1,-2.483485565E0,-1.042282562E1,-7.012916565E-1,1.073754183E1
1.122326921E1,-2.159409485E0,-9.709409180E0,-1.098415833E0,1.000710714E1
1.123320321E1,-1.975741425E0,-8.893905029E0,-1.343156891E0,9.209189502E0
1.124313721E1,-1.939367065E0,-8.016130371E0,-1.658101959E0,8.412418965E0
1.125307021E1,-1.985171814E0,-7.260501709E0,-1.889371033E0,7.760509977E0
1.126300421E1,-2.167043610E0,-6.731651459E0,-2.018702087E0,7.354343444E0
1.127293821E1,-2.076781311E0,-6.194119263E0,-2.087708588E0,6.858473679E0
1.128287221E1,-1.905836792E0,-5.861660614E0,-1.733096008E0,6.402726045E0
1.129280621E1,-1.809137878E0,-5.710774384E0,-1.142873383E0,6.098531257E0
1.130273921E1,-1.671723633E0,-5.726940765E0,-8.623567200E-1,6.027949033E0
1.131267321E1,-1.445993042E0,-6.040838013E0,-1.102008362E0,6.308489693E0
1.132260721E1,-1.671873322E0,-6.580316162E0,-1.349593506E0,6.922219574E0
1.133254121E1,-1.892813873E0,-7.212152252E0,-1.239422607E0,7.558707090E0
1.134247521E1,-2.034419403E0,-7.889044647E0,-1.121168518E0,8.223922823E0
1.135240733E1,-1.979932709E0,-8.408763885E0,-7.845185852E-1,8.674267290E0
1.136234133E1,-1.784738617E0,-8.629854126E0,-5.562432861E-1,8.830010236E0
1.137227533E1,-1.471290436E0,-8.623866577E0,-3.005749512E-1,8.753634422E0
1.138220933E1,-1.020577698E0,-8.444838867E0,2.993774414E-3,8.506285399E0
1.139214333E1,-8.961863708E-1,-8.276888123E0,-5.239105225E-3,8.325266029E0
1.140207633E1,-6.496490479E-1,-8.139922943E0,-1.119671631E-1,8.166573703E0
1.141201033E1,-5.448669434E-1,-8.184530182E0,-7.978408813E-2,8.203034791E0
1.142194433E1,-7.303312683E-1,-8.151598663E0,3.191363525E-1,8.190469617E0
1.143187833E1,-9.382489014E-1,-7.992928619E0,4.975653076E-1,8.063174942E0
1.144181233E1,-1.217867432E0,-7.915389862E0,1.404080200E-1,8.009763552E0
1.145174533E1,-1.582209778E0,-7.865244141E0,-4.444258118E-1,8.035108430E0
1.146167933E1,-1.529070282E0,-7.959398346E0,-1.151705017E0,8.186360755E0
1.147161333E1,-1.258582764E0,-8.475375366E0,-2.220183105E0,8.851284155E0
1.148154733E1,-1.692081299E0,-9.371711426E0,-2.733465729E0,9.907772154E0
1.149148133E1,-1.972897339E0,-1.037791901E1,-2.302511902E0,1.081180317E1
1.150141433E1,-1.048569489E0,-1.107591751E1,-1.608554993E0,1.124112520E1
1.151134833E1,-2.371069336E-1,-1.163769928E1,-6.761439514E-1,1.165973563E1
1.152128233E1,-4.531077576E-1,-1.207673630E1,3.147953796E-1,1.208933259E1
1.153121633E1,-9.289682007E-1,-1.211610443E1,1.210832062E0,1.221184191E1
1.154115033E1,-1.003812561E0,-1.191507248E1,1.802701263E0,1.209240769E1
1.155108333E1,-6.918612671E-1,-1.209484863E1,1.451830902E0,1.220130519E1
1.156101733E1,-7.696994019E-1,-1.281021103E1,6.390211487E-1,1.284921366E1
1.157095133E1,-1.262923737E0,-1.383932098E1,-7.918533325E-2,1.389705192E1
1.158088533E1,-3.244503021E0,-1.418270691E1,4.526586914E-1,1.455612844E1
1.159081933E1,-5.663772125E0,-1.328487396E1,7.185058594E-1,1.445968331E1
1.160075233E1,-6.254294128E0,-1.241368561E1,-1.217268677E0,1.395340562E1
1.161068633E1,-4.525688782E0,-1.241548187E1,-3.694167938E0,1.372125817E1
1.162062033E1,-2.525398407E0,-1.280078064E1,-5.710774384E0,1.424256178E1
1.163055433E1,-1.123713226E0,-1.282757492E1,-6.435567169E0,1.439534420E1
1.164048833E1,-1.413061523E-1,-1.245964005E1,-6.392606506E0,1.400457123E1
1.165042133E1,-1.226848755E0,-1.156749527E1,-5.812562714E0,1.300376830E1
1.166035533E1,-3.064577179E0,-1.001926483E1,-3.764072571E0,1.113308328E1
1.167028933E1,-3.673510895E0,-8.577463074E0,-2.252665558E0,9.599065433E0
1.168022333E1,-3.385659485E0,-7.865543518E0,-1.546434174E0,8.701777039E0
1.169015733E1,-3.404669952E0,-8.245752869E0,-1.684596863E0,9.078660939E0
1.170009033E1,-3.827091522E0,-9.524244232E0,-2.457888794E0,1.055457602E1
1.171002433E1,-4.256398773E0,-1.098370926E1,-2.726130981E0,1.209093006E1
1.171995833E1,-4.033661957E0,-1.243464203E1,-2.682122498E0,1.334483167E1
1.172989233E1,-3.497027893E0,-1.350252136E1,-3.030148773E0,1.427336992E1
1.173982633E1,-3.022364960E0,-1.377959518E1,-3.362607422E0,1.450238126E1
1.174975933E1,-2.354154510E0,-1.328532303E1,-3.205134888E0,1.386775905E1
1.175969333E1,-1.774709473E0,-1.230755630E1,-2.570754089E0,1.269780739E1
1.176962733E1,-1.352886658E0,-1.125614273E1,-2.317181396E0,1.157153322E1
1.177956133E1,-1.610201569E0,-1.026295807E1,-2.163600769E0,1.061141959E1
1.178949533E1,-1.303339691E0,-9.205257568E0,-1.813329163E0,9.472255481E0
1.179942833E1,-1.489253082E0,-8.162076874E0,-1.517244873E0,8.434417920E0
1.180936233E1,-1.642384644E0,-7.399562531E0,-1.461410980E0,7.719240572E0
1.181929633E1,-1.582509155E0,-6.800208893E0,-1.598076782E0,7.162473429E0
1.182923033E1,-1.529519348E0,-6.219416656E0,-1.800306244E0,6.652944878E0
1.183916433E1,-1.647324371E0,-5.786367188E0,-1.589993591E0,6.222845204E0
1.184909733E1,-1.538650360E0,-5.366190948E0,-1.249751129E0,5.720605572E0
1.185903133E1,-1.537003784E0,-5.059778137E0,-1.016685791E0,5.384922045E0
1.186896533E1,-1.757046204E0,-4.952451324E0,-1.159339142E0,5.381268691E0
1.187889933E1,-2.212698669E0,-5.063819733E0,-1.671124878E0,5.773297502E0
1.188883333E1,-2.675087128E0,-5.331463165E0,-1.798360291E0,6.230143687E0
1.189876633E1,-2.850222931E0,-5.695655823E0,-1.573677521E0,6.560543190E0
1.190870033E1,-2.861299896E0,-6.085445251E0,-1.233884125E0,6.836823169E0
1.191863433E1,-2.745889893E0,-6.435716858E0,-9.328601074E-1,7.058936942E0
1.192856833E1,-2.438728638E0,-6.620133362E0,-7.135661316E-1,7.091032345E0
1.193850233E1,-2.100432129E0,-6.682553558E0,-4.999603271E-1,7.022698735E0
1.194843533E1,-1.873054962E0,-6.670129395E0,-1.854643250E-1,6.930610222E0
1.195836933E1,-1.964215393E0,-6.517895966E0,2.146536255E-1,6.810813909E0
1.196830333E1,-2.001038818E0,-6.225553894E0,5.352868652E-1,6.561113447E0
1.197823733E1,-2.182910614E0,-5.922434235E0,3.956272888E-1,6.324306046E0
1.198817133E1,-2.255659332E0,-5.838309174E0,2.460882568E-1,6.263737898E0
1.199810433E1,-1.981429596E0,-6.203250275E0,4.653822327E-1,6.528626030E0
1.200803833E1,-1.966610413E0,-6.466103668E0,4.960684204E-1,6.776734984E0
1.201797233E1,-1.720971222E0,-6.969057770E0,3.535647583E-1,7.187107637E0
1.202790633E1,-1.452579346E0,-8.039481812E0,1.056802368E-1,8.170337990E0
1.203784033E1,-1.463955688E0,-9.317374420E0,-6.518943787E-1,9.454184186E0
1.204777333E1,-2.203717346E0,-1.061143341E1,-1.325792999E0,1.091863619E1
1.205770733E1,-3.663182373E0,-1.191282715E1,-1.276844788E0,1.252855492E1
1.206764133E1,-5.066364441E0,-1.280841476E1,-8.448431396E-1,1.379990208E1
1.207757533E1,-5.473667450E0,-1.296319290E1,-8.589138794E-1,1.409762883E1
1.208750933E1,-5.390440521E0,-1.288475601E1,-1.160985718E0,1.401505171E1
1.209744233E1,-5.094805298E0,-1.318158875E1,-6.084846497E-1,1.414501949E1
1.210737633E1,-3.856280823E0,-1.332873276E1,7.698490906E-1,1.389671495E1
1.211731033E1,-2.066003723E0,-1.302112244E1,2.348316650E0,1.339151194E1
1.212724433E1,-7.610174561E-1,-1.252176086E1,3.655847626E0,1.306670825E1
1.213717833E1,1.474433899E-1,-1.195967972E1,4.604275360E0,1.281620186E1
1.214711233E1,1.664538574E-1,-1.171868088E1,4.899760895E0,1.270286760E1
1.215704533E1,-2.558180237E-1,-1.194201645E1,4.791086884E0,1.286979849E1
1.216697933E1,-6.936575317E-1,-1.249017654E1,3.929029541E0,1.311193899E1
1.217691333E1,-1.156045990E0,-1.349533630E1,2.456990662E0,1.376580355E1
1.218684733E1,-2.194736023E0,-1.445993042E1,6.331832886E-1,1.463924093E1
1.219678033E1,-3.013832703E0,-1.466605179E1,-2.131268005E0,1.512344425E1
1.220671433E1,-4.479584656E0,-1.473371109E1,-4.859644318E0,1.614822170E1
1.221664833E1,-7.062912598E0,-1.426159286E1,-5.479056244E0,1.683145338E1
1.222658233E1,-7.987390137E0,-1.227462479E1,-3.870650940E0,1.514749991E1
1.223651633E1,-6.187532959E0,-9.622739410E0,-2.774330750E0,1.177198322E1
1.224644933E1,-5.318889313E0,-8.414152679E0,-2.838247833E0,1.035104824E1
1.225638333E1,-6.308481445E0,-8.043972473E0,-2.999163208E0,1.065351638E1
1.226631733E1,-4.903952179E0,-7.045099640E0,-2.723436584E0,9.005514019E0
1.227625133E1,-2.533032532E0,-5.986051941E0,-2.786904602E0,7.072192652E0
1.228618533E1,-2.499502258E0,-5.205574951E0,-3.072810059E0,6.541229530E0
1.229611933E1,-2.388882294E0,-5.394781494E0,-3.115471344E0,6.672075215E0
1.230605233E1,-2.073338470E0,-6.695127411E0,-3.126099243E0,7.674370329E0
1.231598633E1,-2.098635864E0,-7.904761963E0,-4.117038574E0,9.156393439E0
1.232592033E1,-2.009122009E0,-8.959319000E0,-5.170098724E0,1.053735683E1
1.233585433E1,-2.579735413E0,-9.825567627E0,-4.837191010E0,1.125145461E1
1.234578846E1,-3.490740967E0,-1.030442184E1,-3.200344849E0,1.134057270E1
1.235572146E1,-3.877686310E0,-1.080243622E1,-1.404080200E0,1.156289413E1
1.236565546E1,-3.986210632E0,-1.087668182E1,-6.165678406E-1,1.160052751E1
1.237558946E1,-3.640279999E0,-1.034573593E1,-6.276448059E-1,1.098543711E1
1.238552346E1,-3.416645050E0,-9.803713074E0,-5.995033264E-1,1.039931044E1
1.239545746E1,-3.041076050E0,-9.304650879E0,-4.837939453E-1,9.800955469E0
1.240539046E1,-2.880460052E0,-8.822653198E0,-3.674858093E-1,9.288234783E0
1.241532446E1,-2.711461487E0,-8.059689789E0,-5.420228577E-1,8.520822241E0
1.242525846E1,-2.508633270E0,-7.407496033E0,-1.199904785E0,7.912269577E0
1.243519246E1,-2.216141510E0,-6.977440338E0,-2.047442322E0,7.601840364E0
1.244512546E1,-2.153571625E0,-6.600374451E0,-2.089355164E0,7.250394378E0
1.245505946E1,-2.036365356E0,-6.389163666E0,-1.343905334E0,6.839172301E0
1.246499346E1,-1.854194183E0,-6.337521057E0,-6.128256226E-1,6.631573302E0
1.247492746E1,-1.593436432E0,-6.454128571E0,-2.842588806E-1,6.653992664E0
1.248486146E1,-1.139729919E0,-6.827901306E0,-3.710783386E-1,6.932309836E0
1.249479546E1,-7.159611511E-1,-7.529492340E0,-4.668791199E-1,7.577851370E0
1.250472846E1,-6.014492798E-1,-8.500972137E0,-5.257067871E-1,8.538421174E0
1.251466246E1,-5.565426636E-1,-9.319020996E0,-5.315446472E-1,9.350744985E0
1.252459646E1,-5.598358154E-1,-9.798923035E0,-4.526586914E-1,9.825335041E0
1.253453046E1,-6.054908752E-1,-9.849966888E0,1.016386414E-1,9.869082901E0
1.254446446E1,-6.653663635E-1,-9.549541626E0,5.857319641E-1,9.590596415E0
1.255439746E1,-4.367916870E-1,-8.975784760E0,6.625222778E-1,9.010795459E0
1.256433146E1,-3.308120728E-1,-8.407566376E0,6.301895142E-1,8.437638758E0
1.257426546E1,-3.905378723E-1,-8.028255157E0,7.803273010E-1,8.075537840E0
1.258419946E1,-8.891510010E-2,-8.071365509E0,8.719367981E-1,8.118812774E0
1.259413346E1,-7.170089722E-2,-8.124205627E0,1.079405365E0,8.195912032E0
1.260406646E1,-2.854563904E-1,-8.191116486E0,1.221759338E0,8.286650138E0
1.261400046E1,-5.794450378E-1,-8.358318787E0,1.359023895E0,8.487885216E0
1.262393446E1,-1.152453461E0,-8.456813965E0,1.477577362E0,8.661933172E0
1.263386846E1,-1.433419189E0,-8.547525330E0,1.284329224E0,8.761528485E0
1.264380246E1,-1.283880157E0,-8.795559540E0,3.793112183E-1,8.896858596E0
1.265373546E1,-1.186732178E0,-9.371861115E0,-7.385641479E-1,9.475525896E0
1.266366946E1,-1.457818451E0,-9.990374908E0,-1.506616974E0,1.020797336E1
1.267360346E1,-1.554966431E0,-1.051922516E1,-1.337169342E0,1.071727766E1
1.268353746E1,-1.090332642E0,-1.070453979E1,-5.969586182E-1,1.077647239E1
1.269347146E1,-3.215313721E-1,-1.058553726E1,1.802252197E-1,1.059195273E1
1.270340446E1,1.460961914E-1,-1.057146652E1,1.000968475E0,1.061975454E1
1.271333846E1,-1.071771240E-1,-1.076845688E1,2.013612671E0,1.095562807E1
1.272327246E1,-7.530839539E-1,-1.096380066E1,2.596799927E0,1.129227303E1
1.273320646E1,-1.284029846E0,-1.122126526E1,2.366878052E0,1.153982835E1
1.274314046E1,-1.939816132E0,-1.181822388E1,1.614841919E0,1.208474314E1
1.275307346E1,-2.679877167E0,-1.282158737E1,1.128203888E0,1.314715514E1
1.276300746E1,-4.339026947E0,-1.359757370E1,1.557511139E0,1.435782039E1
1.277294146E1,-6.135740662E0,-1.300076477E1,1.535207520E0,1.445766441E1
1.278287546E1,-6.220913544E0,-1.207943069E1,-3.418890381E-1,1.359151571E1
1.279280946E1,-4.688550110E0,-1.222462875E1,-2.530188446E0,1.333513794E1
1.280274246E1,-2.034120026E0,-1.260423935E1,-4.639901276E0,1.358429894E1
1.281267646E1,-5.059478760E-2,-1.259600647E1,-6.382577362E0,1.412087931E1
1.282261046E1,5.629792786E-1,-1.236818024E1,-7.398365021E0,1.442305907E1
1.283254446E1,-3.996688843E-1,-1.170880142E1,-7.230264587E0,1.376708001E1
1.284247846E1,-2.016606445E0,-1.046593597E1,-5.607638855E0,1.204359294E1
1.285241146E1,-3.015030212E0,-8.972491608E0,-2.769690399E0,9.862413383E0
1.286234546E1,-2.912643127E0,-7.915090485E0,-7.384144592E-1,8.466250840E0
1.287227946E1,-2.163900146E0,-7.988437958E0,-3.751199341E-1,8.284824670E0
1.288221346E1,-1.817370758E0,-9.231004028E0,-1.220112762E0,9.486988300E0
1.289214746E1,-2.622696075E0,-1.077160034E1,-2.103126526E0,1.128401745E1
1.290208046E1,-4.001478882E0,-1.188528442E1,-2.437231750E0,1.277544198E1
1.291201446E1,-4.219575348E0,-1.255723709E1,-2.589914246E0,1.349802487E1
1.292194846E1,-4.154011688E0,-1.260453873E1,-3.049608307E0,1.361728021E1
1.293188246E1,-4.003574524E0,-1.227103226E1,-3.529660034E0,1.338152987E1
1.294181646E1,-4.035458221E0,-1.153561157E1,-3.524570618E0,1.271919241E1
1.295174946E1,-3.874692535E0,-1.052311707E1,-3.079396362E0,1.162892587E1
1.296168346E1,-3.453318787E0,-9.597442017E0,-2.452949066E0,1.049062739E1
1.297161746E1,-2.966531067E0,-8.979077911E0,-1.934726715E0,9.652321699E0
1.298155146E1,-2.464475098E0,-8.520281982E0,-1.678908691E0,9.027046968E0
1.299148446E1,-1.935624847E0,-7.941136322E0,-1.629511414E0,8.334482412E0
1.300141846E1,-1.711091766E0,-7.383545837E0,-1.489103394E0,7.724118920E0
1.301135246E1,-1.494492188E0,-6.823260956E0,-1.240919495E0,7.094383565E0
1.302128646E1,-1.290167084E0,-6.255940704E0,-8.671467590E-1,6.446182491E0
1.303122046E1,-1.315015411E0,-5.836213531E0,-6.985972595E-1,6.023179563E0
1.304115446E1,-1.477876740E0,-5.638474731E0,-7.929011536E-1,5.882619246E0
1.305108746E1,-1.795366516E0,-5.577701111E0,-9.833052063E-1,5.941462761E0
1.306102146E1,-2.188000031E0,-5.572611694E0,-1.035247192E0,6.075613712E0
1.307095546E1,-2.481090546E0,-5.699547729E0,-1.059646454E0,6.305831049E0
1.308088946E1,-2.536026306E0,-6.016438751E0,-9.662406921E-1,6.600195887E0
1.309082346E1,-2.612367554E0,-6.528224487E0,-5.553451538E-1,7.053409632E0
1.310075646E1,-2.456242218E0,-7.014712830E0,-2.050735474E-1,7.435144725E0
1.311069046E1,-2.276316376E0,-7.301815796E0,-6.945556641E-2,7.648722392E0
1.312062446E1,-2.297721863E0,-7.572453003E0,-1.493893433E-1,7.914789158E0
1.313055846E1,-1.978735199E0,-7.505991211E0,-4.815486145E-1,7.777350842E0
1.314049246E1,-1.362915802E0,-7.185956726E0,-4.662803650E-1,7.328910624E0
1.315042546E1,-6.059399414E-1,-6.995103607E0,-2.628533936E-1,7.026217303E0
1.316035946E1,-9.401948547E-1,-6.924151154E0,7.783813477E-3,6.987696054E0
1.317029346E1,-1.533261566E0,-7.081324310E0,3.749702454E-1,7.255111833E0
1.318022746E1,-1.510957947E0,-7.200626221E0,4.885839844E-1,7.373650805E0
1.319016146E1,-1.188229065E0,-7.246131592E0,5.528004456E-1,7.363687914E0
1.320009446E1,-7.550299072E-1,-7.357500000E0,6.626719666E-1,7.425766664E0
1.321002846E1,-5.405259705E-1,-7.755671997E0,5.999523926E-1,7.797599587E0
1.321996246E1,-9.090596008E-1,-8.496032410E0,5.388793945E-2,8.544697770E0
1.322989646E1,-1.580563202E0,-9.437275085E0,-6.635700989E-1,9.591697782E0
1.323982946E1,-3.258573761E0,-1.073537567E1,-1.305734711E0,1.129475705E1
1.324976346E1,-5.138963470E0,-1.230635880E1,-6.489006042E-1,1.335202173E1
1.325969746E1,-5.198838959E0,-1.286679337E1,-4.385879517E-1,1.388433136E1
1.326963146E1,-3.681743774E0,-1.247745300E1,-1.644031219E0,1.311277657E1
1.327956546E1,-3.057392120E0,-1.273686356E1,-1.706301727E0,1.320934538E1
1.328949946E1,-2.610571289E0,-1.317410431E1,8.382568359E-2,1.343052991E1
1.329943246E1,-1.368005219E0,-1.282143768E1,1.650018768E0,1.299935631E1
1.330936646E1,-6.483018494E-1,-1.228719864E1,2.747686157E0,1.260735202E1
1.331930046E1,-1.153351593E0,-1.207254501E1,3.508703613E0,1.262487877E1
1.332923446E1,-1.977537689E0,-1.198737213E1,4.083208923E0,1.281718928E1
1.333916746E1,-2.737357635E0,-1.234198471E1,4.152963867E0,1.330657064E1
1.334910183E1,-2.741848297E0,-1.326077408E1,3.391946411E0,1.395962613E1
1.335903583E1,-2.632126465E0,-1.469913300E1,1.400337982E0,1.499845149E1
1.336896983E1,-3.282973022E0,-1.598241440E1,-1.410367126E0,1.637695385E1
1.337890383E1,-4.709656219E0,-1.667173096E1,-4.726720734E0,1.795743199E1
1.338883683E1,-7.313491516E0,-1.643896500E1,-7.595654755E0,1.952999487E1
1.339877083E1,-9.119485931E0,-1.396984955E1,-5.609135742E0,1.760068532E1
1.340870483E1,-7.251670074E0,-9.747879181E0,-9.574090576E-1,1.218706279E1
1.341863883E1,-4.556973724E0,-6.268364868E0,9.108558655E-1,7.803080549E0
1.342857283E1,-4.320615234E0,-5.721402283E0,1.291663971E0,7.284954077E0
1.343850583E1,-3.305126953E0,-6.222260742E0,1.199006653E-1,7.046614016E0
1.344843983E1,-1.448238373E0,-6.375392303E0,-2.350262604E0,6.947427993E0
1.345837383E1,-1.180894318E0,-6.255042572E0,-4.623585205E0,7.867503360E0
1.346830783E1,-1.490001526E0,-6.311774597E0,-6.422244873E0,9.127093312E0
1.347824183E1,-2.124082947E0,-6.722071381E0,-6.271358643E0,9.435460309E0
1.348817583E1,-3.028951263E0,-7.510182495E0,-4.482428741E0,9.255784909E0
1.349810883E1,-3.132535858E0,-8.169411621E0,-4.651427307E0,9.908977905E0
1.350804283E1,-2.459984436E0,-8.791068878E0,-5.766308899E0,1.079744107E1
1.351797683E1,-2.638563080E0,-9.379345551E0,-4.731959839E0,1.083169340E1
1.352791083E1,-3.301384735E0,-9.858948212E0,-2.057920532E0,1.059872813E1
1.353784383E1,-3.651955719E0,-1.071606583E1,1.951940918E-1,1.132293902E1
1.354777783E1,-4.051175537E0,-1.065619034E1,7.756869507E-1,1.142664019E1
1.355771183E1,-3.894301758E0,-9.662556610E0,5.162763977E-1,1.043058616E1
1.356764583E1,-3.638034668E0,-9.093739471E0,2.101629639E-1,9.796711810E0
1.357757983E1,-3.694317627E0,-8.683742065E0,-2.451901245E-1,9.440099427E0
1.358751283E1,-3.911815338E0,-8.268505554E0,-1.295855255E0,9.238491445E0
1.359744683E1,-3.732488251E0,-7.909552002E0,-2.532733154E0,9.105340117E0
1.360738083E1,-3.338058472E0,-7.615563354E0,-2.807711334E0,8.776256748E0
1.361731483E1,-2.631976776E0,-7.290140076E0,-1.913171539E0,7.983336985E0
1.362724883E1,-2.192640381E0,-6.816824341E0,-8.328680420E-1,7.209052303E0
1.363718283E1,-1.159488831E0,-6.475084991E0,-5.683680725E-1,6.602589057E0
1.364711583E1,-3.867956543E-1,-6.543941803E0,-1.041234741E0,6.637541336E0
1.365704983E1,-6.661148071E-2,-7.208110657E0,-1.517394562E0,7.366395495E0
1.366698383E1,-2.896476746E-1,-8.040529633E0,-1.624122620E0,8.208031849E0
1.367691783E1,-7.077282715E-1,-8.541986847E0,-1.575473785E0,8.714845739E0
1.368685083E1,-9.199868774E-1,-8.831784210E0,-1.237476654E0,8.965385472E0
1.369678483E1,-1.232985992E0,-8.985813904E0,-8.349636841E-1,9.108362659E0
1.370671883E1,-1.545985107E0,-8.928183746E0,-1.685494995E-1,9.062612421E0
1.371665283E1,-1.704505463E0,-8.734336853E0,7.185058594E-2,8.899389959E0
1.372658683E1,-1.704056396E0,-8.538843384E0,4.296066284E-2,8.707324512E0
1.373651983E1,-1.375190277E0,-8.355175323E0,-1.356179810E-1,8.468677301E0
1.374645383E1,-1.073417816E0,-8.201894073E0,-2.257305908E-1,8.274916707E0
1.375638783E1,-9.942324829E-1,-8.029003601E0,-9.969268799E-2,8.090941582E0
1.376632183E1,-9.229806519E-1,-8.005502472E0,1.167572021E-2,8.058542017E0
1.377625583E1,-8.312214661E-1,-8.237220612E0,3.613485718E-1,8.286935822E0
1.378618883E1,-1.046922913E0,-8.426876221E0,6.087840271E-1,8.513454552E0
1.379612283E1,-1.154549103E0,-8.526868286E0,4.279600525E-1,8.615312891E0
1.380605683E1,-1.332079926E0,-8.576564941E0,1.492396545E-1,8.680678291E0
1.381599083E1,-1.307530975E0,-8.687933350E0,-3.547622681E-2,8.785845531E0
1.382592483E1,-9.515711975E-1,-9.134454803E0,-4.352947998E-1,9.194195662E0
1.383585783E1,-5.393284607E-1,-1.009216324E1,-1.159788208E0,1.017289254E1
1.384579183E1,-3.972738647E-1,-1.110795090E1,-1.890718231E0,1.127471574E1
1.385572583E1,-9.560618591E-1,-1.176209061E1,-1.385668488E0,1.188195720E1
1.386565983E1,-1.303639069E0,-1.159204422E1,-6.878196716E-1,1.168537804E1
1.387559383E1,-1.661544800E0,-1.081890198E1,-1.959425354E-1,1.094750038E1
1.388552683E1,-2.008373566E0,-1.017509079E1,5.273533630E-1,1.038480325E1
1.389546083E1,-2.227667542E0,-9.810898132E0,1.119072876E0,1.012267499E1
1.390539483E1,-2.359842682E0,-9.762698364E0,1.588496704E0,1.016869995E1
1.391532883E1,-2.353855133E0,-1.005414230E1,1.777703247E0,1.047791202E1
1.392526283E1,-2.742746429E0,-1.069136719E1,1.227447510E0,1.110561199E1
1.393519583E1,-3.521876221E0,-1.154219788E1,2.987786865E-1,1.207125564E1
1.394512983E1,-5.048701172E0,-1.225127335E1,9.265731812E-2,1.325110061E1
1.395506383E1,-7.330705719E0,-1.231189728E1,3.824546814E-1,1.433416661E1
1.396499783E1,-8.039332123E0,-1.223091568E1,-2.803669739E-1,1.463915179E1
1.397493183E1,-5.339097290E0,-1.293430298E1,-2.842289429E0,1.427868210E1
1.398486483E1,-2.659220123E0,-1.414348846E1,-5.757327576E0,1.550021092E1
1.399479883E1,-1.684297485E0,-1.488070541E1,-6.641239471E0,1.638225605E1
1.400473283E1,-2.472857666E-1,-1.512215332E1,-6.483766937E0,1.645539137E1
1.401466683E1,7.006929016E-1,-1.444181808E1,-6.164480896E0,1.571807574E1
1.402460083E1,-5.840853882E-1,-1.249332001E1,-4.740492096E0,1.337521835E1
1.403453383E1,-1.952988739E0,-9.374405823E0,-2.684517517E0,9.944862183E0
1.404446783E1,-2.251318359E0,-6.828649750E0,-2.001338196E0,7.463527741E0
1.405440183E1,-2.761307831E0,-5.637426910E0,-2.304008789E0,6.686842275E0
1.406433583E1,-3.807931366E0,-5.896538086E0,-2.585124207E0,7.480131673E0
1.407426983E1,-4.709356842E0,-7.213200073E0,-2.546654205E0,8.982969710E0
1.408420283E1,-5.386847992E0,-8.635542297E0,-2.610870667E0,1.050749103E1
1.409413683E1,-5.770949249E0,-9.963281250E0,-3.126248932E0,1.193081141E1
1.410407083E1,-5.332660675E0,-1.144819336E1,-3.402723999E0,1.307963806E1
1.411400483E1,-3.990551605E0,-1.254675888E1,-3.099604340E0,1.352601965E1
1.412393883E1,-2.457888794E0,-1.288730072E1,-2.671943665E0,1.338891408E1
1.413387183E1,-1.172661438E0,-1.260079651E1,-2.102827148E0,1.282876025E1
1.414380583E1,-1.418450317E0,-1.203706879E1,-2.456990662E0,1.236688438E1
1.415373983E1,-2.443219299E0,-1.134371063E1,-2.414928131E0,1.185246680E1
1.416367383E1,-2.294578400E0,-1.037267990E1,-2.179018707E0,1.084461622E1
1.417360783E1,-2.047442322E0,-9.365424500E0,-2.188000031E0,9.833134813E0
1.418354083E1,-1.909878387E0,-8.382119293E0,-2.255659332E0,8.887944550E0
1.419347483E1,-1.385219421E0,-7.371121674E0,-2.336191864E0,7.855575090E0
1.420340883E1,-7.246430969E-1,-6.484515381E0,-2.206561432E0,6.887885067E0
1.421334283E1,-5.869294739E-1,-5.887407074E0,-2.073937225E0,6.269550532E0
1.422327683E1,-1.043480072E0,-5.383704529E0,-1.827848969E0,5.780497986E0
1.423320983E1,-1.666783905E0,-5.175637207E0,-1.489103394E0,5.637625209E0
1.424314383E1,-2.277364197E0,-5.388644257E0,-1.372795258E0,6.009029991E0
1.425307783E1,-2.766397247E0,-5.669310608E0,-1.201251984E0,6.421607496E0
1.426301183E1,-2.971171417E0,-6.051914978E0,-1.184187469E0,6.845132172E0
1.427294583E1,-3.049308929E0,-6.491401062E0,-1.278191986E0,7.284939770E0
1.428287883E1,-2.688259735E0,-6.933880920E0,-1.058299255E0,7.511687050E0
1.429281283E1,-2.560275879E0,-7.280410309E0,-6.137237549E-1,7.741837230E0
1.430274683E1,-2.570604401E0,-7.516619110E0,-4.965174866E-1,7.959528846E0
1.431268083E1,-2.533331909E0,-7.607031097E0,-5.544470215E-1,8.036921312E0
1.432261483E1,-2.395917664E0,-7.451953583E0,-2.122586060E-1,7.830522803E0
1.433254783E1,-2.242636414E0,-7.148684235E0,2.954855347E-1,7.498027479E0
1.434248183E1,-2.176024933E0,-6.703210602E0,6.505471802E-1,7.077522767E0
1.435241608E1,-2.165097656E0,-6.219117279E0,7.033872986E-1,6.622674783E0
1.436235008E1,-2.156266022E0,-5.767207031E0,7.476951599E-1,6.202355049E0
1.437228408E1,-2.147284698E0,-5.525310059E0,9.376501465E-1,6.001589008E0
1.438221708E1,-2.122586060E0,-5.601202240E0,1.241667938E0,6.117236090E0
1.439215108E1,-2.108515320E0,-6.158193970E0,1.411414948E0,6.660426561E0
1.440208508E1,-2.004032593E0,-7.233108673E0,1.417103119E0,7.638205873E0
1.441201908E1,-1.929936676E0,-8.477171631E0,1.096469879E0,8.762952735E0
1.442195308E1,-2.229463806E0,-9.678124237E0,-4.655319214E-2,9.931705030E0
1.443188608E1,-2.513872375E0,-1.079435303E1,-1.632355499E0,1.120277627E1
1.444182008E1,-3.061882782E0,-1.187944656E1,-1.841770020E0,1.240518011E1
1.445175408E1,-3.544479218E0,-1.271755371E1,-5.725593567E-1,1.321466343E1
1.446168808E1,-3.989952850E0,-1.323921890E1,2.442919922E-1,1.382954517E1
1.447162208E1,-4.751119995E0,-1.403047348E1,7.914042664E-1,1.483420534E1
1.448155508E1,-4.719236298E0,-1.400592453E1,1.635498962E0,1.486983423E1
1.449148908E1,-3.462599487E0,-1.290451492E1,2.371518402E0,1.356982683E1
1.450142308E1,-2.345173187E0,-1.191447372E1,3.318598938E0,1.258839228E1
1.451135708E1,-1.848056946E0,-1.172362061E1,5.316494293E0,1.300475706E1
1.452129108E1,-1.762734375E0,-1.250215164E1,6.639742584E0,1.426524482E1
1.453122408E1,-1.504671021E0,-1.357048004E1,4.719535675E0,1.444631373E1
1.454115808E1,-1.798060913E0,-1.409334274E1,-3.427871704E-2,1.420762147E1
1.455109208E1,-4.382885742E0,-1.655422531E1,-5.082979889E0,1.786305538E1
1.456102608E1,-9.229507141E0,-1.812775314E1,-8.389004974E0,2.200396875E1
1.457096008E1,-1.155267609E1,-1.525238251E1,-6.840325470E0,2.031968379E1
1.458089308E1,-9.193731537E0,-1.040127045E1,-2.314636688E0,1.407368713E1
1.459082708E1,-7.112459564E0,-7.447013855E0,1.284329224E0,1.037760078E1
1.460076108E1,-5.023254089E0,-6.372847595E0,2.318229218E0,8.439221221E0
1.461069508E1,-2.260299683E0,-6.155948639E0,2.784210205E-1,6.563701438E0
1.462062908E1,2.408491516E-1,-6.261628876E0,-2.575394440E0,6.774855055E0
1.463056208E1,2.439926147E-2,-6.722670135E0,-5.258415070E0,8.534976164E0
1.464049608E1,-1.602567444E0,-7.153773651E0,-6.945107574E0,1.009847608E1
1.465043008E1,-2.499502258E0,-7.697143707E0,-6.207142181E0,1.019912481E1
1.466036408E1,-2.524051208E0,-8.004604340E0,-4.752766571E0,9.645377920E0
1.467029808E1,-2.759212189E0,-8.272696838E0,-4.654271393E0,9.884988977E0
1.468023108E1,-3.582649841E0,-8.955726471E0,-4.757257233E0,1.075508777E1
1.469016508E1,-4.389771423E0,-9.594448242E0,-3.414399719E0,1.108970945E1
1.470009908E1,-4.102818146E0,-9.994566193E0,-1.269360352E0,1.087822347E1
1.471003308E1,-3.327280884E0,-1.031325348E1,8.547225952E-2,1.083703377E1
1.471996708E1,-2.564167786E0,-1.062774948E1,1.893562317E-1,1.093434366E1
1.472990008E1,-2.192341003E0,-1.079120956E1,1.034349060E-1,1.101214156E1
1.473983408E1,-2.296973419E0,-1.027313690E1,-6.885681152E-2,1.052702094E1
1.474976808E1,-2.360441437E0,-9.432035980E0,-4.999603271E-1,9.735756100E0
1.475970208E1,-2.573598175E0,-8.621920624E0,-1.238823853E0,9.082709251E0
1.476963608E1,-2.969973907E0,-7.889493713E0,-1.639241180E0,8.587896583E0
1.477956908E1,-3.242407379E0,-7.262148285E0,-1.588796082E0,8.110257475E0
1.478950308E1,-2.985541534E0,-6.801107025E0,-1.276695099E0,7.536475662E0
1.479943708E1,-2.570903778E0,-6.584806824E0,-7.400610352E-1,7.107525412E0
1.480937108E1,-1.999990997E0,-6.538852386E0,-3.906875610E-1,6.849028493E0
1.481930508E1,-1.507664795E0,-6.719676361E0,-6.198609924E-1,6.914573825E0
1.482923808E1,-1.441801758E0,-6.994355164E0,-9.108558655E-1,7.199267662E0
1.483917208E1,-1.548230438E0,-7.388186188E0,-7.708969116E-1,7.587924267E0
1.484910608E1,-1.570534058E0,-7.777975616E0,-7.595205688E-1,7.971220321E0
1.485904008E1,-1.520837402E0,-8.313711548E0,-8.509803772E-1,8.494404847E0
1.486897408E1,-1.506916351E0,-8.762178955E0,-9.199868774E-1,8.938285786E0
1.487890708E1,-1.337319031E0,-9.061107330E0,-4.406835938E-1,9.169857702E0
1.488884108E1,-1.071172485E0,-9.122928772E0,-7.753875732E-2,9.185926852E0
1.489877508E1,-8.274792480E-1,-8.945697327E0,6.092330933E-2,8.984093400E0
1.490870908E1,-5.188211060E-1,-8.679700470E0,3.028202820E-1,8.700464109E0
1.491864308E1,-2.721340942E-1,-8.452023926E0,4.077520752E-1,8.466228627E0
1.492857608E1,-3.534150696E-1,-8.327632599E0,4.239184570E-1,8.345901615E0
1.493851008E1,-5.498066711E-1,-8.350834351E0,6.818321228E-1,8.396643185E0
1.494844408E1,-6.689588928E-1,-8.346194000E0,1.140178986E0,8.450234814E0
1.495837808E1,-7.701484680E-1,-8.421487427E0,1.448986816E0,8.579868410E0
1.496831208E1,-8.373587036E-1,-8.530610504E0,1.106049957E0,8.642675030E0
1.497824508E1,-1.004561005E0,-8.682544556E0,6.592291260E-1,8.765289831E0
1.498817908E1,-1.133143616E0,-8.831784210E0,1.757345581E-1,8.905914295E0
1.499811308E1,-9.725276184E-1,-9.171427917E0,-8.086184692E-1,9.258226820E0
1.500804708E1,-6.761439514E-1,-9.353748779E0,-1.559008026E0,9.506855048E0
1.501798108E1,-8.607101440E-1,-9.562115479E0,-1.588646393E0,9.731324254E0
1.502791408E1,-7.822732544E-1,-9.607171783E0,-1.370849304E0,9.735960607E0
1.503784808E1,-3.553610229E-1,-9.520801392E0,-9.945318604E-1,9.579197994E0
1.504778208E1,-4.481680298E-1,-9.678872681E0,-1.279838562E-1,9.690088277E0
1.505771608E1,-7.361691284E-1,-1.010024643E1,7.764353943E-1,1.015676006E1
1.506765008E1,-1.020428009E0,-1.069615723E1,1.184037781E0,1.080976402E1
1.507758308E1,-1.463207245E0,-1.138667130E1,1.471589813E0,1.157423152E1
1.508751708E1,-2.135159912E0,-1.194920151E1,1.229094086E0,1.220053264E1
1.509745108E1,-3.091670837E0,-1.255454269E1,6.204597473E-1,1.294449463E1
1.510738508E1,-4.459376678E0,-1.315718948E1,-7.828720093E-2,1.389258091E1
1.511731908E1,-7.011419678E0,-1.326526474E1,-1.556762695E-2,1.500424929E1
1.512725208E1,-8.533454590E0,-1.277608200E1,-6.855743408E-2,1.536401050E1
1.513718608E1,-6.895859985E0,-1.243973145E1,-2.362088013E0,1.441801870E1
1.514712008E1,-4.621190186E0,-1.319476135E1,-4.566553802E0,1.470749943E1
1.515705408E1,-2.344574432E0,-1.390757904E1,-5.614973602E0,1.518043848E1
1.516698808E1,5.658233643E-1,-1.411594574E1,-5.620063019E0,1.520411749E1
1.517692108E1,2.270029449E0,-1.395997009E1,-5.684578857E0,1.524297331E1
1.518685508E1,1.615889740E0,-1.318967194E1,-6.217620392E0,1.467096959E1
1.519678908E1,-1.682501221E-1,-1.162677200E1,-5.289400635E0,1.277450173E1
1.520672308E1,-1.954036560E0,-9.525741119E0,-4.132157135E0,1.056563890E1
1.521665708E1,-3.728895721E0,-7.646848297E0,-3.746858368E0,9.296122837E0
1.522659008E1,-5.635031891E0,-6.486012268E0,-2.837200012E0,9.048295058E0
1.523652408E1,-7.012766876E0,-6.440656586E0,-1.772464142E0,9.685173496E0
1.524645808E1,-7.070546722E0,-7.213349762E0,-1.354832611E0,1.019120293E1
1.525639208E1,-6.525530090E0,-8.471932526E0,-1.275347900E0,1.076952626E1
1.526632608E1,-5.939498749E0,-9.966125336E0,-1.555265808E0,1.170556070E1
1.527625908E1,-5.081183624E0,-1.154878418E1,-2.378404083E0,1.283937884E1
1.528619308E1,-3.661236420E0,-1.273312134E1,-3.495231628E0,1.370232372E1
1.529612708E1,-2.001188507E0,-1.306004150E1,-4.136049042E0,1.384472250E1
1.530606108E1,-5.812413025E-1,-1.289313858E1,-3.929628296E0,1.349121353E1
1.531599408E1,2.460882568E-1,-1.244721588E1,-3.072061615E0,1.282307706E1
1.532592808E1,6.548881531E-1,-1.162018570E1,-2.006577301E0,1.181033220E1
1.533586208E1,7.578739929E-1,-1.045201492E1,-1.605561218E0,1.060173645E1
1.534579608E1,3.617976379E-1,-9.202862549E0,-1.859882355E0,9.395889473E0
1.535572933E1,-2.029779053E-1,-8.056696014E0,-2.245330811E0,8.366185579E0
1.536566333E1,-6.490502930E-1,-6.903194733E0,-2.243833923E0,7.287671403E0
1.537559633E1,-1.176703033E0,-5.896538086E0,-2.056423645E0,6.354736000E0
1.538553033E1,-1.664089508E0,-5.169350281E0,-1.764081573E0,5.709935202E0
1.539546433E1,-2.094294891E0,-4.719984741E0,-1.427880707E0,5.357533981E0
1.540539833E1,-2.334994354E0,-4.534071350E0,-1.176852722E0,5.234021778E0
1.541533133E1,-2.644400940E0,-4.627626801E0,-1.212628326E0,5.466100401E0
1.542526533E1,-2.935246124E0,-4.886737976E0,-1.338516541E0,5.855553295E0
1.543519933E1,-3.104544067E0,-5.202281799E0,-1.253193970E0,6.186471119E0
1.544513333E1,-3.153641968E0,-5.679639130E0,-1.160836029E0,6.599340769E0
1.545506733E1,-3.169359283E0,-6.256988525E0,-8.659492493E-1,7.067150188E0
1.546500033E1,-3.173849945E0,-6.816375275E0,-3.085084534E-1,7.525388550E0
1.547493433E1,-3.042872314E0,-7.221732330E0,-1.055305481E-1,7.837322660E0
1.548486833E1,-2.710713043E0,-7.420518951E0,-1.971400452E-1,7.902590139E0
1.549480233E1,-2.276765442E0,-7.419920197E0,-2.565664673E-1,7.765610276E0
1.550473633E1,-2.010319519E0,-7.192842407E0,-2.011816406E-1,7.471200741E0
1.551467033E1,-1.885479126E0,-6.914122009E0,1.399589539E-1,7.167963672E0
1.552460333E1,-1.740879822E0,-6.674021301E0,5.093907166E-1,6.916118983E0
1.553453733E1,-1.722617798E0,-6.545289001E0,9.163943481E-1,6.829934025E0
1.554447133E1,-1.769769745E0,-6.568041687E0,1.386716309E0,6.942207046E0
1.555440533E1,-1.727108459E0,-6.779851227E0,1.588496704E0,7.174441307E0
1.556433933E1,-1.630259857E0,-7.363188171E0,1.452729034E0,7.680150317E0
1.557427233E1,-1.604363708E0,-8.224646759E0,9.581575012E-1,8.434267189E0
1.558420633E1,-1.843865662E0,-9.132957916E0,-1.067280579E-1,9.317840509E0
1.559414033E1,-2.433190155E0,-9.875563660E0,-2.245181122E0,1.041575778E1
1.560407433E1,-3.553310852E0,-1.059781174E1,-4.008663940E0,1.187472182E1
1.561400733E1,-5.062322845E0,-1.185055664E1,-2.677781525E0,1.316181291E1
1.562394133E1,-5.676046600E0,-1.290855652E1,-2.511776733E-1,1.410359623E1
1.563387533E1,-5.680387573E0,-1.360401031E1,8.981323242E-2,1.474259021E1
1.564380933E1,-6.188281403E0,-1.433913162E1,8.771759033E-2,1.561772124E1
1.565374333E1,-5.273833008E0,-1.362017670E1,1.247655487E0,1.465875752E1
1.566367633E1,-3.544030151E0,-1.250589386E1,2.620450745E0,1.325987530E1
1.567361033E1,-2.290985870E0,-1.234093689E1,3.740870819E0,1.309738348E1
1.568354433E1,-1.665287018E0,-1.301049454E1,4.540957031E0,1.388043370E1
1.569347833E1,-1.558409271E0,-1.416908524E1,3.932622070E0,1.478705962E1
1.570341233E1,-1.723366241E0,-1.512858994E1,1.630858612E0,1.531352097E1
1.571334633E1,-2.607577515E0,-1.514041534E1,-1.704056396E0,1.545753685E1
1.572327933E1,-3.904480591E0,-1.475676315E1,-4.915328522E0,1.603644231E1
1.573321333E1,-6.620582428E0,-1.502530472E1,-5.950126648E0,1.746413183E1
1.574314733E1,-8.703800354E0,-1.344234650E1,-3.655548248E0,1.642607235E1
1.575308133E1,-7.657027130E0,-9.906698914E0,-7.295828247E-1,1.254213056E1
1.576301433E1,-5.707630920E0,-7.408992920E0,5.631289673E-1,9.369489903E0
1.577294833E1,-3.634442139E0,-6.861880646E0,6.962022400E-1,7.796106286E0
1.578288233E1,-1.523831177E0,-7.187752991E0,-4.791535950E-1,7.363113654E0
1.579281633E1,-4.469705200E-1,-7.073690186E0,-2.573298798E0,7.540473605E0
1.580275033E1,-7.902067566E-1,-6.780150604E0,-5.623805237E0,8.844323280E0
1.581268333E1,-2.509531403E0,-6.985523529E0,-7.732021179E0,1.071818260E1
1.582261733E1,-4.250860291E0,-7.793992310E0,-6.869814148E0,1.122543878E1
1.583255133E1,-3.968397675E0,-8.259673920E0,-3.598816223E0,9.844890633E0
1.584248533E1,-2.611918488E0,-8.055199127E0,-2.492466888E0,8.827272645E0
1.585241933E1,-2.349813538E0,-8.414002991E0,-2.996319122E0,9.235529128E0
1.586235233E1,-2.808459778E0,-9.299262085E0,-3.182082825E0,1.022200434E1
1.587228633E1,-2.571053467E0,-1.022583527E1,-2.362686768E0,1.080556854E1
1.588222033E1,-2.269281006E0,-1.082084793E1,-1.607058105E0,1.117242239E1
1.589215433E1,-2.017654266E0,-1.084749252E1,-1.230590973E0,1.110195374E1
1.590208833E1,-1.972298584E0,-1.077429474E1,-6.066883850E-1,1.097011666E1
1.591202133E1,-2.185155945E0,-1.003198837E1,-3.487747192E-1,1.027313686E1
1.592195533E1,-2.143093414E0,-9.101373596E0,-6.735992432E-1,9.374517943E0
1.593188933E1,-2.145937500E0,-8.316106567E0,-1.328188019E0,8.690613304E0
1.594182333E1,-2.481090546E0,-7.670050049E0,-1.748963013E0,8.248899906E0
1.595175733E1,-2.708767090E0,-7.148684235E0,-1.610201569E0,7.812416689E0
1.596169033E1,-2.744842072E0,-6.815926208E0,-1.285826111E0,7.459514519E0
1.597162433E1,-2.749781799E0,-6.636449432E0,-1.300345917E0,7.300319206E0
1.598155833E1,-2.681374054E0,-6.456074524E0,-1.454076233E0,7.140378335E0
1.599149233E1,-2.028880920E0,-6.223907318E0,-1.319655762E0,6.677939160E0
1.600142633E1,-1.553170166E0,-6.262527008E0,-1.196312256E0,6.562221050E0
1.601135933E1,-1.351539459E0,-6.508315887E0,-1.107696533E0,6.738829736E0
1.602129333E1,-1.388662262E0,-6.972650299E0,-1.225501556E0,7.214436162E0
1.603122733E1,-1.621577911E0,-7.467221832E0,-1.236279144E0,7.740626779E0
1.604116133E1,-1.793420563E0,-7.965236206E0,-1.183888092E0,8.250026433E0
1.605109533E1,-1.806593170E0,-8.283923492E0,-1.034199371E0,8.541471516E0
1.606102833E1,-1.846560059E0,-8.336314545E0,-5.858816528E-1,8.558456727E0
1.607096233E1,-1.741478577E0,-8.276439056E0,-4.978646851E-1,8.472311393E0
1.608089633E1,-1.528022461E0,-8.110434265E0,-5.507048035E-1,8.271473411E0
1.609083033E1,-1.279838562E0,-7.875273285E0,-3.344046021E-1,7.985595939E0
1.610076433E1,-1.176852722E0,-7.724985809E0,-8.532257080E-2,7.814580477E0
1.611069733E1,-1.064885559E0,-7.616162109E0,1.667532349E-1,7.692055198E0
1.612063133E1,-1.192570038E0,-7.519014130E0,1.752854919E-1,7.615019487E0
1.613056533E1,-1.398691406E0,-7.511679382E0,2.903961182E-1,7.646305951E0
1.614049933E1,-1.446292419E0,-7.539671173E0,-7.454498291E-2,7.677496995E0
1.615043333E1,-1.190923462E0,-7.592511292E0,-6.685098267E-1,7.714365288E0
1.616036633E1,-6.566844177E-1,-7.889044647E0,-1.481469269E0,8.053757574E0
1.617030033E1,-8.607101440E-2,-8.783734131E0,-2.333198090E0,9.088740662E0
1.618023433E1,1.219963074E-1,-1.029274612E1,-2.693199463E0,1.063996378E1
1.619016833E1,-1.407073975E-1,-1.170490952E1,-2.078727264E0,1.188889450E1
1.620010233E1,-5.777984619E-2,-1.253762787E1,-1.232686615E0,1.259821286E1
1.621003533E1,-3.570075989E-1,-1.283520905E1,-4.284091187E-1,1.284731801E1
1.621996933E1,-1.535506897E0,-1.271216492E1,8.220904541E-1,1.283092947E1
1.622990333E1,-2.223176880E0,-1.235695358E1,1.788480835E0,1.268209293E1
1.623983733E1,-1.984573059E0,-1.201416641E1,1.711540833E0,1.229667015E1
1.624977133E1,-1.623673553E0,-1.208152634E1,1.041085052E0,1.223451889E1
