"Time (s)","Acceleration x (m/s^2)","Acceleration y (m/s^2)","Acceleration z (m/s^2)","Absolute acceleration (m/s^2)"
1.761500025E-3,-2.211201782E0,6.611002350E0,7.922425232E0,1.055270520E1
1.169550000E-2,-2.193987579E0,6.537505188E0,7.755073242E0,1.037755831E1
2.162849996E-2,-2.378853149E0,6.248755646E0,7.621850281E0,1.013895908E1
3.156249993E-2,-2.634521484E0,6.079906769E0,7.543413391E0,1.004037128E1
4.149550002E-2,-2.642604675E0,6.030808868E0,7.580087128E0,1.004050477E1
5.142949999E-2,-2.678080902E0,6.005960541E0,7.840395813E0,1.023305848E1
6.136249995E-2,-2.826422424E0,5.933062134E0,8.121211853E0,1.044719924E1
7.129649993E-2,-2.886746979E0,5.757177887E0,8.093669128E0,1.034339815E1
8.122950001E-2,-2.711760864E0,5.519921265E0,7.571854248E0,9.754801613E0
9.116349998E-2,-2.645149384E0,5.506299591E0,6.766528931E0,9.116033360E0
1.010964999E-1,-2.681673431E0,5.911656647E0,5.959557037E0,8.812228820E0
1.110305000E-1,-2.379002838E0,6.315067749E0,5.431754608E0,8.662776305E0
1.209635000E-1,-1.831591187E0,6.404880981E0,5.314248962E0,8.521647065E0
1.308975000E-1,-1.331930237E0,6.191873932E0,5.582042084E0,8.442306247E0
1.408314999E-1,-9.060658264E-1,5.982010345E0,5.943540344E0,8.481218950E0
1.507645000E-1,-4.800517273E-1,6.148913269E0,6.333928528E0,8.840714600E0
1.606985000E-1,-1.808239746E-1,6.474486237E0,6.647676086E0,9.281339703E0
1.706315000E-1,-6.885681152E-2,6.664890289E0,6.779252472E0,9.507037809E0
1.805654999E-1,-1.004411316E-1,6.886279907E0,6.700366516E0,9.608634181E0
1.904985000E-1,-1.516346741E-1,7.116650848E0,6.560856628E0,9.680627669E0
2.004325000E-1,1.474433899E-1,7.497458954E0,6.622977448E0,1.000487184E1
2.103655000E-1,1.129700775E0,8.197253723E0,7.057972870E0,1.087594472E1
2.202994999E-1,2.437980194E0,8.962163086E0,7.909851379E0,1.219958456E1
2.302325000E-1,2.869383087E0,9.098080444E0,8.655151520E0,1.288099666E1
2.401665000E-1,2.386636963E0,8.615034943E0,8.654403076E0,1.244240956E1
2.501005000E-1,1.308578796E0,8.091723175E0,7.843988342E0,1.134533012E1
2.600335000E-1,2.157014465E-1,7.790848846E0,6.635251923E0,1.023574232E1
2.699675000E-1,-4.159849548E-1,7.481292572E0,5.563181305E0,9.332297052E0
2.799005000E-1,-5.420228577E-1,7.360942841E0,5.022206268E0,8.927475796E0
2.898344999E-1,-4.227209473E-1,7.411986694E0,5.237009583E0,9.085290811E0
2.997675000E-1,-1.571731567E-2,7.223378906E0,5.934708710E0,9.348701371E0
3.097015000E-1,4.459226990E-1,6.823710022E0,6.775659943E0,9.626600292E0
3.196345000E-1,4.728666687E-1,6.277645569E0,7.539222107E0,9.822031702E0
3.295684999E-1,1.065783691E-1,5.928870850E0,8.006849670E0,9.963559110E0
3.395015000E-1,-3.716770935E-1,6.118077393E0,7.745193787E0,9.877096822E0
3.494355000E-1,-5.905220032E-1,6.590494995E0,6.519991608E0,9.289436532E0
3.593685000E-1,-6.861730957E-1,6.727310486E0,5.157524872E0,8.504563639E0
3.693024999E-1,-1.058448944E0,6.541995850E0,4.631967773E0,8.085366369E0
3.792365000E-1,-9.559121704E-1,6.519093475E0,5.083428955E0,8.321874654E0
3.891695000E-1,-3.390449524E-1,6.630162506E0,6.146967316E0,9.047608166E0
3.991034999E-1,2.148033142E-1,6.774013367E0,7.157964935E0,9.857477343E0
4.090365000E-1,3.860472107E-1,6.814129944E0,7.718100128E0,1.030293497E1
4.189705000E-1,1.592687988E-1,6.644382935E0,7.350614319E0,9.909829564E0
4.289035000E-1,-1.317260742E-1,6.634653168E0,6.371650085E0,9.199668430E0
4.388374999E-1,-2.781216431E-1,6.742728424E0,5.676795044E0,8.818601942E0
4.487705000E-1,-3.876937866E-1,6.874454498E0,5.861660614E0,9.042538154E0
4.587045000E-1,-2.341131592E-1,7.047344971E0,6.585555267E0,9.648285769E0
4.686375000E-1,2.216889954E-1,7.132817230E0,7.323670349E0,1.022557456E1
4.785714999E-1,7.776329041E-1,7.217840424E0,7.518565063E0,1.045135178E1
4.885045000E-1,1.212029572E0,7.387737122E0,7.144792328E0,1.034870682E1
4.984385000E-1,1.444496155E0,7.587870941E0,6.549180908E0,1.012690106E1
5.083725000E-1,1.510808258E0,7.802225189E0,5.873186646E0,9.881881444E0
5.183054999E-1,1.742676086E0,8.079598389E0,5.306165771E0,9.822027553E0
5.282395000E-1,2.108814697E0,8.219856720E0,5.233716431E0,9.970202185E0
5.381725000E-1,2.234104156E0,8.134384460E0,5.801635437E0,1.023808604E1
5.481064999E-1,2.293829956E0,7.949069824E0,6.420747986E0,1.047260100E1
5.580395000E-1,2.309397583E0,7.733518066E0,6.549330597E0,1.039395739E1
5.679735000E-1,2.242486725E0,7.572752380E0,6.032605133E0,9.938191486E0
5.779065000E-1,2.129771118E0,7.677085419E0,5.402565308E0,9.626072794E0
5.878404999E-1,2.284100189E0,7.874375153E0,5.096601562E0,9.653923824E0
5.977735000E-1,2.522704010E0,7.890242157E0,5.006788330E0,9.679250291E0
6.077075000E-1,2.690804443E0,7.774682465E0,4.900209961E0,9.575916334E0
6.176405000E-1,2.752027130E0,7.574698334E0,4.981041870E0,9.474201089E0
6.275744999E-1,2.612666931E0,7.283553772E0,5.105133820E0,9.270306109E0
6.375085000E-1,2.470762024E0,6.955136719E0,5.219496002E0,9.040007205E0
6.474415000E-1,2.372566223E0,6.720275116E0,5.298381958E0,8.880541621E0
6.573755000E-1,2.263293457E0,6.676566010E0,5.342091064E0,8.845166358E0
6.673084999E-1,2.290536804E0,6.644532623E0,5.316194916E0,8.812394738E0
6.772425000E-1,2.368524628E0,6.534960480E0,5.199886780E0,8.680693515E0
6.871755000E-1,2.368674316E0,6.645131378E0,5.212161255E0,8.771260685E0
6.971094999E-1,2.570604401E0,6.856491852E0,5.366190948E0,9.078297902E0
7.070425000E-1,2.714754639E0,6.823710022E0,5.379662933E0,9.103498475E0
7.169765000E-1,2.614163818E0,6.883435822E0,5.033283234E0,8.919051591E0
7.269095000E-1,2.785856781E0,7.366481323E0,5.056934052E0,9.359413822E0
7.368434999E-1,3.360062714E0,7.954907684E0,5.979166260E0,1.050338074E1
7.467765000E-1,3.892954559E0,8.486452332E0,7.635471954E0,1.206131835E1
7.567105000E-1,4.428540802E0,8.770711212E0,8.469836884E0,1.297210413E1
7.666445000E-1,4.604724426E0,8.548573151E0,8.135581970E0,1.266764714E1
7.765774999E-1,4.189936981E0,8.568481750E0,7.524103546E0,1.214852195E1
7.865115000E-1,3.781286774E0,8.602161713E0,6.909032593E0,1.166319198E1
7.964445000E-1,3.608545990E0,8.438551941E0,6.205345917E0,1.107867686E1
8.063785000E-1,3.527115326E0,8.121361542E0,5.359604645E0,1.034999603E1
8.163114999E-1,3.335513763E0,7.815996552E0,4.466112671E0,9.600084195E0
8.262455000E-1,3.073109436E0,8.035739594E0,4.152963867E0,9.553230935E0
8.361785000E-1,3.307821350E0,8.485105133E0,4.946014709E0,1.036348169E1
8.461124999E-1,4.035009155E0,8.928632812E0,6.832691345E0,1.194518538E1
8.560455000E-1,4.771327972E0,9.259145508E0,8.384065247E0,1.337123391E1
8.659795000E-1,5.107528839E0,9.239985352E0,8.639583893E0,1.364208892E1
8.759135000E-1,4.858596497E0,9.145382080E0,7.833659821E0,1.298499902E1
8.858464999E-1,4.309388580E0,9.156309357E0,6.369255066E0,1.195726729E1
8.957805000E-1,3.811374207E0,9.326056366E0,5.010380859E0,1.125192504E1
9.057135000E-1,3.476670227E0,9.342671814E0,4.173171844E0,1.080685503E1
9.156475000E-1,3.089874573E0,9.008117523E0,3.717369690E0,1.022312788E1
9.255804999E-1,2.711012421E0,8.665180664E0,3.554208984E0,9.750248499E0
9.355145000E-1,2.507735138E0,8.381819916E0,3.916605377E0,9.585584922E0
9.454475000E-1,2.258952484E0,8.094866638E0,4.658911743E0,9.609120191E0
9.553815000E-1,2.177521820E0,7.832013245E0,5.231920166E0,9.667213733E0
9.653145000E-1,2.362986145E0,7.561974792E0,5.493126984E0,9.640622923E0
9.752485000E-1,2.276615753E0,7.242988129E0,5.561085663E0,9.411138617E0
9.851815000E-1,1.568887482E0,7.047195282E0,5.110971680E0,8.845699564E0
9.951149999E-1,7.538323975E-1,7.223528595E0,3.942800903E0,8.263976501E0
1.005048000E0,2.528242493E-1,7.713609467E0,2.644400940E0,8.158219624E0
1.014982000E0,5.508544922E-2,8.133037262E0,1.637594604E0,8.296447770E0
1.024916000E0,1.282832336E-1,8.356522522E0,1.387464752E0,8.471893749E0
1.034849000E0,6.117778015E-1,8.502918091E0,1.995051270E0,8.755233732E0
1.044783000E0,1.077160034E0,8.632548523E0,2.946173401E0,9.184830181E0
1.054716000E0,1.666334839E0,8.918154602E0,3.624412994E0,9.769673631E0
1.064650000E0,2.153421936E0,9.149573364E0,4.029320984E0,1.022679551E1
1.074583000E0,2.295476532E0,9.338929596E0,4.301904144E0,1.053523601E1
1.084517000E0,2.500550079E0,9.363628235E0,4.477788391E0,1.067618252E1
1.094450000E0,2.715952148E0,9.198671265E0,4.385131073E0,1.054615208E1
1.104384000E0,2.365530853E0,8.832981720E0,3.989503784E0,9.976644863E0
1.114317000E0,1.677860870E0,8.516390076E0,3.650159454E0,9.416357102E0
1.124251000E0,1.269360352E0,8.245004425E0,3.519181824E0,9.054060657E0
1.134184000E0,1.476828918E0,7.889643402E0,3.391347656E0,8.713709634E0
1.144118000E0,2.099084930E0,7.537276154E0,3.147953796E0,8.433641115E0
1.154052000E0,3.338507538E0,6.700815582E0,3.378474426E0,8.213443340E0
1.163985000E0,2.264940033E0,7.544311523E0,3.297792206E0,8.539439276E0
1.173919000E0,1.611848145E0,7.858657837E0,2.756068726E0,8.482480313E0
1.183852000E0,1.361119537E0,7.241640930E0,2.106419678E0,7.663616223E0
1.193786000E0,7.174580383E-1,6.657405853E0,1.556762695E0,6.874540626E0
1.203719000E0,-3.137475586E-1,6.248007202E0,1.042432251E0,6.342136590E0
1.213653000E0,-8.994795227E-1,5.818400574E0,7.981402588E-1,5.941369920E0
1.223586000E0,-8.984317017E-1,5.476661224E0,1.529369659E0,5.756732515E0
1.233520000E0,-1.264121246E0,5.008285217E0,2.630629578E0,5.796648628E0
1.243453000E0,-1.563947754E0,4.452041931E0,3.564687195E0,5.913848555E0
1.253387000E0,-1.770967255E0,3.803740082E0,4.162843323E0,5.910501515E0
1.263320000E0,-2.010918274E0,2.634222107E0,4.390968933E0,5.501229552E0
1.273254000E0,-2.240540771E0,1.331481171E0,4.638404388E0,5.320494369E0
1.283188000E0,-2.319277039E0,3.484753418E-1,5.364095306E0,5.854400012E0
1.293121000E0,-2.188598785E0,-3.390449524E-1,6.595734100E0,6.957630663E0
1.303055000E0,-1.322499847E0,-7.056326294E-1,8.144563293E0,8.281354629E0
1.312988000E0,-3.671864319E-1,-3.996688843E-1,1.075258987E1,1.076627838E1
1.322922000E0,1.384620667E-1,4.014651489E-1,1.197345108E1,1.198097979E1
1.332855000E0,5.275030518E-1,7.005432129E-1,1.321347244E1,1.324254032E1
1.342789000E0,5.855822754E-1,9.903405762E-1,1.413016617E1,1.417692763E1
1.352722000E0,1.166075134E0,3.194357300E-1,1.359802277E1,1.365166633E1
1.362656000E0,6.768923950E-1,3.757186890E-2,1.391476410E1,1.393126896E1
1.372589000E0,2.433938599E-1,1.303788757E-1,1.344459183E1,1.344742684E1
1.382523000E0,-2.395019531E-2,-6.122268677E-2,1.300690201E1,1.300706814E1
1.392456000E0,1.692979431E-1,-1.954934692E-1,1.281305511E1,1.281566467E1
1.402390000E0,5.017565918E-1,-1.615141296E-1,1.260034744E1,1.261136797E1
1.412323000E0,5.755531311E-1,-2.005828857E-1,1.262863861E1,1.264333849E1
1.422257000E0,2.936892700E-1,-5.686674500E-1,1.315239944E1,1.316796291E1
1.432191000E0,-2.921923828E-1,-8.797206116E-1,1.361463821E1,1.364615911E1
1.442124000E0,-5.355862427E-1,-9.104067993E-1,1.357676697E1,1.361779330E1
1.452058000E0,-9.174421692E-1,-1.135987701E0,1.434152664E1,1.441567045E1
1.461991000E0,-9.571096802E-1,-1.451531525E0,1.508862305E1,1.518846760E1
1.471925000E0,-6.903643799E-1,-2.304757233E0,1.467084183E1,1.486681233E1
1.481858000E0,-3.317102051E-1,-3.305875397E0,1.310704376E1,1.352159162E1
1.491792000E0,6.301895142E-1,-3.426823883E0,1.119372253E1,1.172346727E1
1.501725000E0,1.667682037E0,-2.987637177E0,9.776020660E0,1.035749580E1
1.511659000E0,2.803220673E0,-2.431393890E0,9.621990967E0,1.031273158E1
1.521592000E0,4.169279938E0,-2.028132477E0,1.017643799E1,1.118284877E1
1.531526000E0,4.391417999E0,-1.258283386E0,1.076246933E1,1.169181659E1
1.541459000E0,2.092199249E0,1.021924896E0,1.221834183E1,1.243822757E1
1.551393000E0,-5.888754272E-1,9.653425598E-1,1.514206192E1,1.518422536E1
1.561327000E0,-1.134939880E0,-5.700146484E-1,1.417761749E1,1.423438945E1
1.571260000E0,2.228865051E-1,-2.420765991E0,1.104029160E1,1.130477001E1
1.581194000E0,-8.455915833E-1,-7.545808411E-1,9.515412598E0,9.582666345E0
1.591127000E0,-4.354444885E-1,8.479866028E-1,6.753356323E0,6.820301666E0
1.601061000E0,2.694396973E-1,1.872905273E0,5.498515778E0,5.814984752E0
1.610994000E0,1.617236938E0,2.220033417E0,5.140160980E0,5.827972082E0
1.620928000E0,3.165018311E0,2.534679108E0,6.621181183E0,7.764147045E0
1.630861000E0,5.811963959E0,3.091371460E0,9.821825409E0,1.182386387E1
1.640795000E0,7.863447876E0,2.574795685E0,1.150522476E1,1.417157656E1
1.650728000E0,8.443491669E0,1.487007751E0,1.189606201E1,1.466356147E1
1.660662000E0,7.932903442E0,-2.896476746E-1,1.011761032E1,1.286005021E1
1.670595000E0,3.290307770E0,5.807922363E-1,9.235195312E0,9.821012030E0
1.680529000E0,1.332229614E-1,4.023632813E-1,7.596552887E0,7.608367784E0
1.690462000E0,-2.715353394E-1,-1.003213806E0,6.474486237E0,6.557373057E0
1.700396000E0,4.650828552E-1,-2.282453613E0,5.415288849E0,5.895019073E0
1.710330000E0,5.397775269E-1,-2.392923889E0,4.282743988E0,4.935518269E0
1.720263000E0,9.854008484E-1,-1.215023346E0,2.916834412E0,3.309866999E0
1.730197000E0,8.846603394E-1,6.915618896E-2,9.952803040E-1,1.333412681E0
1.740130000E0,2.327210541E0,-1.356179810E0,-1.288071442E0,2.985675906E0
1.750064000E0,2.006577301E0,-2.606380005E0,-1.812281342E0,3.755520318E0
1.759997000E0,2.126477966E0,-2.961291962E0,-1.116528168E0,3.812845889E0
1.769931000E0,3.729943542E0,-3.099604340E0,-1.170565796E-1,4.851157402E0
1.779864000E0,5.568570099E0,-3.107537842E0,1.501826935E0,6.551431029E0
1.789798000E0,6.675518188E0,-2.008972321E0,3.282074890E0,7.705227346E0
1.799731000E0,6.925947418E0,-7.321275330E-1,3.079845428E0,7.615130086E0
1.809665000E0,7.241341553E0,-3.203338623E-2,2.329306183E0,7.606820684E0
1.819598000E0,7.793842621E0,3.812571716E-1,1.553319855E0,7.956264350E0
1.829532000E0,7.843090210E0,9.734257507E-1,9.973759460E-1,7.965951325E0
1.839465000E0,6.312822418E0,1.080153809E0,7.726931763E-1,6.451008749E0
1.849399000E0,4.429888000E0,3.115022278E-1,8.699908447E-1,4.525243132E0
1.859333000E0,3.862268372E0,-3.986210632E-1,-9.837542725E-1,4.005469785E0
1.869266000E0,2.273771667E0,-1.255439301E0,-1.325643311E0,2.916075380E0
1.879200000E0,1.808688812E0,-2.333347778E0,-5.480104065E-1,3.002695869E0
1.889133000E0,2.068548431E0,-3.123255157E0,-3.562591553E-2,3.746316137E0
1.899067000E0,2.430795135E0,-3.955225067E0,7.183561707E-1,4.697723482E0
1.909000000E0,3.035238190E0,-4.779261475E0,1.393302612E0,5.830549141E0
1.918934000E0,3.744762726E0,-5.519771576E0,1.808090057E0,6.910883864E0
1.928867000E0,5.142106934E0,-5.738317108E0,2.202968903E0,8.013901605E0
1.938801000E0,7.023394775E0,-5.502108307E0,2.527943115E0,9.273174558E0
1.948734000E0,8.188422089E0,-5.445226593E0,2.706970825E0,1.019943332E1
1.958668000E0,8.529712372E0,-6.096222839E0,2.900817719E0,1.087817400E1
1.968601000E0,8.420289917E0,-7.002588043E0,3.089575195E0,1.137905956E1
1.978535000E0,8.361462250E0,-7.473957825E0,3.121159515E0,1.164112251E1
1.988467958E0,9.046737213E0,-7.450905762E0,2.746189270E0,1.203748339E1
1.998401958E0,1.024918671E1,-7.751031647E0,2.336341553E0,1.306073549E1
2.008335958E0,1.084375031E1,-9.032965851E0,3.373684387E0,1.451079388E1
2.018268958E0,1.100586319E1,-1.032253418E1,4.743336182E0,1.581717341E1
2.028202958E0,1.152722900E1,-1.145238464E1,5.565426636E0,1.717579972E1
2.038135958E0,1.092338470E1,-1.203063217E1,5.772146759E0,1.724453891E1
2.048069958E0,1.053179901E1,-1.109822113E1,4.859494629E0,1.605316139E1
2.058002958E0,1.203392532E1,-1.052341644E1,3.413202209E0,1.634648591E1
2.067936958E0,1.432401306E1,-1.106768463E1,1.913021851E0,1.820249010E1
2.077869958E0,1.574740311E1,-1.119207596E1,1.205443268E0,1.935707525E1
2.087803958E0,1.645333511E1,-1.080333435E1,1.196911011E0,1.971945398E1
2.097736958E0,1.679642166E1,-1.038570282E1,1.877096558E0,1.983698806E1
2.107670958E0,1.618778732E1,-1.018646713E1,3.375330963E0,1.942167424E1
2.117603958E0,1.495839386E1,-1.035067566E1,5.992488556E0,1.915202215E1
2.127537958E0,1.649973862E1,-1.080542999E1,4.243226166E0,2.017433171E1
2.137470958E0,1.753633301E1,-1.227178070E1,4.015998688E0,2.177723174E1
2.147404958E0,1.684986053E1,-1.337289093E1,4.120182037E0,2.190269189E1
2.157337958E0,1.620290588E1,-1.346689545E1,3.636238403E0,2.138021660E1
2.167271958E0,1.623613678E1,-1.301633240E1,3.540287933E0,2.110854531E1
2.177205958E0,1.651336029E1,-1.195518906E1,3.836372223E0,2.074452615E1
2.187138958E0,1.675361069E1,-1.024649231E1,4.396507416E0,2.012469511E1
2.197072958E0,1.748558853E1,-8.224796448E0,5.240751801E0,2.002145255E1
2.207005958E0,1.873683655E1,-6.214327240E0,5.945635986E0,2.061643747E1
2.216939958E0,2.005634262E1,-4.495601349E0,6.115682373E0,2.144455366E1
2.226872958E0,2.041948746E1,-4.040996704E0,5.670059052E0,2.157393548E1
2.236806958E0,1.951177505E1,-5.093158722E0,4.646188202E0,2.069388065E1
2.246739958E0,1.771760605E1,-6.856342163E0,3.326382751E0,1.928698562E1
2.256673958E0,1.553394699E1,-8.564889221E0,2.001637573E0,1.785125736E1
2.266606958E0,1.328786774E1,-9.835147705E0,9.756710815E-1,1.656047987E1
2.276540958E0,1.128877487E1,-1.052356613E1,3.182382202E-1,1.543642309E1
2.286473958E0,9.477241974E0,-1.044183609E1,-3.385958862E-1,1.410548487E1
2.296407958E0,8.901090088E0,-9.304052124E0,-1.064286804E-1,1.287657244E1
2.306340958E0,9.709259491E0,-8.354875946E0,7.092251587E-1,1.282874399E1
2.316274958E0,1.021041733E1,-7.487130432E0,1.224004669E0,1.272037466E1
2.326207958E0,1.030591873E1,-6.723418579E0,1.610351257E0,1.241005840E1
2.336141958E0,1.006956024E1,-6.278693390E0,1.906884613E0,1.201891189E1
2.346075958E0,9.830657043E0,-5.940995636E0,2.147733765E0,1.168546137E1
2.356008958E0,9.608968048E0,-5.709876251E0,2.437231750E0,1.144006348E1
2.365942958E0,9.377399597E0,-5.662275238E0,2.636018372E0,1.126701278E1
2.375875958E0,9.232201538E0,-5.891149292E0,2.706671448E0,1.128119034E1
2.385809958E0,8.740923157E0,-6.156547394E0,2.749183044E0,1.103924005E1
2.395742958E0,8.068072357E0,-6.119424591E0,2.471959534E0,1.042361419E1
2.405676958E0,7.731871490E0,-5.905070343E0,2.026186523E0,9.937661915E0
2.415609958E0,7.607929230E0,-5.659431152E0,1.598226471E0,9.615824249E0
2.425543958E0,7.558831329E0,-5.459596710E0,1.329984283E0,9.418704024E0
2.435476958E0,7.522307281E0,-5.458099823E0,1.205592957E0,9.371734892E0
2.445410958E0,7.566615143E0,-5.580994263E0,1.317111053E0,9.493995113E0
2.455343958E0,7.566615143E0,-5.746549988E0,1.569486237E0,9.630149974E0
2.465277958E0,7.370223541E0,-5.920188904E0,1.781595154E0,9.619922713E0
2.475210958E0,7.106172638E0,-6.014792175E0,1.851649475E0,9.492313746E0
2.485144958E0,6.799161072E0,-6.086642761E0,1.822310486E0,9.305730863E0
2.495078958E0,6.512357483E0,-6.234834595E0,1.856289825E0,9.204877746E0
2.505011958E0,6.197262726E0,-6.348747711E0,1.867067413E0,9.066344551E0
2.514945958E0,5.825136566E0,-6.422993317E0,1.779948578E0,8.851851563E0
2.524878958E0,5.474864960E0,-6.495742035E0,1.707798615E0,8.665182457E0
2.534812958E0,5.134323120E0,-6.498137054E0,1.627864838E0,8.440201598E0
2.544745958E0,4.771028595E0,-6.672225037E0,9.574090576E-1,8.258203975E0
2.554679958E0,4.626429291E0,-6.800059204E0,5.192701721E-1,8.241012964E0
2.564612958E0,4.755610657E0,-6.963219910E0,3.882925415E-1,8.441151303E0
2.574546958E0,4.971611481E0,-7.154671783E0,3.248245239E-1,8.718472344E0
2.584479958E0,5.267097015E0,-7.430548096E0,3.397933960E-1,9.114319257E0
2.594413958E0,5.434449005E0,-7.886499939E0,3.671864319E-1,9.584620136E0
2.604346958E0,5.586383057E0,-8.269403687E0,1.637594604E-1,9.980858187E0
2.614280958E0,5.687422943E0,-8.548722839E0,-1.960922241E-1,1.026965891E1
2.624213958E0,5.608536987E0,-8.659193115E0,-2.947370911E-1,1.032105530E1
2.634147958E0,5.330565033E0,-8.679700470E0,-2.559677124E-1,1.018909433E1
2.644081958E0,5.031037903E0,-8.655600586E0,-2.353106689E-1,1.001429653E1
2.654014958E0,4.996759186E0,-8.552015991E0,-9.864486694E-2,9.905266815E0
2.663948958E0,5.201383667E0,-8.399183807E0,7.843688965E-2,9.879617049E0
2.673881958E0,5.474715271E0,-8.133486328E0,1.754351807E-1,9.805961689E0
2.683815958E0,5.862858124E0,-7.894882507E0,2.686912537E-1,9.837401597E0
2.693748958E0,6.522386627E0,-8.055947571E0,1.740879822E-1,1.036677989E1
2.703682958E0,6.971153412E0,-8.558751984E0,-3.794609070E-1,1.104505346E1
2.713615958E0,6.776109009E0,-9.017398224E0,-1.213975525E0,1.134472832E1
2.723549958E0,6.428681488E0,-9.317075043E0,-1.758692780E0,1.145551541E1
2.733482958E0,6.100264435E0,-1.027672943E1,-2.087409210E0,1.213184533E1
2.743416958E0,5.470823364E0,-1.073537567E1,-2.518063660E0,1.230929907E1
2.753349958E0,5.010979614E0,-9.888586578E0,-2.930755463E0,1.146662064E1
2.763283958E0,5.564528503E0,-8.477620697E0,-3.096011810E0,1.060279771E1
2.773216958E0,6.973099365E0,-7.480843506E0,-3.054997101E0,1.067333788E1
2.783150958E0,8.663085022E0,-6.967560883E0,-3.101849670E0,1.154198502E1
2.793083958E0,9.766440582E0,-6.894063721E0,-3.279679871E0,1.239628074E1
2.803017958E0,9.796677704E0,-7.250921631E0,-3.500321045E0,1.268081251E1
2.812950958E0,9.268276520E0,-7.815996552E0,-3.852538605E0,1.272135234E1
2.822884958E0,9.135352936E0,-8.473878479E0,-4.356390839E0,1.319997844E1
2.832818958E0,9.068891144E0,-8.796757050E0,-4.583019562E0,1.343993264E1
2.842751958E0,8.386310577E0,-8.353828125E0,-4.313130798E0,1.259840255E1
2.852685958E0,7.467820587E0,-7.558981018E0,-3.283721466E0,1.112157206E1
2.862618958E0,6.771468658E0,-6.965914307E0,-2.121538239E0,9.943725379E0
2.872552958E0,6.313570862E0,-6.532116394E0,-1.102457428E0,9.151236747E0
2.882485958E0,6.044280853E0,-6.174809418E0,-5.987548828E-4,8.640694575E0
2.892419958E0,6.066135406E0,-5.754782867E0,1.029559021E0,8.424696813E0
2.902352958E0,6.285279694E0,-4.965623932E0,1.356628876E0,8.124198654E0
2.912286958E0,6.747967529E0,-4.078418884E0,1.014440460E0,7.949695329E0
2.922219958E0,7.131170654E0,-3.404819641E0,4.599934387E-1,7.915679734E0
2.932153958E0,7.375013580E0,-2.879112854E0,2.814147949E-2,7.917127514E0
2.942086958E0,7.215744781E0,-2.597548370E0,-2.288740540E-1,7.672458121E0
2.952020958E0,6.485263824E0,-2.612517242E0,-5.668711853E-1,7.014644407E0
2.961953958E0,6.022875366E0,-2.685864716E0,-4.809498596E-1,6.612125960E0
2.971887958E0,5.798491974E0,-2.757565613E0,8.083190918E-2,6.421309140E0
2.981821958E0,5.853427734E0,-2.693049774E0,8.196954346E-1,6.495154650E0
2.991755083E0,5.643414459E0,-2.687810669E0,1.438957672E0,6.414285006E0
3.001689083E0,5.425916748E0,-2.793640594E0,1.847907257E0,6.376500730E0
3.011622083E0,5.461093597E0,-3.047812042E0,2.154170380E0,6.614616508E0
3.021556083E0,5.482948151E0,-3.409310303E0,2.385289764E0,6.883002573E0
3.031489083E0,5.769302673E0,-3.857777710E0,2.556833038E0,7.396262393E0
3.041423083E0,6.213728485E0,-4.174668732E0,2.535427551E0,7.903586121E0
3.051356083E0,6.956483917E0,-4.263284454E0,2.371069336E0,8.496483545E0
3.061290083E0,7.803871765E0,-4.115092621E0,1.930535431E0,9.031133310E0
3.071223083E0,8.333021393E0,-3.884721680E0,1.252295837E0,9.278930592E0
3.081157083E0,8.800798645E0,-3.828438721E0,6.996450806E-1,9.622915518E0
3.091090083E0,9.356592865E0,-3.885769501E0,1.103205872E-1,1.013198921E1
3.101024083E0,9.720486145E0,-3.900588684E0,-1.136137390E-1,1.047450959E1
3.110957083E0,1.023825943E1,-4.047133942E0,1.206491089E-1,1.100980497E1
3.120891083E0,1.071756271E1,-4.186643829E0,6.682104492E-1,1.152565149E1
3.130824083E0,1.132993927E1,-4.132157135E0,1.165027313E0,1.211608580E1
3.140758083E0,1.214753906E1,-4.223766632E0,1.544338531E0,1.295329654E1
3.150692083E0,1.258687546E1,-4.669240265E0,1.751956787E0,1.353885486E1
3.160625083E0,1.265423538E1,-5.222639465E0,1.825453949E0,1.381078992E1
3.170559083E0,1.271321274E1,-5.700445862E0,1.774709473E0,1.404530010E1
3.180492083E0,1.293130920E1,-6.175707550E0,1.545985107E0,1.441347257E1
3.190426083E0,1.324251205E1,-6.530469818E0,1.331780548E0,1.482514084E1
3.200359083E0,1.354518265E1,-6.540798340E0,1.364861755E0,1.510353811E1
3.210293083E0,1.385204453E1,-6.313421173E0,1.593137054E0,1.530609389E1
3.220226083E0,1.414693130E1,-6.042185211E0,1.671124878E0,1.547373018E1
3.230160083E0,1.447400116E1,-5.722001038E0,1.476529541E0,1.563387812E1
3.240093083E0,1.491318787E1,-5.831273804E0,1.121617584E0,1.605194544E1
3.250027083E0,1.496677643E1,-6.948400726E0,7.912545776E-1,1.652001069E1
3.259960083E0,1.426249100E1,-8.534352722E0,8.327183533E-1,1.664173205E1
3.269894083E0,1.323502762E1,-1.002615051E1,1.154698792E0,1.664400731E1
3.279827083E0,1.260588593E1,-1.150567383E1,1.378932495E0,1.712280190E1
3.289761083E0,1.232791397E1,-1.273671387E1,1.558409271E0,1.779409965E1
3.299694083E0,1.168410278E1,-1.292921356E1,1.749561768E0,1.751410253E1
3.309628083E0,1.114327744E1,-1.152139114E1,1.669478302E0,1.611527982E1
3.319562083E0,1.156614807E1,-9.145082703E0,1.551074524E0,1.482613068E1
3.329495083E0,1.251262985E1,-7.140750732E0,1.140777740E0,1.445190647E1
3.339429083E0,1.374366989E1,-6.021528168E0,1.896556091E-1,1.500610652E1
3.349362083E0,1.465452576E1,-5.536087646E0,-8.584648132E-1,1.568886081E1
3.359296083E0,1.495674728E1,-5.481900330E0,-1.709894257E0,1.602121278E1
3.369229083E0,1.469569016E1,-5.896837463E0,-2.018103333E0,1.596272979E1
3.379163083E0,1.367166962E1,-6.970704346E0,-1.698368225E0,1.543987448E1
3.389096083E0,1.227926514E1,-8.503816223E0,-1.292412415E0,1.499218371E1
3.399030083E0,1.058104660E1,-9.697733459E0,-8.963360596E-1,1.438082055E1
3.408963083E0,8.662186890E0,-1.016925293E1,-3.080593872E-1,1.336196421E1
3.418897083E0,7.066505127E0,-1.013706985E1,2.664459229E-1,1.235988161E1
3.428830083E0,6.301296387E0,-9.551487579E0,8.930429077E-1,1.147757713E1
3.438764083E0,6.427334290E0,-8.477171631E0,1.751956787E0,1.078157769E1
3.448697083E0,6.950496368E0,-7.455546112E0,2.663411407E0,1.053509981E1
3.458631083E0,7.533533936E0,-6.566844177E0,3.251089325E0,1.050938427E1
3.468564083E0,7.887248383E0,-5.714516602E0,3.310665436E0,1.028712266E1
3.478498083E0,7.866291962E0,-5.114264832E0,2.899470520E0,9.820447204E0
3.488432083E0,7.691754913E0,-4.823269958E0,2.327060852E0,9.372419055E0
3.498365083E0,7.539222107E0,-4.782404938E0,1.942510529E0,9.136991525E0
3.508299083E0,7.466323700E0,-5.004842377E0,1.862277374E0,9.179461522E0
3.518232083E0,6.969506836E0,-5.509293365E0,1.914668427E0,9.088030265E0
3.528166083E0,6.183790741E0,-5.988147583E0,1.701811066E0,8.774584908E0
3.538099083E0,5.669160919E0,-6.079607391E0,1.413809967E0,8.432073896E0
3.548033083E0,5.505700836E0,-5.876629486E0,1.205892334E0,8.142585102E0
3.557966083E0,5.557942200E0,-5.486241302E0,1.081650696E0,7.884131744E0
3.567900083E0,5.743406525E0,-5.172194366E0,1.110690308E0,7.808453498E0
3.577833083E0,6.027216339E0,-5.030139771E0,1.243763580E0,7.948370321E0
3.587767083E0,6.334377594E0,-4.919370117E0,1.485211487E0,8.156616640E0
3.597700083E0,6.611152039E0,-4.841232605E0,1.772314453E0,8.383672401E0
3.607634083E0,6.860533447E0,-4.750072174E0,2.039359131E0,8.590057654E0
3.617567083E0,7.007677460E0,-4.719685364E0,2.207459564E0,8.732459621E0
3.627501083E0,6.928641815E0,-4.985382843E0,2.283202057E0,8.835900131E0
3.637434083E0,6.818620605E0,-5.452711029E0,2.234253845E0,9.012077162E0
3.647368083E0,6.990463257E0,-6.045628052E0,1.986818390E0,9.453234494E0
3.657301083E0,7.218888245E0,-6.657555542E0,1.370549927E0,9.915331582E0
3.667235083E0,6.819967804E0,-6.906936951E0,3.318598938E-1,9.712253594E0
3.677169083E0,6.093079376E0,-7.078031158E0,-9.592053223E-1,9.388515123E0
3.687102083E0,5.592220917E0,-7.398664398E0,-1.770368500E0,9.441788723E0
3.697036083E0,5.394482117E0,-8.480315094E0,-2.173180847E0,1.028294201E1
3.706969083E0,5.586383057E0,-7.958649902E0,-1.790875854E0,9.887113848E0
3.716903083E0,6.188431091E0,-7.587421875E0,-8.065228271E-1,9.824262270E0
3.726836083E0,6.807393951E0,-7.839198303E0,2.742297363E-1,1.038599270E1
3.736770083E0,7.153923340E0,-7.987839203E0,9.358538818E-1,1.076382909E1
3.746703083E0,7.702831879E0,-7.454647980E0,1.188229065E0,1.078504908E1
3.756637083E0,8.420888672E0,-6.733896790E0,1.041983185E0,1.083247252E1
3.766570083E0,8.955726471E0,-6.596931610E0,5.128335571E-1,1.113496931E1
3.776504083E0,8.948391724E0,-6.867419128E0,-2.781216431E-1,1.128328461E1
3.786437083E0,8.489595795E0,-7.136858826E0,-1.024469604E0,1.113811154E1
3.796371083E0,7.919730835E0,-7.536527710E0,-1.340312805E0,1.101443711E1
3.806304083E0,7.660769348E0,-8.321944427E0,-1.284329224E0,1.138383273E1
3.816238083E0,7.313341827E0,-9.216334534E0,-1.020428009E0,1.180961745E1
3.826171083E0,6.986122284E0,-1.000923569E1,-5.502557373E-1,1.221857132E1
3.836105083E0,6.504124603E0,-1.062505508E1,5.688171387E-2,1.245787574E1
3.846039083E0,5.623805237E0,-1.026864624E1,3.438349915E-1,1.171283499E1
3.855972083E0,4.906197510E0,-8.864865417E0,-7.634124756E-3,1.013196285E1
3.865906083E0,4.727618866E0,-7.498057709E0,-7.828720093E-1,8.898546967E0
3.875839083E0,4.539310455E0,-6.757996674E0,-1.772613831E0,8.331747610E0
3.885773083E0,4.696483612E0,-6.157146149E0,-2.646346893E0,8.183554173E0
3.895706083E0,5.480702820E0,-5.847739563E0,-3.077600098E0,8.585207263E0
3.905640083E0,5.981112213E0,-6.144721985E0,-3.247496796E0,9.169380950E0
3.915573083E0,6.010600891E0,-6.964567108E0,-3.246149597E0,9.755511534E0
3.925507083E0,6.081403656E0,-7.846832428E0,-2.964136047E0,1.036061543E1
3.935440083E0,6.239624634E0,-8.605754242E0,-2.400857391E0,1.089752439E1
3.945374083E0,6.268215179E0,-9.003028107E0,-1.584006042E0,1.108395741E1
3.955307083E0,6.239474945E0,-9.046288147E0,-6.617738342E-1,1.100928342E1
3.965241083E0,6.275100861E0,-8.970246277E0,2.498304749E-1,1.095009700E1
3.975174083E0,6.468648376E0,-8.751551056E0,1.212328949E0,1.095001366E1
3.985108083E0,6.972201233E0,-8.286468201E0,1.927242279E0,1.099960945E1
3.995041500E0,7.875123596E0,-7.547754364E0,2.059417419E0,1.110078230E1
4.004975500E0,8.739575958E0,-6.418053589E0,1.780547333E0,1.098826413E1
4.014908500E0,9.280401306E0,-5.260660400E0,1.303190002E0,1.074703217E1
4.024842500E0,9.398954773E0,-4.398004303E0,7.839198303E-1,1.040659997E1
4.034776500E0,9.201814728E0,-3.797602844E0,3.029699707E-1,9.959265658E0
4.044709500E0,8.962462463E0,-3.503314819E0,3.817062378E-2,9.622910429E0
4.054643500E0,8.740474091E0,-3.499422913E0,-4.640350342E-3,9.414981125E0
4.064576500E0,8.481811981E0,-3.647764435E0,1.255888367E-1,9.233801623E0
4.074510500E0,8.314459991E0,-3.868106232E0,3.399430847E-1,9.176494541E0
4.084443500E0,8.228538666E0,-3.945944366E0,4.863386536E-1,9.138700717E0
4.094377500E0,8.139174500E0,-3.848047943E0,6.791377258E-1,9.028558166E0
4.104310500E0,8.142467651E0,-3.799848175E0,7.087760925E-1,9.013378343E0
4.114244500E0,8.369246063E0,-3.781286774E0,5.882766724E-1,9.202634339E0
4.124177500E0,8.375982056E0,-4.036805420E0,3.323089600E-1,9.303940167E0
4.134111500E0,8.214617615E0,-4.211043091E0,1.327738953E-1,9.232034195E0
4.144044500E0,8.375083923E0,-4.316274261E0,1.278341675E-1,9.422770070E0
4.153978500E0,8.507558441E0,-4.353546753E0,2.514770508E-1,9.560081624E0
4.163911500E0,8.636290741E0,-4.285887451E0,4.722679138E-1,9.652843415E0
4.173845500E0,8.793014832E0,-4.208648071E0,7.625143433E-1,9.778100866E0
4.183778500E0,8.970695343E0,-4.112847290E0,1.044078827E0,9.923658013E0
4.193712500E0,9.272767181E0,-4.090992737E0,1.393901367E0,1.023051288E1
4.203645500E0,9.560319214E0,-4.216581573E0,1.849553833E0,1.061132004E1
4.213579500E0,9.677675171E0,-4.143533478E0,2.399809570E0,1.079746972E1
4.223513500E0,1.000489471E1,-3.864962769E0,2.423460388E0,1.099586357E1
4.233446500E0,1.046069687E1,-3.755690002E0,2.314786377E0,1.135295655E1
4.243380500E0,1.114178055E1,-3.906426544E0,2.092498627E0,1.199074612E1
4.253313500E0,1.134041748E1,-4.166735229E0,1.865121460E0,1.222478749E1
4.263247500E0,1.097847015E1,-4.494703217E0,1.680255890E0,1.198133648E1
4.273180500E0,1.120135666E1,-4.871619415E0,1.288969574E0,1.228269145E1
4.283114500E0,1.165177002E1,-5.281467133E0,9.084608459E-1,1.282509028E1
4.293047500E0,1.180550034E1,-5.795198822E0,8.271798706E-1,1.317719219E1
4.302981500E0,1.168664749E1,-6.215225372E0,1.013692017E0,1.327532777E1
4.312914500E0,1.149309998E1,-6.256689148E0,1.412462769E0,1.316178397E1
4.322848500E0,1.169413193E1,-6.064638519E0,1.855691071E0,1.330323837E1
4.332781500E0,1.235171448E1,-5.873785400E0,2.158211975E0,1.384644663E1
4.342715500E0,1.342423416E1,-6.145769806E0,2.244881744E0,1.493385561E1
4.352648500E0,1.456830505E1,-7.074438629E0,2.156565399E0,1.633811398E1
4.362582500E0,1.474568619E1,-8.438551941E0,1.808389435E0,1.708551118E1
4.372515500E0,1.380788635E1,-9.808203735E0,1.534908142E0,1.700630851E1
4.382449500E0,1.251083359E1,-1.086919739E1,1.631906433E0,1.665303358E1
4.392383500E0,1.125524460E1,-1.124536514E1,2.043400726E0,1.604101788E1
4.402316500E0,1.037687119E1,-1.044961990E1,2.715203705E0,1.497485702E1
4.412250500E0,1.065813629E1,-8.765322418E0,3.290307770E0,1.418636217E1
4.422183500E0,1.229019241E1,-7.075486450E0,3.563938751E0,1.462234583E1
4.432117500E0,1.444346466E1,-5.701194305E0,3.464545441E0,1.590975685E1
4.442050500E0,1.588002731E1,-4.887636108E0,3.240910492E0,1.692831223E1
4.451984500E0,1.728814911E1,-4.954546967E0,2.151475983E0,1.811232962E1
4.461917500E0,1.789828033E1,-5.693410492E0,8.610095215E-1,1.880172065E1
4.471851500E0,1.761536865E1,-7.020101624E0,5.269042969E-2,1.896274811E1
4.481784500E0,1.615695145E1,-8.415799255E0,7.110214233E-2,1.821751390E1
4.491718500E0,1.419677765E1,-9.760902100E0,6.505471802E-1,1.724085024E1
4.501651500E0,1.240470428E1,-1.044617706E1,1.156944122E0,1.625846928E1
4.511585500E0,1.078043198E1,-1.011656250E1,1.652862854E0,1.487597076E1
4.521518500E0,9.920619965E0,-9.206904144E0,2.325863342E0,1.373300494E1
4.531452500E0,9.965227203E0,-8.264014893E0,2.998265076E0,1.328869026E1
4.541385500E0,1.029529083E1,-7.445516968E0,3.476670227E0,1.317254615E1
4.551319500E0,1.061906754E1,-6.658603363E0,3.691623230E0,1.306635665E1
4.561252500E0,1.101289856E1,-5.965544586E0,3.605402527E0,1.303344100E1
4.571186500E0,1.123084534E1,-5.393284607E0,3.135080566E0,1.284710613E1
4.581119500E0,1.097128510E1,-5.112468567E0,2.405797119E0,1.234075732E1
4.591053500E0,1.021730301E1,-5.182672577E0,1.697919159E0,1.158172290E1
4.600987500E0,9.264234924E0,-5.596861267E0,1.272354126E0,1.089815534E1
4.610920500E0,8.316855011E0,-6.313720551E0,1.137634277E0,1.050368298E1
4.620854500E0,7.519612885E0,-6.911427612E0,1.207688599E0,1.028449908E1
4.630787500E0,6.853348389E0,-7.094347229E0,1.455573120E0,9.970799359E0
4.640721500E0,6.216273193E0,-6.971602478E0,1.660646667E0,9.486993248E0
4.650654500E0,5.836812286E0,-6.753056946E0,1.673070831E0,9.081372241E0
4.660588500E0,5.673501892E0,-6.497238922E0,1.538201294E0,8.761780672E0
4.670521500E0,5.514532471E0,-6.233637085E0,1.432970123E0,8.445217762E0
4.680455500E0,5.212909698E0,-6.116131439E0,1.384770355E0,8.154696821E0
4.690388500E0,4.749922485E0,-6.155649261E0,1.385967865E0,7.897764770E0
4.700322500E0,4.276457062E0,-6.262676697E0,1.428030396E0,7.716765852E0
4.710255500E0,3.943998413E0,-6.310726776E0,1.510658569E0,7.593581845E0
4.720189500E0,3.877087555E0,-6.356531525E0,1.673519897E0,7.631380595E0
4.730122500E0,4.058061218E0,-6.358028412E0,1.684447174E0,7.728502340E0
4.740056500E0,4.291875000E0,-6.258335724E0,1.546883240E0,7.744662989E0
4.749989500E0,4.404440918E0,-6.011798401E0,1.312770081E0,7.567310295E0
4.759923500E0,4.558769989E0,-5.867498474E0,7.138655090E-1,7.464551301E0
4.769856500E0,4.859644318E0,-5.917045441E0,-3.697311401E-2,7.656953484E0
4.779790500E0,5.094655609E0,-6.110443268E0,-5.364843750E-1,7.973759978E0
4.789723500E0,5.188360748E0,-6.394103394E0,-6.242019653E-1,8.257921867E0
4.799657500E0,5.234614563E0,-6.750212860E0,-4.667294312E-1,8.554788112E0
4.809591500E0,5.453459473E0,-7.131769409E0,-1.425036621E-1,8.979012330E0
4.819524500E0,5.597759399E0,-7.353159027E0,7.918533325E-2,9.241760021E0
4.829458500E0,5.350323944E0,-7.652536469E0,1.145118713E-1,9.338115103E0
4.839391500E0,5.030289459E0,-7.771988068E0,6.631210327E-2,9.258077979E0
4.849325500E0,4.935835876E0,-7.539671173E0,-5.972579956E-2,9.011808052E0
4.859258500E0,4.800816650E0,-7.192692719E0,-3.534150696E-1,8.654916017E0
4.869192500E0,5.018464050E0,-6.974147186E0,-7.268884277E-1,8.622765055E0
4.879125500E0,5.992638245E0,-7.182813263E0,-1.248703308E0,9.437360831E0
4.889059500E0,6.504723358E0,-7.730075226E0,-1.893412628E0,1.027864292E1
4.898992500E0,6.613996124E0,-8.410560150E0,-2.344724121E0,1.095354728E1
4.908926500E0,6.607260132E0,-9.213490448E0,-2.474803619E0,1.160469498E1
4.918859500E0,6.594237213E0,-9.926906891E0,-2.338586884E0,1.214481097E1
4.928793500E0,6.095474396E0,-9.855355682E0,-2.055226135E0,1.176889112E1
4.938726500E0,5.344935150E0,-8.662037201E0,-1.717678070E0,1.032228842E1
4.948660500E0,5.717510376E0,-7.143744507E0,-1.513652344E0,9.274381591E0
4.958593500E0,7.194638672E0,-5.988896027E0,-1.881437531E0,9.548272536E0
4.968527500E0,8.819360046E0,-5.219346313E0,-2.469414825E0,1.054138023E1
4.978460500E0,1.002240829E1,-5.068460083E0,-2.978955231E0,1.161947201E1
4.988394500E0,1.096903976E1,-5.777086487E0,-3.277733917E0,1.282334205E1
4.998328708E0,1.142304565E1,-6.581663361E0,-3.122357025E0,1.354818726E1
5.008261708E0,1.130434250E1,-7.114854584E0,-2.499951324E0,1.358893196E1
5.018195708E0,1.062056442E1,-7.351662140E0,-2.029329987E0,1.307522486E1
5.028128708E0,9.616003418E0,-7.155719604E0,-2.154170380E0,1.217835353E1
5.038062708E0,8.807235260E0,-6.699767761E0,-2.766097870E0,1.140638323E1
5.047995708E0,8.281678162E0,-6.276448059E0,-3.298540649E0,1.090231002E1
5.057929708E0,8.118966522E0,-6.011049957E0,-3.387006683E0,1.065467753E1
5.067862708E0,8.024063873E0,-5.609734497E0,-3.022514648E0,1.024647827E1
5.077796708E0,8.030350800E0,-5.058730316E0,-2.249671783E0,9.753886892E0
5.087729708E0,8.105195160E0,-4.568649445E0,-1.250948639E0,9.387844205E0
5.097663708E0,8.213569794E0,-4.170327759E0,-2.062710571E-1,9.213951927E0
5.107596708E0,8.278235321E0,-3.862567749E0,1.079555054E0,9.198589498E0
5.117530708E0,8.440647583E0,-3.504811707E0,2.055076447E0,9.367581114E0
5.127463708E0,8.868607635E0,-3.313060455E0,2.588117981E0,9.814628147E0
5.137397708E0,9.129964142E0,-3.281176758E0,2.824177094E0,1.010437244E1
5.147330708E0,9.119485931E0,-3.057092743E0,2.337838440E0,9.898299261E0
5.157264708E0,9.336085510E0,-2.438728638E0,1.600771179E0,9.781224790E0
5.167197708E0,1.020113663E1,-1.907932434E0,4.727169800E-1,1.038878511E1
5.177131708E0,1.068043991E1,-1.789977722E0,-8.571176147E-1,1.086326229E1
5.187064708E0,1.061248123E1,-2.143243103E0,-1.853296051E0,1.098421391E1
5.196998708E0,1.043539948E1,-2.944077759E0,-2.088457031E0,1.104204731E1
5.206932708E0,8.709638214E0,-2.724484406E0,-1.837728424E0,9.309020295E0
5.216865708E0,7.498806152E0,-2.513123932E0,-1.061143341E0,7.979593398E0
5.226799708E0,8.650062103E0,-2.946772156E0,1.764830017E-1,9.139922690E0
5.236732708E0,9.330097961E0,-3.064577179E0,9.583071899E-1,9.867153284E0
5.246666708E0,9.892328796E0,-3.358416138E0,7.849676514E-1,1.047632102E1
5.256599708E0,1.079165863E1,-3.093018036E0,6.373745728E-1,1.124423865E1
5.266533708E0,1.039677979E1,-1.321452026E0,5.745053101E-1,1.049615747E1
5.276466708E0,9.577683105E0,-4.998106384E-1,4.614903259E-1,9.601812207E0
5.286400708E0,8.906329193E0,-5.884263611E-1,3.658392334E-1,8.933240376E0
5.296333708E0,7.752378845E0,-5.183720398E-1,9.395960999E-1,7.826297219E0
5.306267708E0,8.585097198E0,-1.133442993E0,2.438279572E0,8.996321148E0
5.316200708E0,1.091485245E1,-2.995870056E0,3.153492279E0,1.174962786E1
5.326134708E0,1.158830200E1,-3.503464508E0,2.340532837E0,1.233049475E1
5.336067708E0,1.082593735E1,-2.791994019E0,2.475701752E0,1.145099337E1
5.346001708E0,1.075962524E1,-2.905907135E0,2.853965149E0,1.150473593E1
5.355934708E0,1.117920273E1,-3.801644440E0,3.053649902E0,1.219638683E1
5.365868708E0,1.156539963E1,-4.621938629E0,2.537822571E0,1.271067774E1
5.375801708E0,1.158126663E1,-5.031636658E0,1.874551849E0,1.276546313E1
5.385735708E0,1.182555862E1,-5.086123352E0,1.680255890E0,1.298213185E1
5.395669708E0,1.172302185E1,-5.011728058E0,1.951342163E0,1.289784461E1
5.405602708E0,1.188333847E1,-4.597988434E0,2.577639771E0,1.299997914E1
5.415536708E0,1.286290146E1,-4.077071686E0,3.149600372E0,1.385628846E1
5.425469708E0,1.360835129E1,-4.186344452E0,3.335064697E0,1.462311052E1
5.435403708E0,1.413884811E1,-5.261259155E0,3.061583405E0,1.539354302E1
5.445336708E0,1.437760162E1,-6.853647766E0,2.538571014E0,1.612861615E1
5.455270708E0,1.412417862E1,-8.558003540E0,2.035467224E0,1.663956048E1
5.465203708E0,1.340073303E1,-9.924960938E0,1.613045654E0,1.675369845E1
5.475137708E0,1.236189331E1,-1.032897079E1,1.518891449E0,1.618057710E1
5.485070708E0,1.145268402E1,-9.450597382E0,2.262095947E0,1.501981492E1
5.495004708E0,1.171718399E1,-8.023614807E0,3.180735626E0,1.455293353E1
5.504937708E0,1.292592041E1,-6.624923401E0,3.801345062E0,1.501396859E1
5.514871708E0,1.412178360E1,-5.521418152E0,4.025129700E0,1.568797309E1
5.524804708E0,1.558274551E1,-5.234614563E0,3.680396576E0,1.684542865E1
5.534738708E0,1.701047653E1,-5.717959442E0,3.063978424E0,1.820547543E1
5.544671708E0,1.732033218E1,-6.925498352E0,2.083367615E0,1.876957258E1
5.554605708E0,1.653820862E1,-8.270750885E0,9.759704590E-1,1.851675411E1
5.564538708E0,1.481394424E1,-9.066945190E0,1.695973206E-1,1.736926027E1
5.574472708E0,1.260828094E1,-9.343120880E0,-1.416055298E-1,1.569339696E1
5.584405708E0,1.115719849E1,-9.367220764E0,-8.891510010E-2,1.456831524E1
5.594339708E0,1.013662079E1,-9.222920837E0,2.778222656E-1,1.370731684E1
5.604273708E0,9.097631378E0,-8.500672760E0,9.967771912E-1,1.249087262E1
5.614206708E0,8.838520203E0,-7.610174561E0,1.853894806E0,1.180978925E1
5.624140708E0,8.834927673E0,-6.740632782E0,2.577939148E0,1.140779766E1
5.634073708E0,8.849297791E0,-6.045927429E0,2.820584564E0,1.108237371E1
5.644007708E0,8.831784210E0,-5.492827606E0,2.588117981E0,1.071773867E1
5.653940708E0,8.627908173E0,-4.989723816E0,1.938768311E0,1.015366760E1
5.663874708E0,8.168513489E0,-4.555476837E0,1.091979218E0,9.416443089E0
5.673807708E0,6.928192749E0,-4.539609833E0,4.360432434E-1,8.294458747E0
5.683741708E0,6.872658234E0,-5.294639740E0,-5.123844910E-1,8.690752501E0
5.693674708E0,6.901398468E0,-5.320984955E0,-1.104253693E0,8.784165181E0
5.703608708E0,6.713838501E0,-4.601580963E0,-7.818241882E-1,8.176883504E0
5.713541708E0,6.719376984E0,-4.444407806E0,-2.356100464E-1,8.059671202E0
5.723475708E0,6.443800049E0,-4.817132721E0,8.412506104E-2,8.045769307E0
5.733408708E0,5.965095520E0,-4.976551208E0,3.586541748E-1,7.776699770E0
5.743342708E0,5.679190063E0,-4.804259491E0,4.555027771E-1,7.452623150E0
5.753275708E0,5.482948151E0,-4.785997467E0,5.089416504E-1,7.295718867E0
5.763209708E0,5.304369507E0,-5.000351715E0,6.954537964E-1,7.322807462E0
5.773142708E0,4.810696106E0,-5.339696045E0,1.016536102E0,7.258684214E0
5.783076708E0,4.236639862E0,-5.657934265E0,1.289119263E0,7.184926300E0
5.793009708E0,3.751798096E0,-5.865253143E0,1.435814209E0,7.109060826E0
5.802943708E0,3.436853027E0,-5.910758514E0,1.493144989E0,6.998464611E0
5.812877708E0,3.259920959E0,-5.823939056E0,1.516346741E0,6.844315761E0
5.822810708E0,3.263513489E0,-5.904621277E0,1.233734436E0,6.858365211E0
5.832744708E0,3.251538391E0,-6.176905060E0,7.532336426E-1,7.020969943E0
5.842677708E0,2.952610016E0,-6.268215179E0,2.938389587E-1,6.935039205E0
5.852611708E0,3.054098969E0,-6.349346466E0,3.143463135E-3,7.045688819E0
5.862544708E0,3.436254272E0,-6.630910950E0,-3.031196594E-1,7.474537108E0
5.872478708E0,3.775299225E0,-7.170688477E0,-6.761439514E-1,8.131963361E0
5.882411708E0,3.504063263E0,-7.523654480E0,-6.997947693E-1,8.329078509E0
5.892345708E0,3.406017151E0,-7.837551727E0,-7.656578064E-1,8.579883553E0
5.902278708E0,3.790717163E0,-8.224946136E0,-1.122366028E0,9.125731809E0
5.912212708E0,4.291575623E0,-8.297844543E0,-1.750908966E0,9.504605599E0
5.922145708E0,5.046455841E0,-8.064779205E0,-2.471959534E0,9.829443734E0
5.932079708E0,5.911506958E0,-7.914192352E0,-3.074306946E0,1.034561348E1
5.942012708E0,6.650220795E0,-7.864046631E0,-3.261417847E0,1.080303256E1
5.951946708E0,7.304210815E0,-7.790100403E0,-3.094814301E0,1.111822987E1
5.961879708E0,7.516918488E0,-7.712112579E0,-2.900967407E0,1.115331143E1
5.971813708E0,7.630083160E0,-7.929161224E0,-2.556383972E0,1.129711759E1
5.981746708E0,7.830815735E0,-8.651109924E0,-2.671644287E0,1.197084213E1
5.991679833E0,7.755073242E0,-9.673633575E0,-2.815644836E0,1.271409467E1
6.001612833E0,7.389683075E0,-1.068208649E1,-2.880160675E0,1.330449973E1
6.011546833E0,6.944808197E0,-1.154998169E1,-2.833906860E0,1.377183597E1
6.021480833E0,6.048172760E0,-1.192809540E1,-2.597398682E0,1.362374154E1
6.031413833E0,5.666915588E0,-1.147393982E1,-3.245401154E0,1.320219133E1
6.041347833E0,5.599555664E0,-1.054467224E1,-4.042643280E0,1.260508235E1
6.051280833E0,6.110892334E0,-9.260941772E0,-4.179907837E0,1.185663009E1
6.061214833E0,7.357050934E0,-8.021369476E0,-3.847449188E0,1.154432467E1
6.071147833E0,8.886570282E0,-7.344028015E0,-3.189118195E0,1.196145283E1
6.081081833E0,9.912387085E0,-7.257807312E0,-2.474204865E0,1.253207383E1
6.091014833E0,1.018916153E1,-7.459138641E0,-2.136806488E0,1.280717392E1
6.100948833E0,1.003153931E1,-7.765850830E0,-2.062560883E0,1.285279648E1
6.110881833E0,9.540709991E0,-8.240663452E0,-1.973196716E0,1.276037564E1
6.120815833E0,8.775800629E0,-8.656349030E0,-1.609602814E0,1.243132641E1
6.130748833E0,7.748936005E0,-8.631650391E0,-1.044976959E0,1.164660356E1
6.140682833E0,6.901099091E0,-8.227041779E0,-9.202862549E-1,1.077758377E1
6.150615833E0,6.501579895E0,-7.543862457E0,-1.497635651E0,1.007091428E1
6.160549833E0,6.559958496E0,-6.598877563E0,-2.401456146E0,9.609642667E0
6.170482833E0,6.860084381E0,-5.610033875E0,-2.975961456E0,9.348239641E0
6.180416833E0,7.157815247E0,-4.753215637E0,-2.993624725E0,9.098855257E0
6.190349833E0,7.363487549E0,-4.047283630E0,-2.717598724E0,8.831013333E0
6.200283833E0,7.428901520E0,-3.511847076E0,-2.256557465E0,8.521367218E0
6.210217833E0,7.444618835E0,-3.129691772E0,-1.555714874E0,8.224206282E0
6.220150833E0,7.363637238E0,-2.843636627E0,-8.393046570E-1,7.938126664E0
6.230084833E0,7.307354279E0,-2.647544403E0,-3.855981445E-1,7.781748123E0
6.240017833E0,7.186854858E0,-2.572849731E0,-1.456471252E-1,7.634896959E0
6.249951833E0,7.020251312E0,-2.499801636E0,5.493576050E-2,7.452244940E0
6.259884833E0,6.853647766E0,-2.370320892E0,1.130149841E-1,7.252839528E0
6.269818833E0,6.688241730E0,-2.266436920E0,7.484436035E-4,7.061820892E0
6.279751833E0,6.596482544E0,-2.230212250E0,-2.082170105E-1,6.966403875E0
6.289685833E0,6.406527557E0,-2.298470306E0,-3.918850708E-1,6.817634121E0
6.299618833E0,6.140231323E0,-2.512824554E0,-4.002676392E-1,6.646573713E0
6.309552833E0,6.046376495E0,-2.838247833E0,-2.480342102E-1,6.683998837E0
6.319485833E0,6.072572021E0,-3.230731659E0,-3.622467041E-2,6.878595077E0
6.329419833E0,6.171366577E0,-3.522325287E0,2.266287231E-1,7.109423425E0
6.339352833E0,6.442452850E0,-3.560346222E0,4.870870972E-1,7.376890794E0
6.349286833E0,6.934030609E0,-3.436104584E0,7.123686218E-1,7.771426140E0
6.359219833E0,7.610623627E0,-3.265010376E0,1.117276611E0,8.356446121E0
6.369153833E0,8.320447540E0,-3.167563019E0,1.738035736E0,9.071056772E0
6.379086833E0,8.955277405E0,-3.157533875E0,2.296524353E0,9.769392902E0
6.389020833E0,9.426497498E0,-3.152594147E0,2.720442810E0,1.030526632E1
6.398953833E0,9.862241364E0,-3.062032471E0,3.059487762E0,1.077034414E1
6.408887833E0,1.038869659E1,-3.030597839E0,3.355422363E0,1.132997791E1
6.418821833E0,1.110854965E1,-3.106639709E0,3.544179840E0,1.206699202E1
6.428754833E0,1.180924255E1,-3.260070648E0,3.541335754E0,1.275254207E1
6.438688833E0,1.231144821E1,-3.626059570E0,3.389252014E0,1.327430203E1
6.448621833E0,1.280557068E1,-4.143982544E0,3.232378235E0,1.384209163E1
6.458555833E0,1.301303925E1,-4.687801666E0,3.096460876E0,1.417401654E1
6.468488833E0,1.291125092E1,-5.173541565E0,2.977608032E0,1.422434821E1
6.478422833E0,1.272907974E1,-5.541925507E0,2.924767914E0,1.418790600E1
6.488355833E0,1.259061768E1,-5.626200256E0,2.852019196E0,1.408232212E1
6.498289833E0,1.267489243E1,-5.405409393E0,2.602039032E0,1.402290825E1
6.508222833E0,1.350102448E1,-5.439388733E0,2.093995514E0,1.470542175E1
6.518156833E0,1.446561859E1,-6.297105103E0,1.535806274E0,1.585138337E1
6.528089833E0,1.457279572E1,-7.570507050E0,1.351389771E0,1.647741504E1
6.538023833E0,1.375130402E1,-8.545729065E0,1.489253082E0,1.625871219E1
6.547956833E0,1.272818161E1,-9.258846130E0,1.687440948E0,1.582972823E1
6.557890833E0,1.204709793E1,-9.717492371E0,1.782343597E0,1.558008265E1
6.567823833E0,1.129865433E1,-9.452094269E0,1.872156830E0,1.484946622E1
6.577757833E0,1.063044388E1,-8.377179565E0,2.019300842E0,1.368433595E1
6.587690833E0,1.082054855E1,-7.080276489E0,2.205663300E0,1.311790901E1
6.597624833E0,1.208975922E1,-6.022426300E0,2.198627930E0,1.368451173E1
6.607557833E0,1.386791153E1,-5.202880554E0,1.712139587E0,1.491041107E1
6.617491833E0,1.523816208E1,-4.692741394E0,8.970845032E-1,1.596960131E1
6.627425833E0,1.564830917E1,-4.475842438E0,5.837860107E-2,1.627593787E1
6.637358833E0,1.511257324E1,-4.600533142E0,-5.962101746E-1,1.580854964E1
6.647292833E0,1.496722549E1,-5.655239868E0,-1.590442657E0,1.607883966E1
6.657225833E0,1.389919647E1,-6.860234070E0,-1.971400452E0,1.562488060E1
6.667159833E0,1.214080307E1,-7.506440277E0,-1.623823242E0,1.436602056E1
6.677092833E0,1.053494247E1,-7.556885376E0,-1.254092102E0,1.302552404E1
6.687026833E0,9.362879791E0,-7.095245361E0,-7.680528259E-1,1.177267726E1
6.696959833E0,9.002728729E0,-6.340963898E0,-2.984793091E-1,1.101571775E1
6.706893833E0,9.303153992E0,-5.371430054E0,-2.010319519E-1,1.074436359E1
6.716826833E0,9.748477936E0,-4.497696991E0,-1.540296936E-1,1.073712370E1
6.726760833E0,1.014769775E1,-3.837420044E0,-9.340576172E-2,1.084943717E1
6.736693833E0,1.032163605E1,-3.384761353E0,1.062789917E-2,1.086245336E1
6.746627833E0,1.022104523E1,-3.259322205E0,9.131011963E-3,1.072814197E1
6.756560833E0,1.010099487E1,-3.579805756E0,-1.706451416E-1,1.071793947E1
6.766494833E0,9.798324280E0,-4.093537445E0,-3.739224243E-1,1.062563059E1
6.776427833E0,9.164691925E0,-4.454287262E0,-6.328839111E-1,1.020944637E1
6.786361833E0,8.543633423E0,-4.764741669E0,-7.774832153E-1,9.813302980E0
6.796294833E0,8.045169983E0,-5.035378876E0,-7.595205688E-1,9.521379730E0
6.806228833E0,7.490423584E0,-5.187462616E0,-7.695497131E-1,9.143764029E0
6.816161833E0,6.942413177E0,-5.162913666E0,-7.914042664E-1,8.687870796E0
6.826095833E0,6.624474335E0,-5.060077515E0,-6.574328613E-1,8.361833688E0
6.836029833E0,6.433770905E0,-4.900659027E0,-3.719764709E-1,8.096186352E0
6.845962833E0,6.291566620E0,-4.745132446E0,4.191284180E-2,7.880472648E0
6.855896833E0,6.069278870E0,-4.655319214E0,4.915777588E-1,7.664841269E0
6.865829833E0,5.799240417E0,-4.650828552E0,8.569679260E-1,7.483033454E0
6.875763833E0,5.646707611E0,-4.772076416E0,1.115929413E0,7.476852187E0
6.885696833E0,5.705834656E0,-4.945715332E0,1.252146149E0,7.654052472E0
6.895630833E0,5.609734497E0,-5.007237396E0,1.165476379E0,7.609197242E0
6.905563833E0,5.396877136E0,-5.070256348E0,9.217831421E-1,7.462135513E0
6.915497833E0,4.974305878E0,-5.195246429E0,6.749464417E-1,7.224254780E0
6.925430833E0,4.467908936E0,-5.295088806E0,2.836601257E-1,6.934020391E0
6.935364833E0,4.262086945E0,-5.292394409E0,-1.607656860E-1,6.797107422E0
6.945297833E0,4.412075043E0,-5.408253479E0,-4.246669006E-1,6.992564183E0
6.955231833E0,4.642895050E0,-5.884562988E0,-5.816903687E-1,7.518172630E0
6.965164833E0,4.663851471E0,-6.449188843E0,-7.243437195E-1,7.991759575E0
6.975098833E0,4.872667236E0,-6.868916016E0,-6.780899048E-1,8.448946629E0
6.985031833E0,5.377118225E0,-7.233857117E0,-4.414320374E-1,9.024242430E0
6.994966083E0,5.833519135E0,-7.361391907E0,-2.829116821E-1,9.396811976E0
7.004899083E0,6.038143616E0,-7.273973694E0,-5.270539856E-1,9.468244691E0
7.014833083E0,5.973627777E0,-7.115453339E0,-9.702822876E-1,9.341057368E0
7.024766083E0,6.029461670E0,-6.924300842E0,-1.219514008E0,9.262157664E0
7.034700083E0,6.287824402E0,-6.694378967E0,-1.234033813E0,9.266837914E0
7.044633083E0,6.804699554E0,-6.499783630E0,-1.138532410E0,9.478785751E0
7.054567083E0,7.635022888E0,-6.563251648E0,-1.133442993E0,1.013185766E1
7.064501083E0,8.346643066E0,-7.006330261E0,-1.399439850E0,1.098697165E1
7.074434083E0,8.468040619E0,-7.536378021E0,-2.185155945E0,1.154467895E1
7.084368083E0,8.072413330E0,-7.895032196E0,-3.182232513E0,1.173124009E1
7.094301083E0,7.597600708E0,-8.199948120E0,-3.925437012E0,1.184785809E1
7.104235083E0,7.142097931E0,-8.528963928E0,-3.873495026E0,1.177950560E1
7.114168083E0,7.005282440E0,-8.715027008E0,-3.345692596E0,1.167130399E1
7.124102083E0,6.832841034E0,-7.748037872E0,-1.999392242E0,1.052223250E1
7.134035083E0,7.581733704E0,-6.394552460E0,-8.372090149E-1,9.953587597E0
7.143969083E0,9.104966125E0,-5.206772461E0,-4.734654236E-1,1.049928841E1
7.153902083E0,1.059526703E1,-4.533023529E0,-5.686674500E-1,1.153825673E1
7.163836083E0,1.189007446E1,-4.667593689E0,-8.619076538E-1,1.280246798E1
7.173769083E0,1.258343262E1,-5.302273865E0,-1.117426300E0,1.370056663E1
7.183703083E0,1.244601837E1,-5.841153259E0,-1.258133698E0,1.380598946E1
7.193636083E0,1.173170380E1,-6.292764130E0,-1.265169067E0,1.337282345E1
7.203570083E0,1.091949280E1,-6.628964996E0,-9.437873840E-1,1.280895134E1
7.213503083E0,1.008602600E1,-6.592440948E0,-5.698649597E-1,1.206287463E1
7.223437083E0,9.145382080E0,-6.212231598E0,-4.111949158E-1,1.106340436E1
7.233370083E0,8.243507538E0,-5.702391815E0,-3.453318787E-1,1.002955348E1
7.243304083E0,7.401957550E0,-5.243745575E0,-2.995271301E-1,9.076098266E0
7.253237083E0,6.629114685E0,-4.857848053E0,-2.365081787E-1,8.221908862E0
7.263171083E0,6.198759613E0,-4.538711700E0,-5.463638306E-2,7.682936273E0
7.273104083E0,6.221362610E0,-4.290677490E0,3.869453430E-1,7.567363659E0
7.283038083E0,6.410718842E0,-3.827690277E0,7.484436035E-1,7.503912096E0
7.292971083E0,6.682104492E0,-3.276237030E0,9.187893677E-1,7.498561424E0
7.302905083E0,6.906188507E0,-2.790796509E0,9.934840393E-1,7.514718583E0
7.312839083E0,6.992259521E0,-2.284998322E0,8.132588196E-1,7.400966184E0
7.322772083E0,6.925498352E0,-1.746567993E0,2.353106689E-1,7.146215662E0
7.332706083E0,6.806944885E0,-1.166524200E0,-4.706213379E-1,6.922193426E0
7.342639083E0,6.601272583E0,-7.029382324E-1,-1.116079102E0,6.731757158E0
7.352573083E0,6.345753937E0,-5.257067871E-1,-1.620081024E0,6.570359440E0
7.362506083E0,6.184688873E0,-6.129753113E-1,-1.907034302E0,6.500991849E0
7.372440083E0,6.137536926E0,-9.017248535E-1,-1.833986206E0,6.468846314E0
7.382373083E0,6.216572571E0,-1.272354126E0,-1.584754486E0,6.540344512E0
7.392307083E0,6.404880981E0,-1.563498688E0,-1.353335724E0,6.730419461E0
7.402240083E0,6.523883514E0,-1.740131378E0,-1.278042297E0,6.871863316E0
7.412174083E0,6.639143829E0,-1.779649200E0,-1.242715759E0,6.984964175E0
7.422107083E0,6.837930450E0,-1.719474335E0,-1.168470154E0,7.146971900E0
7.432041083E0,7.301815796E0,-1.648222504E0,-9.767189026E-1,7.548982127E0
7.441974083E0,7.802823944E0,-1.672771454E0,-6.017486572E-1,8.002769976E0
7.451908083E0,8.031248932E0,-1.809137878E0,-1.642085266E-1,8.234130416E0
7.461841083E0,8.217461700E0,-2.014810181E0,3.258723450E-1,8.467132315E0
7.471775083E0,8.596174164E0,-2.217638397E0,6.846762085E-1,8.903982919E0
7.481708083E0,9.188342743E0,-2.351011047E0,9.497749329E-1,9.531787226E0
7.491642083E0,9.673783264E0,-2.481539612E0,1.141376495E0,1.005200785E1
7.501575083E0,9.999655609E0,-2.773133240E0,1.183289337E0,1.044430725E1
7.511509083E0,1.033705399E1,-3.136278076E0,1.149908752E0,1.086338876E1
7.521442083E0,1.082952988E1,-3.644620972E0,1.169368286E0,1.148605248E1
7.531376083E0,1.140418488E1,-4.265679474E0,1.293609924E0,1.224438160E1
7.541309083E0,1.169877228E1,-4.842130737E0,1.389410706E0,1.273726678E1
7.551243083E0,1.180310532E1,-5.292843475E0,1.297801208E0,1.300045288E1
7.561177083E0,1.191118057E1,-5.445376282E0,1.193917236E0,1.315118945E1
7.571110083E0,1.198392929E1,-5.318440247E0,1.245559845E0,1.317010961E1
7.581044083E0,1.206476120E1,-4.904550934E0,1.360071716E0,1.309438344E1
7.590977083E0,1.227537323E1,-4.352947998E0,1.392404480E0,1.309853940E1
7.600911083E0,1.277907578E1,-4.067491608E0,1.139580231E0,1.345911991E1
7.610844083E0,1.344788498E1,-4.454586639E0,5.424719238E-1,1.417685538E1
7.620778083E0,1.371268433E1,-5.556744690E0,1.586700439E-2,1.479578909E1
7.630711083E0,1.320434143E1,-6.963070221E0,-2.329156494E-1,1.492960914E1
7.640645083E0,1.232851273E1,-8.261021118E0,-2.236349487E-1,1.484205877E1
7.650578083E0,1.145537842E1,-9.250762939E0,-8.846603394E-2,1.472447404E1
7.660512083E0,1.047027695E1,-9.637259216E0,4.099974060E-1,1.423627628E1
7.670445083E0,9.596244507E0,-9.006620636E0,1.146465912E0,1.321065888E1
7.680379083E0,1.005069946E1,-7.633526001E0,1.705253906E0,1.273558675E1
7.690312083E0,1.180370407E1,-6.400240631E0,1.929188232E0,1.356511250E1
7.700246083E0,1.390847717E1,-5.548362122E0,1.907183990E0,1.509527775E1
7.710179083E0,1.563828003E1,-5.071603546E0,1.411115570E0,1.650055187E1
7.720113083E0,1.645573013E1,-4.845423889E0,2.094145203E-1,1.715555424E1
7.730046083E0,1.617102219E1,-5.142556000E0,-1.370549927E0,1.702428406E1
7.739980083E0,1.494911316E1,-5.697901154E0,-2.176174622E0,1.614551943E1
7.749913083E0,1.454016357E1,-6.896608429E0,-2.702330475E0,1.631815414E1
7.759847083E0,1.346584763E1,-7.833061066E0,-2.308499451E0,1.574849414E1
7.769780083E0,1.198183365E1,-8.063432007E0,-1.066532135E0,1.448173899E1
7.779714083E0,1.096649506E1,-7.726931763E0,6.502478027E-1,1.343102046E1
7.789647083E0,1.070349197E1,-7.103178864E0,1.759890289E0,1.296599800E1
7.799581083E0,1.072160431E1,-6.288273468E0,2.229164429E0,1.262791971E1
7.809514083E0,1.076097244E1,-5.383105774E0,2.441123657E0,1.227743623E1
7.819448083E0,1.064571213E1,-4.718038788E0,2.307301941E0,1.187075056E1
7.829381083E0,1.041593994E1,-4.224964142E0,1.970502319E0,1.141161716E1
7.839315083E0,1.011222153E1,-3.922892303E0,1.629511414E0,1.096820020E1
7.849249083E0,9.573342133E0,-3.839515686E0,1.437011719E0,1.041420967E1
7.859182083E0,8.948691101E0,-3.940854950E0,1.422641602E0,9.880957407E0
7.869116083E0,8.249495087E0,-4.100872192E0,1.449884949E0,9.325957768E0
7.879049083E0,7.576943665E0,-4.167483673E0,1.171912994E0,8.726475550E0
7.888983083E0,7.072492676E0,-4.135450287E0,7.110214233E-1,8.223603419E0
7.898916083E0,6.593189392E0,-4.071682892E0,3.478765869E-1,7.756917303E0
7.908850083E0,6.144572296E0,-3.985462189E0,7.095245361E-2,7.324255035E0
7.918783083E0,5.770649872E0,-3.925586700E0,-6.586303711E-2,6.979610937E0
7.928717083E0,5.503156128E0,-3.843257904E0,-1.781295776E-2,6.712352493E0
7.938650083E0,5.384902039E0,-3.801943817E0,1.767823792E-1,6.594179158E0
7.948584083E0,5.303920441E0,-3.854334869E0,4.781057739E-1,6.573891881E0
7.958517083E0,5.188360748E0,-4.041745148E0,7.111711121E-1,6.615176146E0
7.968451083E0,5.071603546E0,-4.167633362E0,8.536747742E-1,6.619599005E0
7.978384083E0,4.940326538E0,-4.230951691E0,8.246351624E-1,6.556508344E0
7.988318083E0,4.790937195E0,-4.312082977E0,5.932164001E-1,6.472947127E0
7.998250833E0,4.781656494E0,-4.381388855E0,1.889071655E-1,6.488181027E0
8.008184833E0,4.881199493E0,-4.412524109E0,-1.037342834E-1,6.580823528E0
8.018117833E0,5.129084015E0,-4.443210297E0,-1.580712891E-1,6.787827863E0
8.028051833E0,5.522615662E0,-4.663252716E0,-2.531236267E-1,7.232515552E0
8.037984833E0,5.892346802E0,-5.168901215E0,-4.059558105E-1,7.848699938E0
8.047918833E0,6.095324707E0,-5.745951233E0,-4.370910645E-1,8.388086042E0
8.057851833E0,6.339467010E0,-6.395899658E0,-3.393443298E-1,9.011743948E0
8.067785833E0,6.691983948E0,-7.037166138E0,-2.285746765E-1,9.713732691E0
8.077718833E0,6.986571350E0,-7.556136932E0,-3.387455750E-1,1.029670496E1
8.087652833E0,7.230414276E0,-7.922724609E0,-5.324427795E-1,1.073927144E1
8.097585833E0,7.319628754E0,-8.189918976E0,-6.038442993E-1,1.100074388E1
8.107519833E0,7.375612335E0,-8.343798981E0,-8.419990540E-1,1.116815120E1
8.117453833E0,7.603588257E0,-8.350984039E0,-1.076261902E0,1.134512356E1
8.127386833E0,7.930059357E0,-8.047864380E0,-1.024170227E0,1.134472949E1
8.137320833E0,8.296347656E0,-7.557484131E0,-8.994795227E-1,1.125850853E1
8.147253833E0,8.721912689E0,-7.351662140E0,-9.464817810E-1,1.144615765E1
8.157187833E0,9.179062042E0,-7.509733429E0,-1.301094360E0,1.193080562E1
8.167120833E0,9.416168976E0,-8.069419556E0,-1.894909515E0,1.254473803E1
8.177054833E0,9.257049866E0,-8.995244293E0,-2.487227783E0,1.314510153E1
8.186987833E0,8.745862885E0,-9.964329071E0,-2.870730286E0,1.356536265E1
8.196921833E0,8.004304962E0,-1.082683548E1,-3.106490021E0,1.381808759E1
8.206854833E0,6.957531738E0,-1.097502731E1,-3.294499054E0,1.340567777E1
8.216788833E0,6.130950623E0,-1.003812561E1,-3.284170532E0,1.221221918E1
8.226721833E0,6.144422607E0,-8.236472168E0,-3.168161774E0,1.075316939E1
8.236655833E0,7.031627655E0,-6.377038879E0,-2.940634918E0,9.937693197E0
8.246588833E0,8.393795013E0,-5.089416504E0,-2.564317474E0,1.014562365E1
8.256522833E0,9.649533691E0,-4.553081818E0,-2.285896454E0,1.091189155E1
8.266455833E0,1.038315811E1,-4.601580963E0,-2.271825714E0,1.158212898E1
8.276389833E0,1.055515045E1,-4.981191559E0,-2.603386230E0,1.195830633E1
8.286322833E0,1.043974045E1,-5.689817963E0,-3.240760803E0,1.232334125E1
8.296256833E0,9.909243622E0,-6.233038330E0,-3.812721405E0,1.231181223E1
8.306189833E0,9.035959625E0,-6.597230988E0,-3.947890320E0,1.186414182E1
8.316123833E0,8.016280060E0,-6.671177216E0,-3.568429413E0,1.102266029E1
8.326056833E0,7.173532562E0,-6.474785614E0,-2.888094177E0,1.008580716E1
8.335990833E0,6.463259583E0,-6.021977234E0,-2.050436096E0,9.068749772E0
8.345923833E0,5.977220306E0,-5.421126709E0,-1.046773224E0,8.137045629E0
8.355857833E0,5.914201355E0,-4.895868988E0,-3.382965088E-2,7.677789738E0
8.365790833E0,6.088888092E0,-4.315376129E0,6.879693604E-1,7.494686863E0
8.375724833E0,6.409072266E0,-3.673510895E0,9.645941162E-1,7.449921571E0
8.385657833E0,6.776707764E0,-3.084934845E0,8.605604553E-1,7.495408955E0
8.395591833E0,6.999594269E0,-2.519111481E0,5.038522339E-1,7.456145764E0
8.405525833E0,6.996151428E0,-2.027982788E0,5.149291992E-2,7.284332537E0
8.415458833E0,6.768774261E0,-1.678609314E0,-3.543132019E-1,6.982805459E0
8.425392833E0,6.404132538E0,-1.492097168E0,-6.306385803E-1,6.605828679E0
8.435325833E0,6.075565796E0,-1.483714600E0,-7.271878052E-1,6.296245775E0
8.445259833E0,5.781427460E0,-1.570534058E0,-5.836363220E-1,6.019311593E0
8.455192833E0,5.579497375E0,-1.726210327E0,-2.489323425E-1,5.845730097E0
8.465126833E0,5.443130951E0,-1.898801422E0,1.538800049E-1,5.766870941E0
8.475059833E0,5.411396942E0,-2.051932983E0,5.941145325E-1,5.817784622E0
8.484993833E0,5.538782043E0,-2.112107849E0,1.054706726E0,6.020922884E0
8.494926833E0,5.823939056E0,-2.083217926E0,1.450783081E0,6.353175160E0
8.504860833E0,6.396348724E0,-2.022444305E0,1.671573944E0,6.913589330E0
8.514793833E0,7.141499176E0,-1.857487335E0,1.732197876E0,7.579695189E0
8.524727833E0,7.834408264E0,-1.588796082E0,1.613195343E0,8.155036790E0
8.534660833E0,8.452173615E0,-1.354832611E0,1.370250549E0,8.669048205E0
8.544594833E0,8.948541412E0,-1.269809418E0,1.082848206E0,9.102822068E0
8.554527833E0,9.315877533E0,-1.327888641E0,8.241860962E-1,9.446065063E0
8.564461833E0,9.749825134E0,-1.413360901E0,6.577322388E-1,9.873666537E0
8.574394833E0,1.024065445E1,-1.557660828E0,4.751119995E-1,1.036933181E1
8.584328833E0,1.078267731E1,-1.672023010E0,3.763174438E-1,1.091803122E1
8.594261833E0,1.123458755E1,-1.700463867E0,3.513194275E-1,1.136797960E1
8.604195833E0,1.155192764E1,-1.710043945E0,2.845582581E-1,1.168127801E1
8.614128833E0,1.185414917E1,-1.768422546E0,2.445913696E-1,1.198782698E1
8.624062833E0,1.211864914E1,-2.034120026E0,2.535726929E-1,1.229079332E1
8.633995833E0,1.229213837E1,-2.528841248E0,3.058140564E-1,1.255329542E1
8.643929833E0,1.241667938E1,-3.217409363E0,4.387376404E-1,1.283425653E1
8.653862833E0,1.240171051E1,-3.846251678E0,6.954537964E-1,1.300306624E1
8.663796833E0,1.222941879E1,-4.120032349E0,1.016835480E0,1.294477906E1
8.673730833E0,1.195234497E1,-4.010609894E0,1.387913818E0,1.268344775E1
8.683663833E0,1.180475189E1,-3.649261322E0,1.789378967E0,1.248483690E1
8.693597833E0,1.198153427E1,-3.193010101E0,2.181563416E0,1.259014281E1
8.703530833E0,1.233300339E1,-2.769840088E0,2.213447113E0,1.283254982E1
8.713464833E0,1.281649796E1,-2.781815186E0,1.559008026E0,1.320725640E1
8.723397833E0,1.335358109E1,-3.666774902E0,5.303471375E-1,1.385801696E1
8.733331833E0,1.350326981E1,-5.152734833E0,-1.739382935E-1,1.445403841E1
8.743264833E0,1.300286041E1,-6.618486786E0,-1.407073975E-1,1.459104331E1
8.753198833E0,1.236548584E1,-7.732021179E0,2.408491516E-1,1.458586301E1
8.763131833E0,1.187675217E1,-8.539142761E0,6.509962463E-1,1.464233578E1
8.773065833E0,1.125314896E1,-8.409212952E0,1.194515991E0,1.409876209E1
8.782998833E0,1.080138840E1,-7.106771393E0,1.800156555E0,1.305437684E1
8.792932833E0,1.129925308E1,-5.358706512E0,2.047891388E0,1.267212353E1
8.802865833E0,1.258672577E1,-3.886517944E0,1.875749359E0,1.330598072E1
8.812799833E0,1.416564240E1,-3.151246948E0,1.574425964E0,1.459707501E1
8.822732833E0,1.567959412E1,-3.190016327E0,1.209484863E0,1.604645535E1
8.832666833E0,1.631083145E1,-3.762875061E0,7.578739929E-1,1.675639652E1
8.842599833E0,1.604797806E1,-4.847519531E0,4.216731262E-1,1.676943212E1
8.852533833E0,1.518651947E1,-6.077661438E0,2.609074402E-1,1.635959703E1
8.862466833E0,1.409049866E1,-6.953340454E0,3.165916443E-1,1.571595769E1
8.872400833E0,1.292636948E1,-7.220834198E0,7.195536804E-1,1.482394117E1
8.882333833E0,1.200009567E1,-6.870562592E0,1.291065216E0,1.388790034E1
8.892267833E0,1.155881332E1,-6.168672180E0,1.680854645E0,1.320923746E1
8.902200833E0,1.160955780E1,-5.293292542E0,1.766626282E0,1.288106155E1
8.912134833E0,1.172122559E1,-4.534969482E0,1.774859161E0,1.269264364E1
8.922067833E0,1.154085068E1,-4.151167603E0,1.582958221E0,1.236645396E1
8.932001833E0,1.103340591E1,-4.087100830E0,1.132694550E0,1.182046684E1
8.941934833E0,1.034453842E1,-4.040098572E0,4.340972900E-1,1.111396923E1
8.951868833E0,9.717642059E0,-3.917653198E0,-4.269122314E-1,1.048631622E1
8.961801833E0,9.183702393E0,-3.788621521E0,-1.186432800E0,1.000508198E1
8.971735833E0,8.633895721E0,-3.697760468E0,-1.626068573E0,9.532139676E0
8.981669833E0,8.215665436E0,-3.667972412E0,-1.888023834E0,9.193248292E0
8.991602833E0,7.716603241E0,-3.767964478E0,-1.882335663E0,8.791285994E0
9.001537500E0,7.052434387E0,-4.022584991E0,-1.899100800E0,8.338141558E0
9.011470500E0,6.165229340E0,-4.412374420E0,-2.225721588E0,7.901451602E0
9.021404500E0,5.161267090E0,-4.782105560E0,-3.100352783E0,7.688914029E0
9.031337500E0,4.684209137E0,-4.871769104E0,-3.912414093E0,7.809157027E0
9.041271500E0,4.516108704E0,-4.689298553E0,-4.291126556E0,7.797340949E0
9.051204500E0,4.740492096E0,-4.443958740E0,-4.147126007E0,7.708416745E0
9.061138500E0,5.065765686E0,-4.229903870E0,-3.387904816E0,7.418353441E0
9.071071500E0,5.303471375E0,-4.074377289E0,-2.449506226E0,7.122319823E0
9.081005500E0,5.539979553E0,-3.879931641E0,-1.415606232E0,6.910078436E0
9.090938500E0,5.624254303E0,-3.693269806E0,-3.239263916E-1,6.736275427E0
9.100872500E0,5.395529938E0,-3.636986847E0,5.242098999E-1,6.527956239E0
9.110805500E0,4.828509064E0,-3.798950043E0,9.089099121E-1,6.210687436E0
9.120739500E0,3.951333160E0,-4.188290405E0,6.863227844E-1,5.798779978E0
9.130672500E0,3.102448425E0,-4.719535675E0,1.601669312E-2,5.647960672E0
9.140606500E0,2.731968842E0,-5.177583160E0,-6.948550415E-1,5.895239152E0
9.150539500E0,2.749931488E0,-5.641169128E0,-1.142274628E0,6.378848144E0
9.160473500E0,3.000809784E0,-6.244414673E0,-1.516047363E0,7.091965424E0
9.170406500E0,3.390449524E0,-6.674021301E0,-1.830693054E0,7.706435321E0
9.180340500E0,3.916605377E0,-6.944359131E0,-1.865121460E0,8.187954536E0
9.190273500E0,4.614154816E0,-7.195686493E0,-1.908381500E0,8.758438715E0
9.200207500E0,5.251529388E0,-7.421267395E0,-2.119592285E0,9.335225874E0
9.210140500E0,5.784570923E0,-7.566166077E0,-2.467468872E0,9.838522882E0
9.220074500E0,6.201903076E0,-7.632029114E0,-2.851869507E0,1.023936667E1
9.230007500E0,6.430777130E0,-7.533234558E0,-3.199297028E0,1.040865116E1
9.239941500E0,6.410120087E0,-7.384294281E0,-3.354524231E0,1.033780801E1
9.249874500E0,6.378236389E0,-7.205715637E0,-3.288062439E0,1.016934570E1
9.259808500E0,6.510261841E0,-7.185657349E0,-3.255879364E0,1.022829073E1
9.269741500E0,6.702312469E0,-7.443421326E0,-3.481759644E0,1.060415785E1
9.279675500E0,6.933731232E0,-7.873177643E0,-4.007167053E0,1.123035809E1
9.289608500E0,7.211104431E0,-8.796008606E0,-4.552333374E0,1.225126661E1
9.299542500E0,7.255561981E0,-1.007569748E1,-4.854105835E0,1.333136163E1
9.309475500E0,7.228168945E0,-1.126811783E1,-4.938979340E0,1.426921240E1
9.319409500E0,7.153923340E0,-1.215786758E1,-5.005441132E0,1.496819309E1
9.329343500E0,6.987319794E0,-1.231429230E1,-4.996010742E0,1.501414520E1
9.339276500E0,7.051835632E0,-1.146316223E1,-4.605173492E0,1.422462994E1
9.349210500E0,7.419920197E0,-9.821526031E0,-3.831881561E0,1.289189302E1
9.359143500E0,8.143665161E0,-8.130492554E0,-3.020868073E0,1.189747180E1
9.369077500E0,9.295370178E0,-6.981332245E0,-2.415676575E0,1.187343253E1
9.379010500E0,1.034004776E1,-6.472989349E0,-1.849404144E0,1.233841459E1
9.388944500E0,1.099373840E1,-6.400240631E0,-1.275647278E0,1.278485980E1
9.398877500E0,1.128278732E1,-6.667135620E0,-8.547225952E-1,1.313326075E1
9.408811500E0,1.121063736E1,-7.170239410E0,-7.095245361E-1,1.332644545E1
9.418744500E0,1.092143875E1,-7.550598450E0,-6.433621216E-1,1.329297845E1
9.428678500E0,1.039588165E1,-7.659272461E0,-5.370831299E-1,1.292390298E1
9.438611500E0,9.632618866E0,-7.473209381E0,-4.067042542E-1,1.219842666E1
9.448545500E0,8.790919189E0,-7.113956451E0,-3.031196594E-1,1.131284748E1
9.458478500E0,7.974965973E0,-6.669680328E0,-2.107617188E-1,1.039851617E1
9.468412500E0,7.353009338E0,-6.167324982E0,-2.418969727E-1,9.600060307E0
9.478345500E0,7.002887421E0,-5.519921265E0,-4.227209473E-1,8.926850284E0
9.488279500E0,6.800957336E0,-4.856201477E0,-7.518864441E-1,8.390533160E0
9.498212500E0,6.706952820E0,-4.283642120E0,-1.112486572E0,8.035572930E0
9.508146500E0,6.687044220E0,-3.794459381E0,-1.326541443E0,7.802191653E0
9.518079500E0,6.628216553E0,-3.344944153E0,-1.404828644E0,7.556153094E0
9.528013500E0,6.512357483E0,-2.917732544E0,-1.406624908E0,7.273414385E0
9.537946500E0,6.352340240E0,-2.621947632E0,-1.274150391E0,6.989298615E0
9.547880500E0,6.136788483E0,-2.496508484E0,-1.081650696E0,6.712875369E0
9.557813500E0,5.946085052E0,-2.470612335E0,-8.078700256E-1,6.489414977E0
9.567747500E0,6.091582489E0,-2.386936340E0,-6.123765564E-1,6.571137448E0
9.577680500E0,5.633684692E0,-2.398162994E0,-3.246748352E-1,6.131476389E0
9.587614500E0,5.164111176E0,-2.633773041E0,-6.930587769E-2,5.797379405E0
9.597547500E0,5.337750092E0,-2.808160400E0,-1.173559570E-1,6.032504728E0
9.607481500E0,5.399272156E0,-2.841391296E0,-1.785786438E-1,6.103895039E0
9.617414500E0,5.276677094E0,-3.011437683E0,-1.811233521E-1,6.078230313E0
9.627348500E0,5.386249237E0,-3.324287109E0,-4.685256958E-2,6.329673040E0
9.637281500E0,5.718408508E0,-3.543281708E0,1.490899658E-1,6.728838603E0
9.647215500E0,6.198759613E0,-3.565585327E0,3.564088440E-1,7.159961364E0
9.657149500E0,6.895410919E0,-3.471431122E0,5.584886169E-1,7.740118559E0
9.667082500E0,7.889942780E0,-3.295097809E0,6.468049622E-1,8.574801647E0
9.677016500E0,8.862470398E0,-3.120710449E0,6.936575317E-1,9.421431740E0
9.686949500E0,9.615105286E0,-2.877316589E0,7.819738770E-1,1.006681099E1
9.696883500E0,1.025502457E1,-2.675236816E0,8.509803772E-1,1.063233693E1
9.706816500E0,1.090587112E1,-2.695594482E0,8.674461365E-1,1.126750715E1
9.716750500E0,1.139759857E1,-3.048261108E0,7.946974182E-1,1.182491831E1
9.726683500E0,1.162677200E1,-3.510200500E0,7.759863281E-1,1.216985988E1
9.736617500E0,1.181747543E1,-3.886817322E0,9.228309631E-1,1.247444153E1
9.746550500E0,1.220786362E1,-4.270918579E0,9.861492920E-1,1.297093559E1
9.756484500E0,1.253628067E1,-4.794080658E0,9.156459045E-1,1.345287887E1
9.766417500E0,1.264794846E1,-5.245541840E0,9.145980835E-1,1.372307542E1
9.776351500E0,1.241757751E1,-5.508395233E0,1.086590424E0,1.362788788E1
9.786284500E0,1.231593887E1,-5.478756866E0,1.461111603E0,1.355853879E1
9.796218500E0,1.245380219E1,-5.140460358E0,1.811383209E0,1.359421313E1
9.806151500E0,1.287113434E1,-4.783752136E0,2.003433838E0,1.387674785E1
9.816085500E0,1.357407257E1,-4.822222137E0,1.811233521E0,1.451860322E1
9.826018500E0,1.432805466E1,-5.520669708E0,1.363065491E0,1.541521624E1
9.835952500E0,1.466694992E1,-6.615792389E0,1.086740112E0,1.612665908E1
9.845885500E0,1.429078217E1,-7.794441376E0,1.117575989E0,1.631651762E1
9.855819500E0,1.371807312E1,-8.994346161E0,1.361269226E0,1.646015938E1
9.865752500E0,1.327649139E1,-1.000025436E1,1.769021301E0,1.671525493E1
9.875686500E0,1.287772064E1,-1.024843826E1,2.220033417E0,1.660706850E1
9.885619500E0,1.259241394E1,-9.261690216E0,2.758463745E0,1.587315081E1
9.895553500E0,1.288685165E1,-7.368876343E0,3.268453217E0,1.520046284E1
9.905486500E0,1.362706238E1,-5.223088531E0,3.393892365E0,1.498319019E1
9.915420500E0,1.488205261E1,-3.519181824E0,2.922522583E0,1.556924112E1
9.925353500E0,1.627535522E1,-2.593057709E0,2.033371582E0,1.660559351E1
9.935287500E0,1.669807617E1,-2.402354279E0,1.117575989E0,1.690698169E1
9.945220500E0,1.582898346E1,-2.808908844E0,1.700463867E-1,1.607717643E1
9.955154500E0,1.424617493E1,-3.854035492E0,-4.299060059E-1,1.476454905E1
9.965087500E0,1.281051041E1,-5.378465424E0,-4.998106384E-1,1.390276512E1
9.975021500E0,1.133697464E1,-6.753955078E0,-3.237767029E-1,1.320029297E1
9.984954500E0,9.645791473E0,-7.611821136E0,-2.784210205E-2,1.228746879E1
9.994887958E0,8.152796173E0,-7.885003052E0,2.517764282E-1,1.134481159E1
1.000482196E1,7.141050110E0,-7.698341217E0,4.583468628E-1,1.051042987E1
1.001475496E1,7.004833374E0,-7.187453613E0,6.890171814E-1,1.005991674E1
1.002468896E1,7.779023438E0,-6.590794373E0,1.022373962E0,1.024680558E1
1.003462196E1,8.539442139E0,-6.012696533E0,1.249751129E0,1.051838721E1
1.004455596E1,9.044192505E0,-5.534291382E0,1.114282837E0,1.066149264E1
1.005448896E1,9.489516449E0,-5.202581177E0,8.725355530E-1,1.085721381E1
1.006442296E1,9.601782990E0,-4.999154205E0,7.006929016E-1,1.084789150E1
1.007435596E1,9.253457336E0,-4.957690430E0,4.348457336E-1,1.050686718E1
1.008428996E1,8.870852966E0,-5.146148529E0,1.478924561E-1,1.025654665E1
1.009422296E1,8.512647858E0,-5.491480408E0,1.044827271E-1,1.013076736E1
1.010415696E1,8.054450684E0,-5.857469330E0,1.697470093E-1,9.960569101E0
1.011408996E1,7.810757446E0,-6.082601166E0,9.909393311E-2,9.900292341E0
1.012402396E1,7.692054291E0,-6.011948090E0,-2.350112915E-2,9.762774777E0
1.013395696E1,7.505991211E0,-5.954467621E0,-1.428030396E-1,9.582065613E0
1.014389096E1,7.347620544E0,-5.914949799E0,-3.851490784E-1,9.440471312E0
1.015382396E1,7.288643188E0,-5.823489990E0,-6.489006042E-1,9.351921043E0
1.016375796E1,7.234605560E0,-5.707630920E0,-6.801855469E-1,9.240087701E0
1.017369096E1,6.780300293E0,-5.858966217E0,-5.674699402E-1,8.978974292E0
1.018362496E1,6.039041748E0,-6.275699615E0,-5.839356995E-1,8.728998327E0
1.019355796E1,5.369783478E0,-6.642137604E0,-7.183561707E-1,8.571382743E0
1.020349196E1,4.844076691E0,-6.787335663E0,-9.243278503E-1,8.389719087E0
1.021342496E1,4.609813843E0,-6.724466400E0,-1.044527893E0,8.219481161E0
1.022335896E1,4.462370453E0,-6.561006317E0,-9.815089417E-1,7.995180658E0
1.023329196E1,4.342918854E0,-6.272256775E0,-8.740324402E-1,7.678937552E0
1.024322596E1,4.466112671E0,-6.064189453E0,-7.705975342E-1,7.570625910E0
1.025315896E1,4.648283844E0,-6.122717743E0,-5.502557373E-1,7.706944701E0
1.026309296E1,4.849465485E0,-6.386319580E0,-2.749781799E-1,8.023590609E0
1.027302596E1,4.923411713E0,-6.613846436E0,-1.734892273E-1,8.247002248E0
1.028295996E1,4.888534241E0,-6.850055237E0,-3.182382202E-1,8.421537825E0
1.029289296E1,4.867877197E0,-7.300019531E0,-7.506889343E-1,8.806250476E0
1.030282696E1,4.667893066E0,-7.719746704E0,-1.556463318E0,9.154577703E0
1.031275996E1,4.326303406E0,-7.955506439E0,-2.514920197E0,9.398500277E0
1.032269396E1,4.202959900E0,-8.111931152E0,-3.360062714E0,9.734388547E0
1.033262696E1,4.232747955E0,-8.060887299E0,-3.780388641E0,9.858265444E0
1.034256096E1,4.281247101E0,-7.785909119E0,-3.690425720E0,9.621262887E0
1.035249396E1,4.456532593E0,-7.430847473E0,-3.404220886E0,9.309505721E0
1.036242796E1,4.764591980E0,-7.103627930E0,-3.290158081E0,9.164497078E0
1.037236096E1,5.235063629E0,-7.026538239E0,-3.496279449E0,9.434092474E0
1.038229496E1,5.457052002E0,-7.466174011E0,-3.963158569E0,1.006130194E1
1.039222896E1,5.406157837E0,-8.154592438E0,-4.706812134E0,1.085716357E1
1.040216196E1,5.390290833E0,-8.895551605E0,-5.268144836E0,1.165930631E1
1.041209596E1,5.523813171E0,-9.665101318E0,-5.253625031E0,1.230964140E1
1.042202896E1,5.337301025E0,-1.022358994E1,-4.879403229E0,1.252266542E1
1.043196296E1,4.634213104E0,-1.013377670E1,-4.414769440E0,1.198580621E1
1.044189596E1,4.453688507E0,-9.390422516E0,-3.878883820E0,1.109329149E1
1.045182996E1,5.270090790E0,-8.308622131E0,-3.537743225E0,1.045574893E1
1.046176296E1,6.609655151E0,-7.261399841E0,-3.569776611E0,1.044790763E1
1.047169696E1,8.052654419E0,-6.672674103E0,-3.646417236E0,1.107547658E1
1.048162996E1,9.204509125E0,-6.597979431E0,-3.709885254E0,1.191719637E1
1.049156396E1,9.876312103E0,-6.846612396E0,-3.848047943E0,1.261844345E1
1.050149696E1,1.008333160E1,-7.193590851E0,-3.999981995E0,1.301618921E1
1.051143096E1,9.922116852E0,-7.412585449E0,-3.869154053E0,1.297556083E1
1.052136396E1,9.332642670E0,-7.437284088E0,-3.589535522E0,1.246178876E1
1.053129796E1,8.550668793E0,-7.332352295E0,-3.316203918E0,1.174199878E1
1.054123096E1,8.051456909E0,-7.001091156E0,-2.975362701E0,1.107673323E1
1.055116496E1,7.860603790E0,-6.452781372E0,-2.668051758E0,1.051408482E1
1.056109796E1,7.856262817E0,-5.879922638E0,-2.661166077E0,1.016740678E1
1.057103196E1,7.934849396E0,-5.373974762E0,-2.949466553E0,1.002700317E1
1.058096496E1,7.945477295E0,-4.953499146E0,-3.248245239E0,9.910542889E0
1.059089896E1,7.913593597E0,-4.513863373E0,-3.392096100E0,9.721432103E0
1.060083196E1,7.847131805E0,-4.076173553E0,-3.365601196E0,9.461497758E0
1.061076596E1,7.736811218E0,-3.665427704E0,-3.171305237E0,9.129665108E0
1.062069896E1,7.482041016E0,-3.306324463E0,-2.859353943E0,8.665369247E0
1.063063296E1,7.111112366E0,-3.003354492E0,-2.483635254E0,8.109038251E0
1.064056596E1,6.734944611E0,-2.809507599E0,-2.048340454E0,7.579479565E0
1.065049996E1,6.404282227E0,-2.673590240E0,-1.577270050E0,7.116930267E0
1.066043296E1,6.154751129E0,-2.570604401E0,-1.130748596E0,6.765172639E0
1.067036696E1,5.913303223E0,-2.595153351E0,-7.800279236E-1,6.504645992E0
1.068029996E1,5.636678467E0,-2.685265961E0,-5.463638306E-1,6.267480423E0
1.069023396E1,5.497018890E0,-2.804867249E0,-4.361929321E-1,6.186659942E0
1.070016696E1,5.655239868E0,-2.967279510E0,-3.594026184E-1,6.396534679E0
1.071010096E1,5.910608826E0,-3.041225739E0,-2.161505127E-1,6.650644460E0
1.072003396E1,6.310726776E0,-3.016377411E0,-1.222956848E-1,6.995624444E0
1.072996796E1,6.702312469E0,-2.925067291E0,-8.337661743E-2,7.313273054E0
1.073990096E1,7.007677460E0,-2.840193787E0,-9.894424438E-2,7.562012569E0
1.074983496E1,7.385791168E0,-2.800526276E0,-9.475296021E-2,7.899483320E0
1.075976796E1,7.846083984E0,-2.680026855E0,2.544708252E-2,8.291213746E0
1.076970196E1,8.240813141E0,-2.458487549E0,1.613644409E-1,8.601232512E0
1.077963496E1,8.729696503E0,-2.186802521E0,8.876541138E-2,8.999865865E0
1.078956896E1,9.311237183E0,-1.969155121E0,-9.056167603E-2,9.517610581E0
1.079950196E1,9.823921051E0,-1.886077881E0,-2.421963501E-1,1.000626672E1
1.080943596E1,1.024619293E1,-1.901196442E0,-2.894979858E-1,1.042510559E1
1.081936896E1,1.051518356E1,-2.113754425E0,-3.477268982E-1,1.073116756E1
1.082930296E1,1.062535446E1,-2.497256927E0,-4.739144897E-1,1.092515650E1
1.083923696E1,1.059706329E1,-2.920277252E0,-5.831872559E-1,1.100753728E1
1.084916996E1,1.061607376E1,-3.475323029E0,-6.310876465E-1,1.118826009E1
1.085910396E1,1.065469345E1,-4.131408691E0,-6.348298645E-1,1.144526274E1
1.086903696E1,1.071352112E1,-4.685556335E0,-5.676196289E-1,1.170709891E1
1.087897096E1,1.093775482E1,-4.951702881E0,-4.227209473E-1,1.201384763E1
1.088890396E1,1.118848343E1,-4.864584045E0,-2.990780640E-1,1.220392507E1
1.089883796E1,1.148666336E1,-4.495301971E0,-1.814227295E-1,1.233629155E1
1.090877096E1,1.207538910E1,-4.106710052E0,-2.884501648E-1,1.275787180E1
1.091870496E1,1.281200729E1,-3.712130585E0,-4.355941772E-1,1.334605510E1
1.092863796E1,1.343860428E1,-3.799997864E0,-7.053332520E-1,1.398333164E1
1.093857196E1,1.367586090E1,-4.700525208E0,-1.066981201E0,1.450043301E1
1.094850496E1,1.331256638E1,-5.983357544E0,-1.183439026E0,1.464327555E1
1.095843896E1,1.257774445E1,-7.038962402E0,-9.818083191E-1,1.444681953E1
1.096837196E1,1.208661575E1,-8.009544067E0,-7.461982727E-1,1.451881154E1
1.097830596E1,1.188498505E1,-8.535400543E0,-6.207591248E-1,1.464552061E1
1.098823896E1,1.172137527E1,-8.158334656E0,-4.882846069E-1,1.428941862E1
1.099817312E1,1.202419556E1,-7.037166138E0,-4.772076416E-1,1.394025513E1
1.100810612E1,1.321062836E1,-5.687872009E0,-7.893086243E-1,1.440470748E1
1.101804013E1,1.488579483E1,-4.430037689E0,-1.201102295E0,1.557738002E1
1.102797312E1,1.643582153E1,-3.581302643E0,-1.402733002E0,1.687985835E1
1.103790712E1,1.759560974E1,-3.669768677E0,-1.718725891E0,1.805620954E1
1.104784012E1,1.771536072E1,-4.242777100E0,-1.763931885E0,1.830154689E1
1.105777413E1,1.660901138E1,-5.058281250E0,-1.195563812E0,1.740329972E1
1.106770712E1,1.488354950E1,-6.043382721E0,-3.495231628E-1,1.606750406E1
1.107764112E1,1.341600128E1,-6.969656525E0,2.860551453E-1,1.512107900E1
1.108757412E1,1.189022415E1,-7.395820313E0,7.378157043E-1,1.402212396E1
1.109750813E1,1.074869797E1,-7.303612061E0,8.846603394E-1,1.302535531E1
1.110744112E1,1.017524048E1,-6.850354614E0,8.409512329E-1,1.229512408E1
1.111737512E1,1.022433838E1,-6.177653503E0,5.831872559E-1,1.195995842E1
1.112730813E1,1.052476364E1,-5.503156128E0,3.396437073E-1,1.188152915E1
1.113724212E1,1.069960007E1,-5.030888214E0,1.228944397E-1,1.182397483E1
1.114717512E1,1.064750839E1,-4.691543884E0,-7.888595581E-2,1.163555938E1
1.115710912E1,1.028840515E1,-4.524940338E0,-2.489323425E-1,1.124225658E1
1.116704213E1,9.618248749E0,-4.519252167E0,-6.322851562E-1,1.064585054E1
1.117697612E1,8.873996429E0,-4.481979675E0,-1.132993927E0,1.000597970E1
1.118690912E1,8.198750610E0,-4.412374420E0,-1.478625183E0,9.427348091E0
1.119684312E1,7.672145691E0,-4.377646637E0,-1.644779663E0,8.985038103E0
1.120677613E1,7.271428986E0,-4.365372162E0,-1.808090057E0,8.671755489E0
1.121671012E1,6.945406952E0,-4.431085510E0,-1.889670410E0,8.452458269E0
1.122664312E1,6.696324921E0,-4.529131622E0,-1.874851227E0,8.298726879E0
1.123657713E1,6.549629974E0,-4.694387970E0,-1.666334839E0,8.228706035E0
1.124651012E1,6.312972107E0,-4.817282410E0,-1.435514832E0,8.069729207E0
1.125644412E1,6.069129181E0,-4.842879181E0,-1.288520508E0,7.870711078E0
1.126637712E1,5.882467346E0,-4.854854279E0,-1.200353851E0,7.721002624E0
1.127631113E1,5.720953217E0,-4.864134979E0,-1.175505524E0,7.600718916E0
1.128624412E1,5.664969635E0,-4.884342957E0,-1.149459686E0,7.567690840E0
1.129617812E1,5.743855591E0,-4.922214203E0,-1.009500732E0,7.631458670E0
1.130611212E1,5.789660339E0,-5.023852844E0,-8.870553589E-1,7.716613989E0
1.131604513E1,5.747148743E0,-5.095404053E0,-8.364605713E-1,7.726093930E0
1.132597912E1,5.609734497E0,-5.157674561E0,-8.069718933E-1,7.663023662E0
1.133591212E1,5.452112274E0,-5.241799622E0,-7.243437195E-1,7.597806614E0
1.134584612E1,5.265899506E0,-5.349276123E0,-7.608677673E-1,7.544757942E0
1.135577913E1,5.215304718E0,-5.488187256E0,-9.776170349E-1,7.633828510E0
1.136571312E1,5.374872894E0,-5.528902588E0,-1.415306854E0,7.839714022E0
1.137564612E1,5.433850250E0,-5.511987762E0,-2.228415985E0,8.054475491E0
1.138558013E1,5.518873444E0,-5.616470490E0,-3.089126129E0,8.458451696E0
1.139551312E1,5.656736755E0,-5.941744080E0,-3.638932800E0,8.974676894E0
1.140544712E1,5.738915863E0,-6.340664520E0,-3.870501251E0,9.387223326E0
1.141538012E1,5.804030457E0,-6.708150330E0,-3.815864868E0,9.656442154E0
1.142531413E1,5.832920380E0,-7.039710846E0,-3.668122101E0,9.850665394E0
1.143524712E1,5.811514893E0,-7.244485016E0,-3.609893188E0,9.964316200E0
1.144518112E1,5.779331818E0,-7.296726379E0,-3.809128876E0,1.005745270E1
1.145511412E1,5.770051117E0,-7.222630463E0,-4.181404724E0,1.014613356E1
1.146504813E1,5.859415283E0,-6.950346680E0,-4.546944580E0,1.016438741E1
1.147498112E1,6.083948364E0,-6.691235504E0,-4.915478210E0,1.029315240E1
1.148491512E1,6.354884949E0,-6.585106201E0,-5.319787445E0,1.058528813E1
1.149484813E1,6.618636475E0,-6.782096558E0,-5.669011230E0,1.104268404E1
1.150478213E1,6.696773987E0,-7.360942841E0,-5.809119873E0,1.152285273E1
1.151471512E1,6.492149506E0,-8.088280334E0,-5.721701660E0,1.184508986E1
1.152464912E1,6.132597198E0,-8.799601135E0,-5.637426910E0,1.211702565E1
1.153458213E1,5.740861816E0,-9.351503448E0,-5.799240417E0,1.241125701E1
1.154451612E1,5.338797913E0,-9.515262909E0,-6.221063232E0,1.255964248E1
1.155444912E1,5.135370941E0,-9.084608459E0,-6.744375000E0,1.242532654E1
1.156438312E1,5.404660950E0,-8.082741852E0,-7.016509094E0,1.199051607E1
1.157431613E1,6.406078491E0,-6.819967804E0,-6.624474335E0,1.146444341E1
1.158425012E1,7.798482971E0,-5.786067810E0,-5.747148743E0,1.128382187E1
1.159418312E1,8.956025848E0,-5.375471649E0,-4.852309570E0,1.151742170E1
1.160411712E1,9.641450500E0,-5.575904846E0,-3.808380432E0,1.177081323E1
1.161405013E1,9.777667236E0,-6.137237549E0,-2.804867249E0,1.188005646E1
1.162398412E1,9.555080109E0,-6.763834534E0,-2.046244812E0,1.188428085E1
1.163391712E1,9.028624878E0,-7.243437195E0,-1.539099426E0,1.167699776E1
1.164385113E1,8.376730499E0,-7.454797668E0,-1.144519958E0,1.127180323E1
1.165378412E1,7.814948730E0,-7.422464905E0,-7.535330200E-1,1.080436120E1
1.166371812E1,7.462282104E0,-7.062463531E0,-3.778143311E-1,1.028138070E1
1.167365112E1,7.356901245E0,-6.453230438E0,-2.384541321E-1,9.789026478E0
1.168358513E1,7.518714752E0,-5.781128082E0,-2.653981018E-1,9.488042453E0
1.169351812E1,7.887996826E0,-5.175337830E0,-3.709286499E-1,9.441514902E0
1.170345212E1,8.210875397E0,-4.612957306E0,-5.123844910E-1,9.431881454E0
1.171338512E1,8.374335480E0,-4.003125458E0,-5.986051941E-1,9.301227679E0
1.172331913E1,8.313711548E0,-3.495081940E0,-5.806425476E-1,9.037175623E0
1.173325212E1,8.068222046E0,-3.106939087E0,-4.116439819E-1,8.655560539E0
1.174318612E1,7.763306122E0,-2.880909119E0,-1.377136230E-1,8.281758529E0
1.175311913E1,7.448810120E0,-2.730471954E0,2.447410583E-1,7.937263223E0
1.176305313E1,7.308402100E0,-2.639161835E0,6.129753113E-1,7.794463110E0
1.177298612E1,7.348368988E0,-2.463576965E0,9.684860229E-1,7.810614792E0
1.178292012E1,7.242838440E0,-2.221679993E0,1.169967041E0,7.665728506E0
1.179285313E1,7.029831390E0,-2.190544739E0,1.180594940E0,7.457266258E0
1.180278712E1,6.712491302E0,-2.391576691E0,1.055904236E0,7.203618001E0
1.181272012E1,6.341412964E0,-2.636317749E0,7.699987793E-1,6.910614139E0
1.182265412E1,6.114484863E0,-2.900518341E0,4.426295471E-1,6.782024234E0
1.183258813E1,5.983507233E0,-3.171305237E0,1.032852173E-1,6.772754502E0
1.184252112E1,6.186185760E0,-3.253484344E0,-4.406835938E-1,7.003446057E0
1.185245512E1,7.088060303E0,-2.935994568E0,-1.233734436E0,7.770634698E0
1.186238812E1,8.903036041E0,-2.402204590E0,-1.817370758E0,9.398801738E0
1.187232213E1,1.107816284E1,-1.861079865E0,-1.558409271E0,1.134098539E1
1.188225512E1,1.271141647E1,-1.181493073E0,-5.727090454E-1,1.277904653E1
1.189218912E1,1.339070389E1,-5.921685791E-1,4.911286926E-1,1.341278575E1
1.190212213E1,1.343620926E1,-4.062551880E-1,1.387614441E0,1.351377950E1
1.191205613E1,1.307171722E1,-6.764433289E-1,1.992506561E0,1.323999430E1
1.192198912E1,1.244991028E1,-1.164129181E0,2.317630463E0,1.271718812E1
1.193192312E1,1.169996979E1,-1.639241180E0,2.430046692E0,1.206157252E1
1.194185613E1,1.105316483E1,-2.180216217E0,2.379751282E0,1.151473020E1
1.195179012E1,1.072534653E1,-2.794987793E0,2.223625946E0,1.130440300E1
1.196172312E1,1.047955765E1,-3.473975830E0,1.993704071E0,1.121893455E1
1.197165712E1,1.024155258E1,-4.230802002E0,1.760638733E0,1.122002378E1
1.198159013E1,1.016206787E1,-4.859344940E0,1.548380127E0,1.137006322E1
1.199152412E1,1.029394363E1,-5.239404602E0,1.313668213E0,1.162507464E1
1.200145658E1,1.049422714E1,-5.238805847E0,1.256187744E0,1.179626626E1
1.201139058E1,1.061233154E1,-5.089416504E0,1.202449493E0,1.183087596E1
1.202132358E1,1.087428680E1,-4.791685638E0,1.202449493E0,1.194387917E1
1.203125758E1,1.130089966E1,-4.497696991E0,1.288670197E0,1.223111942E1
1.204119058E1,1.190294769E1,-4.774022369E0,1.313668213E0,1.289174843E1
1.205112458E1,1.243583954E1,-5.762267303E0,1.236728210E0,1.376166146E1
1.206105758E1,1.245904129E1,-7.196734314E0,1.064885559E0,1.442756653E1
1.207099158E1,1.178050232E1,-8.431965637E0,7.952961731E-1,1.450898947E1
1.208092458E1,1.095781311E1,-9.319470062E0,4.104464722E-1,1.439078374E1
1.209085858E1,1.052221893E1,-1.014365616E1,-8.891510010E-2,1.461570243E1
1.210079158E1,1.028481262E1,-1.069825287E1,-5.686674500E-1,1.485103928E1
1.211072558E1,9.996212769E0,-1.062370789E1,-1.020727386E0,1.462290407E1
1.212065858E1,1.001088226E1,-9.677974548E0,-1.410516815E0,1.399537469E1
1.213059258E1,1.089045319E1,-8.035739594E0,-1.515298920E0,1.361878160E1
1.214052558E1,1.259361145E1,-6.297105103E0,-1.402134247E0,1.414986086E1
1.215045958E1,1.444316528E1,-4.957840118E0,-1.320404205E0,1.532738299E1
1.216039258E1,1.566642151E1,-4.336781616E0,-1.437161407E0,1.631900336E1
1.217032658E1,1.576880859E1,-4.544848938E0,-1.904190216E0,1.652080254E1
1.218025958E1,1.484103790E1,-5.487289124E0,-2.559078369E0,1.602858790E1
1.219019358E1,1.334953949E1,-6.774911499E0,-3.212170258E0,1.531103093E1
1.220012658E1,1.178229858E1,-8.115972748E0,-3.645818481E0,1.476426652E1
1.221006058E1,1.033241364E1,-9.033265228E0,-3.837420044E0,1.425076997E1
1.221999358E1,9.249116364E0,-8.947643280E0,-3.744762726E0,1.340260130E1
1.222992758E1,8.747808838E0,-8.121960297E0,-3.193010101E0,1.235660601E1
1.223986058E1,8.769214325E0,-7.123686218E0,-2.245031433E0,1.151894923E1
1.224979458E1,8.764573975E0,-6.320306854E0,-1.149609375E0,1.086672156E1
1.225972758E1,8.745563507E0,-5.939049683E0,-3.094065857E-1,1.057605430E1
1.226966158E1,8.999884644E0,-5.638325043E0,1.748364258E-1,1.062163832E1
1.227959458E1,9.219777374E0,-5.211712189E0,4.061054993E-1,1.059863956E1
1.228952858E1,8.976383514E0,-4.958438873E0,3.483256531E-1,1.026074597E1
1.229946158E1,8.530161438E0,-4.967719574E0,-3.023712158E-2,9.871312284E0
1.230939558E1,8.106542358E0,-4.999603271E0,-5.191204834E-1,9.538424815E0
1.231932858E1,7.579787750E0,-5.049449615E0,-8.714877319E-1,9.149295854E0
1.232926258E1,7.072193298E0,-5.051096191E0,-1.064586182E0,8.755731524E0
1.233919558E1,6.647077332E0,-5.104684753E0,-1.100661163E0,8.452981633E0
1.234912958E1,6.395749969E0,-5.171745300E0,-9.042695618E-1,8.274676463E0
1.235906258E1,6.391408997E0,-5.163512421E0,-4.849914551E-1,8.230867888E0
1.236899658E1,6.502478027E0,-5.154381409E0,-1.481918335E-2,8.297595303E0
1.237892958E1,6.361471252E0,-5.323829041E0,3.257226562E-1,8.301660520E0
1.238886358E1,5.944438477E0,-5.512885895E0,3.647914124E-1,8.115499520E0
1.239879658E1,5.576952667E0,-5.644911346E0,1.574725342E-1,7.936763998E0
1.240873058E1,5.213358765E0,-5.631289673E0,-3.592529297E-3,7.674017585E0
1.241866458E1,4.820725250E0,-5.552852783E0,-6.900650024E-2,7.353796833E0
1.242859758E1,4.451443176E0,-5.498815155E0,-1.416055298E-1,7.076183052E0
1.243853058E1,4.201313324E0,-5.412744141E0,-2.094145203E-1,6.855121240E0
1.244846458E1,4.042942657E0,-5.290448456E0,-3.046165466E-1,6.665359813E0
1.245839858E1,3.865112457E0,-5.171146545E0,-4.058061218E-1,6.468734769E0
1.246833158E1,3.644321594E0,-5.054688721E0,-5.322930908E-1,6.254142138E0
1.247826558E1,3.686234436E0,-5.064717865E0,-7.946974182E-1,6.314367376E0
1.248819858E1,3.993545380E0,-5.169649658E0,-1.028361511E0,6.612957711E0
1.249813258E1,4.267326050E0,-5.294040985E0,-1.250499573E0,6.913804361E0
1.250806558E1,4.348457336E0,-5.418582001E0,-1.613943787E0,7.132666167E0
1.251799958E1,4.480632477E0,-5.830824738E0,-1.981429596E0,7.615815633E0
1.252793258E1,4.595892792E0,-6.442153473E0,-2.301314392E0,8.241336048E0
1.253786658E1,4.709207153E0,-6.885232086E0,-2.525548096E0,8.715586387E0
1.254779958E1,4.962480469E0,-7.137307892E0,-2.492017822E0,9.043092899E0
1.255773358E1,5.437891846E0,-7.248975677E0,-2.266736298E0,9.341113935E0
1.256766658E1,6.020031281E0,-7.214098206E0,-2.075134735E0,9.622378797E0
1.257760058E1,6.543193359E0,-7.035070496E0,-1.983824615E0,9.810257709E0
1.258753358E1,7.020101624E0,-6.909481659E0,-1.995051270E0,1.005002454E1
1.259746758E1,7.538174286E0,-6.912026367E0,-2.126477966E0,1.044615186E1
1.260740058E1,8.110883331E0,-6.971452789E0,-2.445464630E0,1.097122963E1
1.261733458E1,8.737779694E0,-7.308551788E0,-2.995720367E0,1.177871231E1
1.262726758E1,9.020691376E0,-7.968080292E0,-3.612587585E0,1.256638236E1
1.263720158E1,8.775800629E0,-8.725654907E0,-3.954326935E0,1.299186021E1
1.264713458E1,8.296197968E0,-9.826465759E0,-4.265230408E0,1.354911512E1
1.265706858E1,7.588619385E0,-1.041100021E1,-4.285288696E0,1.357717824E1
1.266700158E1,6.961423645E0,-1.016446289E1,-4.008963318E0,1.295567489E1
1.267693558E1,6.698420563E0,-9.055269470E0,-3.549718323E0,1.180962503E1
1.268686858E1,7.123536530E0,-7.558681641E0,-3.100352783E0,1.083930940E1
1.269680258E1,8.322094116E0,-6.090235291E0,-2.632126465E0,1.064313422E1
1.270673558E1,9.845326538E0,-5.072501678E0,-2.102078705E0,1.127295271E1
1.271666958E1,1.113968491E1,-4.820874939E0,-1.870360565E0,1.228135431E1
1.272660258E1,1.196402069E1,-5.215155029E0,-2.108365631E0,1.322047044E1
1.273653658E1,1.199710190E1,-5.788911896E0,-2.511926422E0,1.355550550E1
1.274646958E1,1.125195145E1,-6.386020203E0,-3.159928894E0,1.331813861E1
1.275640358E1,1.031370255E1,-6.786287842E0,-3.699706421E0,1.288852166E1
1.276633658E1,9.341025238E0,-6.804549866E0,-3.690725098E0,1.213169828E1
1.277627058E1,8.359965363E0,-6.523284760E0,-3.163371735E0,1.106567601E1
1.278620358E1,7.535180511E0,-6.123166809E0,-2.225871277E0,9.961255948E0
1.279613758E1,6.940467224E0,-5.717809753E0,-1.032852173E0,9.051531212E0
1.280607058E1,6.531218262E0,-5.254523163E0,9.190887451E-2,8.383034826E0
1.281600458E1,6.393804016E0,-4.728816376E0,9.385482788E-1,8.007702978E0
1.282593758E1,6.447841644E0,-4.199666748E0,1.388512573E0,7.819196239E0
1.283587158E1,6.725663910E0,-3.750750275E0,1.574276276E0,7.860090867E0
1.284580458E1,6.964567108E0,-3.317401428E0,1.484013977E0,7.855739604E0
1.285573858E1,7.059619446E0,-2.907703400E0,1.109492798E0,7.715175957E0
1.286567158E1,6.978488159E0,-2.570903778E0,5.861810303E-1,7.460057066E0
1.287560558E1,6.740034027E0,-2.319576416E0,-3.891906738E-3,7.128008739E0
1.288553858E1,6.427483978E0,-2.105371857E0,-4.055067444E-1,6.775660607E0
1.289547258E1,6.071524200E0,-2.013612671E0,-7.074288940E-1,6.435720453E0
1.290540558E1,5.850433960E0,-2.071991272E0,-8.626560974E-1,6.266171151E0
1.291533958E1,5.744005280E0,-2.118544464E0,-9.095086670E-1,6.189429159E0
1.292527258E1,5.764812012E0,-2.152224426E0,-9.575587463E-1,6.227523285E0
1.293520658E1,5.854625244E0,-2.231559448E0,-9.877958679E-1,6.342888537E0
1.294513958E1,6.020630035E0,-2.295476532E0,-9.773176575E-1,6.517081274E0
1.295507358E1,6.201753387E0,-2.334994354E0,-1.001716919E0,6.702043009E0
1.296500658E1,6.340215454E0,-2.441123657E0,-9.874964905E-1,6.865316164E0
1.297494058E1,6.558461609E0,-2.640808411E0,-9.220825195E-1,7.130043752E0
1.298487358E1,6.757697296E0,-2.805166626E0,-8.289761353E-1,7.363601970E0
1.299480758E1,6.922055511E0,-2.957250366E0,-7.617658997E-1,7.565743157E0
1.300474137E1,7.106621704E0,-3.162623291E0,-6.668632507E-1,7.807109883E0
1.301467537E1,7.326813812E0,-3.200943604E0,-5.135820007E-1,8.011991454E0
1.302460837E1,7.640561371E0,-2.984344025E0,-2.787203979E-1,8.207446155E0
1.303454238E1,8.135731659E0,-2.873724060E0,-2.933898926E-2,8.628399642E0
1.304447537E1,8.729846191E0,-2.887645111E0,1.621128845E-1,9.196466137E0
1.305440937E1,9.207502899E0,-2.970422974E0,3.095562744E-1,9.679739013E0
1.306434337E1,9.643396454E0,-3.270548859E0,4.227209473E-1,1.019167690E1
1.307427638E1,9.836345215E0,-3.798500977E0,4.209246826E-1,1.055269987E1
1.308421037E1,9.832453308E0,-4.394112396E0,4.040098572E-1,1.077722533E1
1.309414337E1,9.865085449E0,-5.002896423E0,2.885998535E-1,1.106490729E1
1.310407738E1,9.920769653E0,-5.585784302E0,2.064207458E-1,1.138706575E1
1.311401037E1,9.974058838E0,-5.932313690E0,2.019300842E-1,1.160667787E1
1.312394437E1,1.005758514E1,-5.969137115E0,2.742297363E-1,1.169875287E1
1.313387737E1,1.022897873E1,-5.728737030E0,3.793112183E-1,1.173006014E1
1.314381138E1,1.058359131E1,-5.302573242E0,2.899470520E-1,1.184118901E1
1.315374437E1,1.138876694E1,-5.098397827E0,-7.185058594E-2,1.247809422E1
1.316367837E1,1.263238083E1,-5.707780609E0,-5.056484985E-1,1.387124671E1
1.317361137E1,1.349862946E1,-7.165299683E0,-7.879614258E-1,1.530279059E1
1.318354538E1,1.342647949E1,-8.618328094E0,-5.304968262E-1,1.596331286E1
1.319347837E1,1.288101379E1,-9.788744202E0,-1.990859985E-2,1.617839379E1
1.320341237E1,1.241443405E1,-1.064271835E1,6.477030945E-1,1.636475316E1
1.321334538E1,1.171987839E1,-1.074944641E1,1.577419739E0,1.598106381E1
1.322327938E1,1.101768860E1,-9.501940613E0,2.440524902E0,1.475237267E1
1.323321237E1,1.149878815E1,-7.347321167E0,2.656525726E0,1.390188426E1
1.324314637E1,1.300854858E1,-5.449268188E0,1.999841309E0,1.424486663E1
1.325307938E1,1.502171219E1,-4.289030914E0,7.801776123E-1,1.564149291E1
1.326301337E1,1.625829071E1,-3.768862610E0,-7.665559387E-1,1.670700303E1
1.327294637E1,1.600980743E1,-3.767066345E0,-2.508333893E0,1.663720114E1
1.328288037E1,1.517888535E1,-4.268673248E0,-3.934568024E0,1.625118325E1
1.329281338E1,1.474882965E1,-5.587430878E0,-4.367168427E0,1.636519233E1
1.330274737E1,1.397179550E1,-7.084168396E0,-3.679049377E0,1.609136152E1
1.331268037E1,1.280137939E1,-8.237819366E0,-2.435285797E0,1.541647169E1
1.332261437E1,1.138682098E1,-8.648714905E0,-1.482217712E0,1.437556715E1
1.333254738E1,1.019679565E1,-8.365204468E0,-7.411088562E-1,1.320986486E1
1.334248137E1,9.620344391E0,-7.732619934E0,1.347198486E-2,1.234279623E1
1.335241437E1,9.369466095E0,-6.941814423E0,7.009922791E-1,1.168191220E1
1.336234838E1,9.377100220E0,-6.180048523E0,1.227297821E0,1.129731243E1
1.337228137E1,9.428293762E0,-5.474565582E0,1.300196228E0,1.097971319E1
1.338221537E1,9.558223572E0,-4.918022919E0,9.777667236E-1,1.079363771E1
1.339214837E1,9.851014709E0,-4.600533142E0,7.949967957E-1,1.090134927E1
1.340208238E1,9.833052063E0,-4.567152557E0,7.912545776E-1,1.087078098E1
1.341201537E1,9.140292664E0,-4.789290619E0,5.766009521E-1,1.033512086E1
1.342194937E1,8.302185516E0,-4.993466034E0,8.143066406E-2,9.688530246E0
1.343188237E1,7.444020081E0,-5.278922424E0,-2.975811768E-1,9.130663255E0
1.344181638E1,6.612948303E0,-5.560935974E0,-4.571493530E-1,8.652403117E0
1.345174937E1,5.908213806E0,-5.599705353E0,-7.466473389E-1,8.174421855E0
1.346168337E1,5.419330444E0,-5.277275848E0,-1.171164551E0,7.654437226E0
1.347161638E1,5.073848877E0,-4.979245605E0,-1.521585846E0,7.269941727E0
1.348155037E1,4.931794281E0,-4.793332214E0,-1.683698730E0,7.080499274E0
1.349148337E1,4.870421906E0,-4.558470612E0,-1.563498688E0,6.851656150E0
1.350141737E1,4.699028320E0,-4.380191345E0,-1.267115021E0,6.547711345E0
1.351135038E1,4.480632477E0,-4.321513367E0,-8.861572266E-1,6.287831089E0
1.352128437E1,4.182302856E0,-4.340374146E0,-4.915777588E-1,6.047491513E0
1.353121737E1,3.733685760E0,-4.431384888E0,-1.380130005E-1,5.796259912E0
1.354115137E1,3.288661194E0,-4.535568237E0,1.496887207E-3,5.602381094E0
1.355108438E1,2.953059082E0,-4.666994934E0,-1.212478638E-1,5.524138005E0
1.356101837E1,2.828518066E0,-4.758604431E0,-3.718267822E-1,5.548250692E0
1.357095137E1,3.001258850E0,-4.736001434E0,-7.710466003E-1,5.659662281E0
1.358088537E1,3.370091858E0,-4.627028046E0,-1.391206970E0,5.890871285E0
1.359081837E1,3.877985687E0,-4.773124237E0,-2.051184540E0,6.482965833E0
1.360075237E1,4.213288422E0,-5.245092773E0,-2.370620270E0,7.133206712E0
1.361068537E1,4.285288696E0,-5.819298706E0,-2.620001678E0,7.687154573E0
1.362061938E1,4.534071350E0,-6.354286194E0,-2.766097870E0,8.281669727E0
1.363055237E1,4.817881165E0,-6.972799988E0,-2.684667206E0,8.890408123E0
1.364048637E1,4.834795990E0,-7.459138641E0,-2.596799927E0,9.260527598E0
1.365041937E1,4.870571594E0,-7.790100403E0,-2.802771606E0,9.605397473E0
1.366035338E1,5.148543549E0,-8.020471344E0,-3.162473602E0,1.004174788E1
1.367028637E1,5.733676758E0,-8.096812592E0,-3.437302094E0,1.049992709E1
1.368022037E1,6.297853546E0,-7.910450134E0,-3.713926849E0,1.077178877E1
1.369015337E1,6.817123718E0,-7.673492889E0,-4.063749390E0,1.103946231E1
1.370008738E1,7.487130432E0,-7.766449585E0,-4.258494415E0,1.159782893E1
1.371002037E1,8.085286560E0,-8.223000183E0,-4.338727570E0,1.232128839E1
1.371995437E1,8.530011749E0,-8.959768066E0,-4.561464386E0,1.318504841E1
1.372988738E1,8.754095764E0,-9.889335022E0,-4.907095642E0,1.408945448E1
1.373982137E1,8.411009216E0,-1.079974182E1,-5.208718414E0,1.464616834E1
1.374975537E1,7.884853363E0,-1.158515854E1,-5.278922424E0,1.497510711E1
1.375968837E1,7.287595367E0,-1.182331329E1,-4.938979340E0,1.474087176E1
1.376962138E1,6.750212860E0,-1.101095261E1,-4.122127991E0,1.355722649E1
1.377955537E1,7.199728088E0,-9.246571655E0,-3.018323364E0,1.210146470E1
1.378948937E1,8.425379333E0,-7.097640381E0,-2.180665283E0,1.123026344E1
1.379942237E1,9.723779297E0,-5.214107208E0,-1.906435547E0,1.119702167E1
1.380935638E1,1.130194748E1,-4.196972351E0,-2.076032867E0,1.223349934E1
1.381928937E1,1.274300079E1,-3.993395691E0,-2.498753815E0,1.358584002E1
1.382922337E1,1.336585556E1,-4.358187103E0,-3.275787964E0,1.443505028E1
1.383915638E1,1.287517593E1,-5.204527130E0,-4.290378113E0,1.453494418E1
1.384909038E1,1.153890472E1,-6.295159149E0,-5.100493469E0,1.409930440E1
1.385902337E1,9.924212494E0,-7.189399567E0,-5.293292542E0,1.334902265E1
1.386895737E1,8.392896881E0,-7.547904053E0,-4.659809875E0,1.221169119E1
1.387889038E1,7.387737122E0,-7.447612610E0,-3.492088165E0,1.105623232E1
1.388882437E1,6.854246521E0,-6.947801971E0,-2.189496918E0,1.000232695E1
1.389875737E1,6.588549042E0,-6.223757629E0,-1.152603149E0,9.136335782E0
1.390869137E1,6.569987640E0,-5.608387299E0,-4.867877197E-1,8.651919323E0
1.391862438E1,6.772217102E0,-5.055137787E0,-7.679031372E-2,8.451227087E0
1.392855837E1,7.064559174E0,-4.513114929E0,2.074685669E-1,8.385657153E0
1.393849137E1,7.202123108E0,-4.011358337E0,3.788621521E-1,8.252581990E0
1.394842537E1,7.205116882E0,-3.618126068E0,3.433859253E-1,8.069848786E0
1.395835838E1,7.038962402E0,-3.250340881E0,2.582130432E-1,7.757472625E0
1.396829237E1,6.730903015E0,-2.943928070E0,1.993853760E-1,7.349253187E0
1.397822537E1,6.293063507E0,-2.783012695E0,2.017803955E-1,6.883932255E0
1.398815938E1,5.859115906E0,-2.661615143E0,2.447410583E-1,6.439979235E0
1.399809237E1,5.560187531E0,-2.547552338E0,3.025209045E-1,6.123497953E0
1.400802583E1,5.449567566E0,-2.511926422E0,3.115022278E-1,6.008709898E0
1.401795883E1,5.387446747E0,-2.510878601E0,7.364685059E-2,5.944284453E0
1.402789283E1,5.247338104E0,-2.483335876E0,-3.667373657E-1,5.816872919E0
1.403782583E1,5.142855377E0,-2.432591400E0,-7.554789734E-1,5.739094949E0
1.404775983E1,5.122797089E0,-2.537523193E0,-1.033750305E0,5.809536441E0
1.405769283E1,5.064418488E0,-2.637215881E0,-1.294807434E0,5.854892699E0
1.406762683E1,5.097799072E0,-2.696342926E0,-1.466650085E0,5.950536365E0
1.407755983E1,5.215304718E0,-2.705473938E0,-1.417402496E0,6.043841689E0
1.408749383E1,5.473068695E0,-2.779719543E0,-1.105600891E0,6.237281059E0
1.409742683E1,5.846092987E0,-2.849324799E0,-7.650590515E-1,6.548341040E0
1.410736083E1,6.299949188E0,-2.818488922E0,-4.246669006E-1,6.914736550E0
1.411729383E1,6.822213135E0,-2.685116272E0,8.681945801E-2,7.332119685E0
1.412722783E1,7.323221283E0,-2.567460938E0,5.700146484E-1,7.781153020E0
1.413716083E1,7.743696899E0,-2.539020081E0,8.204438782E-1,8.190518469E0
1.414709483E1,8.142617340E0,-2.607876892E0,8.358618164E-1,8.590803455E0
1.415702783E1,8.533005524E0,-2.753524017E0,9.425898743E-1,9.015683748E0
1.416696183E1,8.847202148E0,-2.996768188E0,1.038390656E0,9.398503103E0
1.417689483E1,9.222920837E0,-3.381617889E0,9.764195251E-1,9.871727479E0
1.418682883E1,9.664801941E0,-3.809577942E0,7.517367554E-1,1.041567995E1
1.419676183E1,1.013227982E1,-4.317471771E0,4.596940613E-1,1.102338312E1
1.420669583E1,1.066472260E1,-4.887486420E0,2.100132751E-1,1.173319808E1
1.421662883E1,1.112965576E1,-5.331163788E0,2.993774414E-2,1.234064184E1
1.422656283E1,1.143981079E1,-5.526657257E0,-2.007325745E-1,1.270643557E1
1.423649583E1,1.162557449E1,-5.509592743E0,-4.369413757E-1,1.287247110E1
1.424642983E1,1.164997375E1,-5.312153320E0,-5.924679565E-1,1.281763940E1
1.425636283E1,1.181852325E1,-4.910837860E0,-7.048841858E-1,1.281759268E1
1.426629683E1,1.240949432E1,-4.780608673E0,-7.752378845E-1,1.332106461E1
1.427622983E1,1.321990906E1,-5.417534180E0,-7.734416199E-1,1.430782597E1
1.428616383E1,1.363529526E1,-6.618486786E0,-6.800358582E-1,1.517195086E1
1.429609683E1,1.346375198E1,-7.871830444E0,-3.314108276E-1,1.559962067E1
1.430603083E1,1.300450699E1,-8.879085846E0,2.145039368E-1,1.574805954E1
1.431596383E1,1.265034348E1,-9.738299103E0,7.810757446E-1,1.598360844E1
1.432589783E1,1.241443405E1,-1.034947815E1,1.401834869E0,1.622328610E1
1.433583083E1,1.212059509E1,-1.025592270E1,1.842518463E0,1.598398105E1
1.434576483E1,1.198138458E1,-9.283095703E0,1.839375000E0,1.526803009E1
1.435569783E1,1.220232513E1,-7.548203430E0,1.469643860E0,1.442331331E1
1.436563183E1,1.310794189E1,-5.886359253E0,6.574328613E-1,1.438400445E1
1.437556483E1,1.444436279E1,-4.920118561E0,-3.995191956E-1,1.526456022E1
1.438549883E1,1.527917679E1,-4.494403839E0,-1.450034637E0,1.599235785E1
1.439543183E1,1.498638565E1,-4.617597656E0,-2.463277588E0,1.587393144E1
1.440536583E1,1.408346329E1,-5.185666351E0,-3.519032135E0,1.541488439E1
1.441529883E1,1.330508194E1,-6.199058990E0,-4.178560638E0,1.526151719E1
1.442523283E1,1.263103363E1,-7.129524078E0,-3.941004639E0,1.503012447E1
1.443516583E1,1.196955917E1,-7.615263977E0,-3.083288269E0,1.451789443E1
1.444509983E1,1.122321121E1,-7.654781799E0,-2.012115784E0,1.373334498E1
1.445503283E1,1.052296738E1,-7.209158478E0,-1.004710693E0,1.279508702E1
1.446496683E1,1.022164398E1,-6.500232697E0,-1.866618347E-1,1.211486168E1
1.447489983E1,1.009889923E1,-5.714217224E0,4.123924255E-1,1.161077567E1
1.448483383E1,1.006716522E1,-5.054838409E0,8.101153564E-1,1.129404683E1
1.449476683E1,1.006267456E1,-4.635709991E0,1.073866882E0,1.113105640E1
1.450470083E1,9.880054321E0,-4.227209473E0,1.336121521E0,1.082912711E1
1.451463383E1,9.628577271E0,-4.005071411E0,1.435514832E0,1.052667089E1
1.452456783E1,9.327403564E0,-3.903432770E0,1.615141296E0,1.023942997E1
1.453450083E1,8.823701019E0,-3.938759308E0,1.805695038E0,9.830160687E0
1.454443483E1,8.211025085E0,-4.051325226E0,1.846410370E0,9.340417565E0
1.455436783E1,7.638465729E0,-4.166585541E0,1.710493011E0,8.867490068E0
1.456430183E1,7.145840149E0,-4.312681732E0,1.500779114E0,8.480247231E0
1.457423483E1,6.731651459E0,-4.478686523E0,1.219963074E0,8.176923275E0
1.458416883E1,6.466702423E0,-4.597988434E0,1.010548553E0,7.998809052E0
1.459410183E1,6.295009460E0,-4.649930420E0,9.231303406E-1,7.880429344E0
1.460403583E1,6.164929962E0,-4.763843536E0,9.400451660E-1,7.847563417E0
1.461396883E1,6.027515717E0,-4.934338989E0,9.779164124E-1,7.850794067E0
1.462390283E1,5.847589874E0,-5.006788330E0,1.090632019E0,7.775070091E0
1.463383583E1,5.697302399E0,-5.028343506E0,1.315614166E0,7.711960430E0
1.464376983E1,5.545667725E0,-5.080734558E0,1.546434174E0,7.678525432E0
1.465370283E1,5.346282349E0,-5.179080048E0,1.622176666E0,7.618205972E0
1.466363683E1,5.132377167E0,-5.185816040E0,1.642684021E0,7.478796305E0
1.467356983E1,4.857249298E0,-5.274581451E0,1.568139038E0,7.339832442E0
1.468350383E1,4.687951355E0,-5.518274689E0,1.191073151E0,7.338044610E0
1.469343683E1,4.815186768E0,-5.817053375E0,6.527925110E-1,7.579595744E0
1.470337083E1,5.116659851E0,-5.996530151E0,2.760260010E-1,7.887634135E0
1.471330483E1,5.299429779E0,-5.954168243E0,-5.448669434E-2,7.971138203E0
1.472323783E1,5.460644531E0,-5.907016296E0,-4.366419983E-1,8.056186223E0
1.473317183E1,5.621260529E0,-6.114933929E0,-7.162605286E-1,8.336906863E0
1.474310483E1,5.617368622E0,-6.514453125E0,-7.791297913E-1,8.637127589E0
1.475303883E1,5.782475281E0,-6.859934692E0,-6.926097107E-1,8.998635039E0
1.476297183E1,6.134543152E0,-7.121291199E0,-6.318360901E-1,9.420436554E0
1.477290583E1,6.474037170E0,-7.270979919E0,-7.598199463E-1,9.765123277E0
1.478283883E1,6.730603638E0,-7.350015564E0,-1.047671356E0,1.002104632E1
1.479277283E1,6.790179749E0,-7.459587708E0,-1.544188843E0,1.020472974E1
1.480270583E1,6.773264923E0,-7.533533936E0,-2.086361389E0,1.034331451E1
1.481263983E1,6.713838501E0,-7.538024597E0,-2.380649414E0,1.037135159E1
1.482257283E1,6.692433014E0,-7.626191254E0,-2.505040741E0,1.045096559E1
1.483250683E1,6.763834534E0,-7.693401489E0,-2.703228607E0,1.059458961E1
1.484243983E1,6.946005707E0,-7.837402039E0,-2.957998810E0,1.088216996E1
1.485237383E1,7.200177155E0,-8.228388977E0,-3.303330688E0,1.142194948E1
1.486230683E1,7.332801361E0,-8.820707245E0,-3.592080231E0,1.201989569E1
1.487224083E1,7.291487274E0,-9.387728119E0,-3.884871368E0,1.250549685E1
1.488217383E1,7.063361664E0,-9.885742493E0,-4.168531494E0,1.284506277E1
1.489210783E1,6.564149780E0,-1.029214737E1,-4.399052124E0,1.297567029E1
1.490204083E1,5.935008087E0,-1.015398468E1,-4.543352051E0,1.260832161E1
1.491197483E1,5.769452362E0,-9.311087494E0,-4.596491547E0,1.187900103E1
1.492190783E1,6.280639343E0,-7.871680756E0,-4.590953064E0,1.106736818E1
1.493184183E1,7.264692993E0,-6.253994751E0,-4.494852905E0,1.058734704E1
1.494177483E1,8.634644165E0,-5.012326813E0,-4.415068817E0,1.091665391E1
1.495170883E1,1.003827530E1,-4.589156799E0,-4.383185120E0,1.187601124E1
1.496164183E1,1.080063995E1,-4.718038788E0,-4.488266602E0,1.261182978E1
1.497157583E1,1.093535980E1,-5.021607513E0,-4.578528900E0,1.287484225E1
1.498150883E1,1.067235672E1,-5.332960052E0,-4.545148315E0,1.276706834E1
1.499144283E1,1.006506958E1,-5.749244385E0,-4.363276520E0,1.238537923E1
1.500137658E1,9.302106171E0,-6.157744904E0,-3.760929108E0,1.177249291E1
1.501131058E1,8.499624939E0,-6.447242889E0,-2.663710785E0,1.099572281E1
1.502124358E1,7.587421875E0,-6.422095184E0,-1.373244324E0,1.003484316E1
1.503117758E1,6.794371033E0,-5.956563263E0,-1.791773987E-1,9.037490148E0
1.504111058E1,6.365213470E0,-5.252128143E0,6.307882690E-1,8.276393321E0
1.505104458E1,6.323150940E0,-4.456682281E0,8.901988220E-1,7.786957603E0
1.506097758E1,6.609655151E0,-3.765719147E0,7.066804504E-1,7.639867746E0
1.507091158E1,6.875502319E0,-3.350482635E0,2.231858826E-1,7.651671580E0
1.508084458E1,6.885232086E0,-3.113675079E0,-4.468208313E-1,7.569745190E0
1.509077858E1,6.799759827E0,-2.878364410E0,-1.199455719E0,7.480669048E0
1.510071158E1,6.715185699E0,-2.614912262E0,-1.770218811E0,7.420590257E0
1.511064558E1,6.659351807E0,-2.417622528E0,-2.022444305E0,7.367641830E0
1.512057858E1,6.760092316E0,-2.358345795E0,-1.825453949E0,7.388702533E0
1.513051258E1,6.863976288E0,-2.302811279E0,-1.381626892E0,7.370617555E0
1.514044558E1,6.921456757E0,-2.225122833E0,-1.097517700E0,7.352705649E0
1.515037958E1,6.993307343E0,-2.210453339E0,-9.662406921E-1,7.397707255E0
1.516031258E1,7.101981354E0,-2.247576141E0,-8.364605713E-1,7.495959175E0
1.517024658E1,7.159611511E0,-2.365081787E0,-6.530918884E-1,7.568366922E0
1.518017958E1,7.249275055E0,-2.548001404E0,-3.766168213E-1,7.693252901E0
1.519011358E1,7.349117432E0,-2.734962616E0,3.427871704E-2,7.841602041E0
1.520004658E1,7.432044983E0,-2.890938263E0,4.920268250E-1,7.989675029E0
1.520998058E1,7.564968567E0,-3.029250641E0,9.265731812E-1,8.201441747E0
1.521991358E1,7.626790009E0,-3.044369202E0,1.240620117E0,8.305133831E0
1.522984758E1,7.718100128E0,-2.934347992E0,1.492246857E0,8.390844320E0
1.523978058E1,8.014633484E0,-2.730621643E0,1.736688538E0,8.643305590E0
1.524971458E1,8.314609680E0,-2.386187897E0,1.935924225E0,8.864221873E0
1.525964758E1,8.591384125E0,-2.099384308E0,2.042801971E0,9.077022394E0
1.526958158E1,8.989406433E0,-1.985770569E0,2.149979095E0,9.453841700E0
1.527951458E1,9.448651428E0,-2.055076447E0,2.229014740E0,9.923147672E0
1.528944858E1,9.787546692E0,-2.110910339E0,2.168091431E0,1.024463924E1
1.529938158E1,1.017838394E1,-2.234403534E0,1.922452240E0,1.059659763E1
1.530931558E1,1.047521667E1,-2.476300507E0,1.469045105E0,1.086371585E1
1.531924858E1,1.071426956E1,-2.806364136E0,1.011296997E0,1.112177924E1
1.532918258E1,1.103041214E1,-3.217109985E0,6.806346130E-1,1.151012824E1
1.533911558E1,1.132350266E1,-3.686533813E0,5.246589661E-1,1.192004660E1
1.534904958E1,1.145627655E1,-4.046535187E0,4.408332825E-1,1.215792143E1
1.535898258E1,1.151151169E1,-4.175117798E0,3.608995056E-1,1.225058196E1
1.536891658E1,1.159114609E1,-4.010609894E0,2.802172852E-1,1.226858513E1
1.537884958E1,1.166643951E1,-3.474275208E0,2.245330811E-1,1.217484350E1
1.538878358E1,1.193423264E1,-2.788251801E0,2.013313293E-1,1.225727502E1
1.539871658E1,1.255918304E1,-2.406096497E0,1.794767761E-1,1.278884635E1
1.540865058E1,1.346390167E1,-2.734663239E0,1.005908203E-1,1.373918301E1
1.541858358E1,1.427551392E1,-3.874243469E0,-2.514770508E-1,1.479402923E1
1.542851758E1,1.442190948E1,-5.349725189E0,-5.905220032E-1,1.539349697E1
1.543845058E1,1.355476273E1,-6.463708649E0,-6.375242615E-1,1.503055419E1
1.544838458E1,1.254795639E1,-7.190297699E0,-5.092410278E-1,1.447103718E1
1.545831758E1,1.188064407E1,-7.799381104E0,-3.597019958E-1,1.421651978E1
1.546825158E1,1.142274628E1,-7.764353943E0,-8.562194824E-2,1.381201129E1
1.547818458E1,1.141645935E1,-6.758296051E0,3.924838257E-1,1.327268447E1
1.548811858E1,1.230665817E1,-5.276976471E0,1.002615051E0,1.342779032E1
1.549805158E1,1.350626358E1,-3.783981171E0,1.426084442E0,1.409863065E1
1.550798558E1,1.498399063E1,-2.663261719E0,1.426234131E0,1.528551870E1
1.551791858E1,1.669388489E1,-2.233206024E0,9.659413147E-1,1.687027102E1
1.552785258E1,1.775802200E1,-2.326462097E0,5.233117676E-1,1.791741127E1
1.553778558E1,1.772568924E1,-2.915636902E0,1.416055298E-1,1.796443847E1
1.554771958E1,1.672142761E1,-3.950435028E0,3.951782227E-2,1.718178221E1
1.555765258E1,1.525777130E1,-5.288352814E0,2.888992310E-1,1.615084281E1
1.556758658E1,1.389560394E1,-6.493796082E0,6.243516541E-1,1.535079840E1
1.557751958E1,1.243524078E1,-7.058571625E0,1.119821320E0,1.434268617E1
1.558745358E1,1.108624603E1,-6.895410919E0,1.601819000E0,1.315360661E1
1.559738658E1,1.038390656E1,-6.285279694E0,1.955234070E0,1.229443762E1
1.560732058E1,1.042492126E1,-5.587430878E0,2.105970612E0,1.201388694E1
1.561725358E1,1.075812836E1,-5.019511871E0,2.052831116E0,1.204769442E1
1.562718758E1,1.103235809E1,-4.593198395E0,1.819765778E0,1.208809100E1
1.563712058E1,1.108160568E1,-4.212839355E0,1.553469543E0,1.195672478E1
1.564705458E1,1.088446564E1,-4.060905304E0,1.296454010E0,1.168945410E1
1.565698758E1,1.046563660E1,-4.122577057E0,1.050515442E0,1.129729054E1
1.566692158E1,9.736951904E0,-4.342769165E0,7.472460938E-1,1.068766827E1
1.567685458E1,8.939709778E0,-4.592300262E0,4.314028931E-1,1.005950998E1
1.568678858E1,8.355175323E0,-4.790937195E0,2.095642090E-1,9.633584538E0
1.569672158E1,7.835905151E0,-4.936584320E0,1.422042847E-1,9.262369910E0
1.570665558E1,7.383845215E0,-5.039270782E0,1.068777466E-1,8.940181376E0
1.571658858E1,7.023694153E0,-5.143903198E0,1.065783691E-1,8.706513574E0
1.572652258E1,6.752607880E0,-5.228776703E0,1.377136230E-1,8.541474347E0
1.573645558E1,6.591692505E0,-5.250481567E0,1.907034302E-1,8.429373320E0
1.574638958E1,6.510411530E0,-5.173541565E0,2.646496582E-1,8.319917671E0
1.575632258E1,6.701713715E0,-4.985682220E0,3.299139404E-1,8.359356263E0
1.576625658E1,7.148534546E0,-4.719086609E0,3.573069763E-1,8.573155361E0
1.577618958E1,7.268435211E0,-4.440216522E0,4.076023865E-1,8.527122193E0
1.578612358E1,7.165000305E0,-4.323609009E0,3.553610229E-1,8.375983864E0
1.579605658E1,7.262148285E0,-4.399501190E0,2.363584900E-1,8.494131726E0
1.580599058E1,7.151678009E0,-4.428540802E0,1.651066589E-1,8.413425711E0
1.581592358E1,6.660249939E0,-4.433181152E0,3.218307495E-2,8.000816216E0
1.582585758E1,6.174809418E0,-4.528832245E0,-2.327659607E-1,7.661120861E0
1.583579058E1,5.816753998E0,-4.790937195E0,-5.520520020E-1,7.555955776E0
1.584572458E1,5.721402283E0,-4.965174866E0,-8.090675354E-1,7.618529767E0
1.585565758E1,5.904920654E0,-5.197342072E0,-9.328601074E-1,7.921532713E0
1.586559158E1,6.079457703E0,-5.405708771E0,-1.093775482E0,8.208400458E0
1.587552458E1,6.127058716E0,-5.545667725E0,-1.541644135E0,8.406660791E0
1.588545858E1,6.218368835E0,-5.760620728E0,-2.063009949E0,8.724039901E0
1.589539158E1,6.249204712E0,-5.892496490E0,-2.509381714E0,8.948244018E0
1.590532558E1,6.132148132E0,-5.877078552E0,-2.638712769E0,8.894160899E0
1.591525858E1,5.969885559E0,-5.849086761E0,-2.465672607E0,8.713833309E0
1.592519258E1,6.027515717E0,-5.835465088E0,-2.071991272E0,8.641570826E0
1.593512558E1,6.248456268E0,-5.690716095E0,-1.539997559E0,8.590637223E0
1.594505958E1,6.657256165E0,-5.369783478E0,-9.913883972E-1,8.610254653E0
1.595499258E1,7.329807587E0,-4.900958405E0,-5.872288513E-1,8.836872199E0
1.596492658E1,7.989635468E0,-4.495002594E0,-4.013154602E-1,9.176076358E0
1.597485958E1,8.496780853E0,-4.481380920E0,-5.487588501E-1,9.621808359E0
1.598479358E1,8.810528412E0,-4.894671478E0,-1.088686066E0,1.013747785E1
1.599472658E1,8.894054718E0,-5.688021698E0,-1.786085815E0,1.070737609E1
1.600466008E1,8.542585602E0,-6.447841644E0,-2.401755524E0,1.096899541E1
1.601459308E1,7.967182159E0,-6.998396759E0,-2.772235107E0,1.096078630E1
1.602452708E1,7.587721252E0,-7.490872650E0,-2.794987793E0,1.102264232E1
1.603446008E1,7.252268829E0,-7.527247009E0,-2.555336151E0,1.076032497E1
1.604439408E1,6.914421387E0,-6.727011108E0,-2.463277588E0,9.956386796E0
1.605432708E1,6.980134735E0,-5.254972229E0,-2.730921021E0,9.153957814E0
1.606426108E1,7.603438568E0,-3.648961945E0,-3.121009827E0,8.992658321E0
1.607419408E1,8.369096375E0,-2.229164429E0,-3.500620422E0,9.341589346E0
1.608412808E1,9.220525818E0,-1.484163666E0,-3.762875061E0,1.006876690E1
1.609406108E1,9.939630432E0,-1.440304871E0,-3.934418335E0,1.078658328E1
1.610399508E1,1.037657181E1,-1.983674927E0,-3.872896271E0,1.125200134E1
1.611392808E1,1.060814026E1,-2.768193512E0,-3.433260498E0,1.148837729E1
1.612386208E1,1.055290512E1,-3.831731873E0,-2.748584290E0,1.155857652E1
1.613379508E1,1.005504044E1,-5.000202026E0,-1.790576477E0,1.137154442E1
1.614372908E1,9.265133057E0,-6.100713501E0,-6.758445740E-1,1.111387249E1
1.615366208E1,8.589288483E0,-6.839427338E0,8.985813904E-1,1.101640102E1
1.616359608E1,7.933951263E0,-6.866520996E0,2.559527435E0,1.080036453E1
1.617352908E1,7.433392181E0,-6.110443268E0,3.429368591E0,1.021535145E1
1.618346308E1,7.633675690E0,-4.982089691E0,3.475772095E0,9.755778487E0
1.619339608E1,8.234675903E0,-3.929478607E0,2.870281219E0,9.564998883E0
1.620333008E1,8.763675842E0,-3.312761078E0,1.733096008E0,9.527855058E0
1.621326308E1,9.130862274E0,-2.920726318E0,6.191125488E-1,9.606590886E0
1.622319708E1,9.190887451E0,-2.585273895E0,-1.701960754E-1,9.549084771E0
1.623313008E1,8.960516510E0,-2.333946533E0,-5.724096680E-1,9.277166344E0
1.624306408E1,8.416697388E0,-2.257904663E0,-7.825726318E-1,8.749362737E0
1.625299708E1,7.706274719E0,-2.329904938E0,-6.932084656E-1,8.080573312E0
1.626293108E1,7.035070496E0,-2.493065643E0,-2.486329651E-1,7.467892041E0
1.627286408E1,6.673272858E0,-2.755170593E0,4.269122314E-1,7.232274171E0
1.628279808E1,6.741081848E0,-2.963088226E0,1.162781982E0,7.454806386E0
1.629273108E1,7.063361664E0,-2.926264801E0,1.729802856E0,7.838770414E0
1.630266508E1,7.363038483E0,-2.779569855E0,1.789229279E0,8.071039938E0
1.631259808E1,7.744595032E0,-2.628833313E0,1.462608490E0,8.308353651E0
1.632253208E1,8.150999908E0,-2.430346069E0,9.220825195E-1,8.555443746E0
1.633246508E1,8.217910767E0,-2.218686218E0,3.460803223E-1,8.519178217E0
1.634239908E1,8.083340607E0,-2.231110382E0,-2.203417969E-1,8.388492082E0
1.635233208E1,7.802075500E0,-2.406994629E0,-5.393284607E-1,8.182718402E0
1.636226608E1,7.572303314E0,-2.602188721E0,-6.162684631E-1,8.030625781E0
1.637219908E1,7.694598999E0,-2.812201996E0,-5.289999390E-1,8.209456423E0
1.638213308E1,8.119265900E0,-2.934797058E0,-3.603007507E-1,8.640910204E0
1.639206608E1,8.619226227E0,-2.771786041E0,-1.953437805E-1,9.056048686E0
1.640200008E1,9.290280762E0,-2.480042725E0,-1.591191101E-1,9.616925051E0
1.641193308E1,9.955647125E0,-2.181713104E0,-1.919009399E-1,1.019370432E1
1.642186708E1,1.049093399E1,-1.865420837E0,-2.285746765E-1,1.065794245E1
1.643180008E1,1.105121887E1,-1.810185699E0,-3.103047180E-1,1.120278982E1
1.644173408E1,1.141466309E1,-1.947749634E0,-3.737727356E-1,1.158567944E1
1.645166708E1,1.154923325E1,-2.175126801E0,-4.168830872E-1,1.175966652E1
1.646160108E1,1.173035660E1,-2.554438019E0,-5.255570984E-1,1.201676453E1
1.647153408E1,1.199680252E1,-3.163970490E0,-6.732998657E-1,1.242526912E1
1.648146808E1,1.224678268E1,-3.859873352E0,-7.571255493E-1,1.286295252E1
1.649140108E1,1.240470428E1,-4.315226440E0,-6.900650024E-1,1.315196021E1
1.650133508E1,1.260379028E1,-4.405039673E0,-4.522096252E-1,1.335905676E1
1.651126808E1,1.292202850E1,-4.312082977E0,-1.154100037E-1,1.362300260E1
1.652120208E1,1.338321945E1,-4.036655731E0,3.025209045E-1,1.398201242E1
1.653113508E1,1.388767044E1,-3.535348206E0,7.870632935E-1,1.435219655E1
1.654106908E1,1.447025894E1,-2.838696899E0,1.168021088E0,1.479225700E1
