"Time (s)","Acceleration x (m/s^2)","Acceleration y (m/s^2)","Acceleration z (m/s^2)","Absolute acceleration (m/s^2)"
1.916583278E-3,-5.292843475E0,3.040028229E0,6.104605408E0,8.632622479E0
1.184958336E-2,-4.678970032E0,3.528462524E0,5.750441895E0,8.210383080E0
2.178358333E-2,-4.229454803E0,4.069587250E0,5.442083130E0,8.004130003E0
3.171658330E-2,-4.193978577E0,4.400848389E0,5.009482727E0,7.877299032E0
4.165058339E-2,-4.425547028E0,4.247567139E0,4.595593414E0,7.664644279E0
5.158458336E-2,-5.144052887E0,3.890709229E0,4.700824585E0,7.981018117E0
6.151758332E-2,-6.290518799E0,3.152294769E0,5.073848877E0,8.674764060E0
7.145158330E-2,-6.761140137E0,2.662812653E0,5.206024017E0,8.939030889E0
8.138458338E-2,-6.840325470E0,2.119592285E0,5.441783752E0,8.994205601E0
9.131858335E-2,-6.432573395E0,1.334025879E0,5.948480072E0,8.862394749E0
1.012515833E-1,-5.297633514E0,9.984237671E-1,6.533613281E0,8.470529699E0
1.111855833E-1,-3.973187714E0,1.441652069E0,7.435338135E0,8.552709189E0
1.211185834E-1,-2.643502808E0,2.235151978E0,8.478219452E0,9.157740798E0
1.310525833E-1,-2.265987854E0,2.431543579E0,8.836424561E0,9.440842343E0
1.409865833E-1,-2.745590515E0,1.766925659E0,7.711364136E0,8.374092810E0
1.509195834E-1,-2.281705170E0,1.294508057E0,5.906267853E0,6.462656539E0
1.608535834E-1,-2.000290375E0,1.365161133E-1,5.296585693E0,5.663357506E0
1.707865833E-1,-2.186054077E0,-5.108876038E-1,4.665797424E0,5.177789507E0
1.807205833E-1,-3.144361267E0,4.490661621E-1,5.033732300E0,5.952069309E0
1.906535834E-1,-3.794758759E0,1.325194244E0,5.567073212E0,6.866486581E0
2.005875834E-1,-3.457061005E0,2.627186737E0,6.875202942E0,8.131531002E0
2.105205833E-1,-2.266586609E0,2.855611725E0,8.527916107E0,9.274550464E0
2.204545833E-1,-1.842219086E0,1.963916016E0,7.716603241E0,8.172924988E0
2.303885834E-1,-1.974693604E0,1.251397705E0,6.418951721E0,6.831423881E0
2.403215833E-1,-1.724563751E0,1.170565796E0,7.948471069E0,8.217209791E0
2.502555833E-1,-4.830155640E0,1.045875092E0,9.004824371E0,1.027186060E1
2.601885833E-1,-9.068591766E0,6.676116943E-2,9.992919617E0,1.349452690E1
2.701225834E-1,-1.106558899E1,-2.185455322E0,9.387578430E0,1.467481187E1
2.800555833E-1,-1.020472916E1,-4.107458496E0,7.581434326E0,1.335985999E1
2.899895833E-1,-9.023834839E0,-4.547992401E0,6.809938660E0,1.218561015E1
2.999225834E-1,-8.593030701E0,-3.818708954E0,7.249275055E0,1.187327687E1
3.098565834E-1,-7.362888794E0,-2.803669739E0,6.516249390E0,1.022419686E1
3.197895833E-1,-6.318809967E0,-1.869312744E0,4.819976807E0,8.164181891E0
3.297235833E-1,-6.813680878E0,-3.697311401E-1,-6.877747650E0,9.688465356E0
3.396575834E-1,-7.900720367E0,-1.983375549E-1,-8.572822723E0,1.165993180E1
3.495905834E-1,-8.650511169E0,-5.075645142E0,-3.647614746E0,1.067232919E1
3.595245833E-1,-1.139714951E1,-9.346414032E0,-4.700525208E0,1.547079214E1
3.694575833E-1,-1.228285767E1,-8.704848175E0,1.456471252E0,1.512495563E1
3.793915834E-1,-6.077062683E0,-6.847660217E0,6.465654602E0,1.120829294E1
3.893245833E-1,-2.773282928E0,-6.510112152E0,7.692503357E0,1.045214171E1
3.992585833E-1,-5.200485535E0,-4.881648560E0,7.881560211E0,1.062988870E1
4.091915833E-1,-6.848857727E0,-5.159919891E0,6.938521271E0,1.103062568E1
4.191255834E-1,-7.906857605E0,-6.004014587E0,9.521699524E-1,9.973626019E0
4.290585833E-1,-6.000871124E0,-6.169420624E0,-7.463479614E-1,8.638821700E0
4.389925833E-1,-4.602329407E0,-6.145320740E0,1.975591736E0,7.927759183E0
4.489265833E-1,-6.676116943E0,-7.001091156E0,7.678731995E0,1.235106230E1
4.588588333E-1,-7.193291473E0,-6.270909576E0,1.175221115E1,1.513876534E1
4.687928334E-1,-6.266269226E0,-3.241658936E0,1.020742355E1,1.240830280E1
4.787258334E-1,-4.722978516E0,-1.597028961E0,7.583829346E0,9.075874344E0
4.886598333E-1,-4.015699310E0,-1.415306854E0,7.761060791E0,8.852287786E0
4.985928333E-1,-5.229674835E0,-1.952988739E0,7.335495758E0,9.218088843E0
5.085268334E-1,-8.551716614E0,-2.942580872E0,9.157955933E0,1.287085064E1
5.184598333E-1,-9.670639801E0,-4.618196411E0,7.753875732E0,1.322768314E1
5.283938333E-1,-1.033450928E1,-4.700225830E0,5.195994873E0,1.248569452E1
5.383278333E-1,-1.003453308E1,-5.496270447E0,3.869303741E0,1.207776281E1
5.482608334E-1,-1.023885818E1,-7.206763458E0,4.524191895E0,1.331315022E1
5.581948333E-1,-1.157243500E1,-8.305328979E0,5.970484314E0,1.544494818E1
5.681278333E-1,-1.276829819E1,-7.626939697E0,7.214846649E0,1.653038596E1
5.780618333E-1,-1.506033188E1,-6.749314728E0,7.022346954E0,1.793544542E1
5.879948334E-1,-1.745729736E1,-8.227790222E0,6.142027588E0,2.025285822E1
5.979288333E-1,-1.869911499E1,-1.040276733E1,4.205055542E0,2.180726855E1
6.078618333E-1,-1.911988998E1,-1.113264954E1,3.761976929E0,2.244233832E1
6.177958334E-1,-1.728844849E1,-9.963281250E0,4.945266266E0,2.055755537E1
6.277288334E-1,-1.628568375E1,-8.383616180E0,4.836592255E0,1.894468633E1
6.376628333E-1,-1.723964996E1,-7.752678223E0,3.729943542E0,1.926712302E1
6.475968333E-1,-1.384381165E1,-6.987619171E0,-1.049317932E-1,1.550770625E1
6.575298334E-1,-1.008602600E1,-7.131320343E0,-2.856659546E0,1.267849179E1
6.674638333E-1,-5.879772949E0,-6.884483643E0,-3.044967957E0,9.551946127E0
6.773968333E-1,-2.753524017E0,-6.759643250E0,5.752537537E-1,7.321583726E0
6.873308333E-1,-2.045346680E0,-5.708828430E0,3.558849335E0,7.031328016E0
6.972638334E-1,-3.700604553E0,-2.615361328E0,3.841311951E0,5.940561122E0
7.071978333E-1,-7.069648590E0,-1.673519897E0,3.223396912E0,7.948011555E0
7.171308333E-1,-8.445886688E0,-4.509073334E0,1.095422058E0,9.636632906E0
7.270648333E-1,-8.122559052E0,-5.891748047E0,-7.806266785E-1,1.006469267E1
7.369988334E-1,-7.576943665E0,-6.255341949E0,-7.792794800E-1,9.856300255E0
7.469318333E-1,-7.107819214E0,-5.018613739E0,-2.300715637E0,9.000048349E0
7.568658333E-1,-6.504873047E0,-3.936513977E0,-2.395318909E0,7.971641507E0
7.667988334E-1,-7.787555695E0,-4.027824097E0,7.791297913E-1,8.802069863E0
7.767328334E-1,-6.705755310E0,-3.043920135E0,-4.255650330E-1,7.376564896E0
7.866658333E-1,-5.347180481E0,-3.663930817E0,-2.118245087E0,6.819361434E0
7.965998333E-1,-5.291047211E0,-4.523293762E0,-6.533912659E-1,6.991586886E0
8.065328334E-1,-5.496120758E0,-3.988755341E0,6.732998657E-1,6.824283498E0
8.164668333E-1,-5.081632690E0,-3.152294769E0,1.893562317E-1,5.982959877E0
8.264008333E-1,-5.754483490E0,-3.607348480E0,2.811154175E-1,6.797504628E0
8.363338333E-1,-4.547842712E0,-3.730242920E0,-2.037263489E-1,5.885498280E0
8.462678334E-1,-2.774630127E0,-2.934797058E0,-7.930508423E-1,4.115888209E0
8.562008333E-1,-1.808838501E0,-2.093995514E0,-9.915380859E-1,2.939364168E0
8.661348333E-1,-6.783892822E-1,-2.547552338E0,-8.830137634E-1,2.780278446E0
8.760678334E-1,-1.407073975E-1,-3.692521362E0,-8.888516235E-1,3.800601241E0
8.860018334E-1,1.976938934E0,-3.910617828E0,-1.706002350E0,4.702304049E0
8.959348333E-1,1.739233246E0,-5.744304657E0,-1.147214355E0,6.110488446E0
9.058688333E-1,1.110390930E0,-7.629783783E0,-2.833158417E0,8.214216652E0
9.158018334E-1,-5.413193207E0,-1.003707779E1,-5.620212708E0,1.271347247E1
9.257358334E-1,-1.198467773E1,-1.048075516E1,-3.307671661E0,1.626097847E1
9.356698333E-1,-1.150612289E1,-8.993747406E0,1.573078766E0,1.468853067E1
9.456028333E-1,-1.290780807E1,-1.007809250E1,3.702999573E0,1.678962964E1
9.555368334E-1,-1.071771240E1,-1.083192490E1,2.634671173E0,1.546419892E1
9.654698333E-1,-7.774383087E0,-1.010952713E1,1.281036072E0,1.281735638E1
9.754038333E-1,-5.736670532E0,-1.052670959E1,1.201251984E0,1.204840280E1
9.853368333E-1,-4.351750488E0,-8.898545380E0,7.259902954E-1,9.932215468E0
9.952708334E-1,-8.193960571E-1,-1.246622635E1,-8.453520813E0,1.508443646E1
1.005203833E0,-3.836671600E0,-9.935738525E0,-2.774480438E0,1.100621146E1
1.015137833E0,-1.216669922E0,-4.976251831E0,2.988535309E0,5.930827200E0
1.025070833E0,-2.968477020E0,-8.845106506E0,2.558180237E-1,9.333445655E0
1.035004833E0,-3.982318726E0,-9.305698700E0,1.144969025E0,1.018655215E1
1.044938833E0,-3.868255920E0,-9.237740021E0,1.342408447E0,1.010451904E1
1.054871833E0,-3.780538330E0,-8.262967072E0,1.332678680E0,9.183960331E0
1.064805833E0,-4.738845520E0,-8.150550842E0,-5.032534790E-1,9.441472341E0
1.074738833E0,-5.674699402E0,-8.017477570E0,-2.737806702E-1,9.826348037E0
1.084672833E0,-6.408323822E0,-9.167236633E0,5.313949585E-1,1.119764360E1
1.094605833E0,-7.905360718E0,-1.095077774E1,-1.302890625E0,1.356877980E1
1.104539833E0,-8.667875061E0,-1.145298340E1,-2.070943451E0,1.451177775E1
1.114472833E0,-6.168672180E0,-1.027912445E1,7.676037598E-1,1.201258221E1
1.124406833E0,-3.474574585E0,-8.888216858E0,1.410217438E0,9.646853408E0
1.134340833E0,-3.078498230E0,-8.562943268E0,8.539741516E-1,9.139497831E0
1.144273833E0,-4.324357452E0,-7.857460327E0,5.574407959E-1,8.986127665E0
1.154207833E0,-5.104385376E0,-8.761131134E0,-1.594184875E-1,1.014088670E1
1.164140833E0,-5.644611969E0,-1.111378876E1,1.599573669E0,1.256728215E1
1.174074833E0,-5.985453186E0,-1.227836700E1,2.990630951E0,1.398312625E1
1.184007833E0,-6.056854706E0,-1.274195297E1,3.359763336E0,1.450278815E1
1.193941833E0,-5.409600677E0,-1.245859222E1,3.140768738E0,1.394075780E1
1.203874833E0,-5.790558472E0,-1.239242981E1,3.135080566E0,1.403323249E1
1.213808833E0,-7.530839539E0,-1.300256104E1,1.892215118E0,1.514465634E1
1.223742833E0,-8.056845703E0,-1.462144455E1,-4.863087158E0,1.738818622E1
1.233675833E0,-7.176376648E0,-1.724309280E1,-7.504194946E0,2.012802954E1
1.243609833E0,-8.381370850E0,-1.682920349E1,7.219487000E-1,1.881463998E1
1.253542833E0,-5.329068146E0,-1.554352707E1,-1.561253357E-1,1.643242454E1
1.263476833E0,-5.375771027E0,-1.301827835E1,-3.770658875E-1,1.408959418E1
1.273409833E0,-5.753585358E0,-8.903485107E0,1.128802643E0,1.066067479E1
1.283343833E0,-5.003046112E0,-1.008737320E1,1.117725677E0,1.131524985E1
1.293276833E0,-5.805976410E0,-1.059616516E1,8.189469910E-1,1.211027466E1
1.303210833E0,-3.876638489E0,-1.025113266E1,-8.122109985E-1,1.098971035E1
1.313143833E0,-4.577032013E0,-8.719517670E0,-2.386786652E0,1.013291473E1
1.323077833E0,-4.175267487E0,-7.213050385E0,-2.312840424E0,8.649288136E0
1.333011833E0,-3.301684113E0,-6.013444977E0,-2.087708588E0,7.170855292E0
1.342944833E0,-2.900817719E0,-5.056934052E0,-2.309397583E0,6.270617405E0
1.352878833E0,-3.387156372E0,-5.880970459E0,-1.684896240E0,6.992675966E0
1.362811833E0,-3.279380493E0,-7.231162720E0,-1.266815643E0,8.040452262E0
1.372745833E0,-3.654051361E0,-8.221353607E0,-2.069895630E0,9.231858665E0
1.382678833E0,-4.332290955E0,-8.706794128E0,-1.508862305E0,9.841426440E0
1.392612833E0,-3.977678375E0,-8.364605713E0,-8.737330627E-1,9.303330772E0
1.402545833E0,-3.704795837E0,-8.103398895E0,-1.141376495E0,8.982946407E0
1.412479833E0,-3.053500214E0,-7.936495972E0,-1.812131653E0,8.694576067E0
1.422413833E0,-3.112028503E-1,-4.648882599E0,3.180885315E-1,4.670132433E0
1.432346833E0,3.144810333E0,-5.415737915E-1,-7.220983887E-1,3.271782433E0
1.442280833E0,5.390590210E0,1.932631073E0,-4.420158234E0,7.234039293E0
1.452213833E0,5.709726562E0,2.662962341E-1,-1.003453308E1,1.154832218E1
1.462148750E0,4.739893341E0,-3.283571777E0,-4.992717590E0,7.627297125E0
1.472081750E0,-3.765419769E0,-7.581883392E0,3.801195374E0,9.279678232E0
1.482015750E0,-1.259001892E1,-1.050784882E1,4.735851746E0,1.706902911E1
1.491948750E0,-1.271111710E1,-1.252220993E1,-1.931882629E0,1.794743463E1
1.501882750E0,-8.779991913E0,-1.267653900E1,-5.244194641E0,1.628755588E1
1.511815750E0,-6.445446625E0,-8.915759583E0,-2.403102722E0,1.126097038E1
1.521749750E0,-3.573668518E0,-9.211544495E0,-2.115101624E-1,9.882732173E0
1.531683750E0,-5.304668884E0,-1.250754044E1,-7.786807251E-1,1.360824836E1
1.541616750E0,-3.898642731E0,-1.122171432E1,-1.884580994E0,1.202821404E1
1.551550750E0,-2.915187836E0,-8.401279449E0,-2.294578400E0,9.183948309E0
1.561483750E0,-4.050876160E0,-8.460256805E0,-1.072369995E0,9.441160960E0
1.571417750E0,-4.294419708E0,-9.180858307E0,-5.140310669E-1,1.014861704E1
1.581350750E0,-4.339625702E0,-9.749525757E0,-1.131347351E0,1.073152135E1
1.591284750E0,-3.812122650E0,-8.623716888E0,-6.268963623E-1,9.449538143E0
1.601217750E0,-3.353626099E0,-8.105644226E0,3.802093506E-1,8.780252586E0
1.611151750E0,-2.386038208E0,-7.251819763E0,7.870632935E-1,7.674733665E0
1.621085750E0,-1.981130219E0,-8.537047119E0,1.027613068E0,8.823946910E0
1.631018750E0,-2.611619110E0,-9.136700134E0,1.082548828E0,9.564086767E0
1.640952750E0,-2.607427826E0,-8.990753632E0,1.350042572E0,9.458062470E0
1.650885750E0,-1.124910736E0,-6.034551086E0,1.330732727E-1,6.139946211E0
1.660819750E0,-1.149908752E0,-6.315516815E0,-1.657054138E-1,6.421487450E0
1.670752750E0,-3.115471344E0,-8.289911041E0,2.155367889E0,9.114515758E0
1.680686750E0,-3.749552765E0,-8.431965637E0,2.626887360E0,9.594671836E0
1.690619750E0,-2.758613434E0,-7.515421600E0,1.684896240E0,8.181099269E0
1.700553750E0,-2.397264862E0,-7.178771667E0,1.493144989E0,7.714345302E0
1.710487750E0,-2.802621918E0,-7.898774414E0,8.223898315E-1,8.421499385E0
1.720420750E0,-3.887116699E0,-7.901768188E0,6.110293579E-1,8.827285744E0
1.730354750E0,-4.467609558E0,-8.254584503E0,4.959187317E-1,9.399129527E0
1.740287750E0,-4.547842712E0,-8.481662292E0,2.639012146E-1,9.627622366E0
1.750221750E0,-4.170178070E0,-9.663005676E0,4.492158508E-1,1.053403335E1
1.760154750E0,-4.497696991E0,-1.008602600E1,4.131408691E-1,1.105114854E1
1.770088750E0,-4.598587189E0,-1.009994705E1,9.837542725E-1,1.114108195E1
1.780021750E0,-4.882546692E0,-9.712103577E0,1.735191650E0,1.100795658E1
1.789955750E0,-6.380631409E0,-1.193932205E1,2.327809296E0,1.373603161E1
1.799888750E0,-5.648204498E0,-1.175864777E1,2.277513885E0,1.324217055E1
1.809822750E0,-5.033133545E0,-1.091006241E1,2.512225800E0,1.227490014E1
1.819756750E0,-5.711672516E0,-1.001462448E1,2.472408600E0,1.179104367E1
1.829689750E0,-6.176306305E0,-9.861043854E0,2.296674042E0,1.186008672E1
1.839623750E0,-5.541476440E0,-8.831784210E0,2.421364746E0,1.070380216E1
1.849556750E0,-4.436174927E0,-8.812025299E0,2.894830170E0,1.028160880E1
1.859490750E0,-3.745810547E0,-1.018990997E1,2.336191864E0,1.110509587E1
1.869423750E0,-3.428620148E0,-1.129221771E1,1.413660278E0,1.188562377E1
1.879357750E0,-3.589535522E0,-1.124925705E1,1.499581604E0,1.190291117E1
1.889290750E0,-3.723806305E0,-1.091111023E1,-4.498146057E-1,1.153782445E1
1.899224750E0,-4.687951355E0,-1.153845566E1,-2.857857056E0,1.277811386E1
1.909158750E0,-7.068900146E0,-1.252655090E1,-5.348527679E0,1.534570217E1
1.919091750E0,-6.202052765E0,-1.256187744E1,-7.052135010E0,1.568434989E1
1.929025750E0,-3.238964539E0,-1.222328156E1,-6.339766388E0,1.414539293E1
1.938958750E0,-1.432371368E0,-1.135059631E1,-4.580175476E0,1.232338151E1
1.948892750E0,-5.379812622E-1,-1.041055115E1,-2.744243317E0,1.077960437E1
1.958825750E0,-8.896000671E-1,-9.670041046E0,-2.334844666E0,9.987621425E0
1.968759750E0,-1.268611908E0,-9.359586639E0,-2.503992920E0,9.771449165E0
1.978692750E0,-6.116281128E-1,-9.726922760E0,-3.096610565E0,1.022624625E1
1.988626750E0,-1.240171051E0,-1.044632675E1,-3.913312225E0,1.122398233E1
1.998560750E0,-1.241817627E0,-1.149774033E1,-3.478017426E0,1.207628870E1
2.008493750E0,-1.923799438E0,-1.315120193E1,-1.213077393E0,1.334641051E1
2.018427750E0,-1.965712280E0,-1.311228287E1,3.562591553E-2,1.325885576E1
2.028360750E0,-1.152154083E0,-1.197614548E1,7.825726318E-1,1.205686275E1
2.038294750E0,-5.746549988E-1,-1.153291718E1,3.890409851E-1,1.155377686E1
2.048227750E0,-2.369572449E-1,-1.103834564E1,-3.532653809E-2,1.104094521E1
2.058161750E0,-3.601510620E-1,-1.034169434E1,-7.747888184E-1,1.037692865E1
2.068094750E0,-9.030720520E-1,-9.947264557E0,-1.614093475E0,1.011775217E1
2.078028750E0,-1.247954865E0,-9.518855438E0,-2.175575867E0,9.843735599E0
2.087962750E0,-1.531465302E0,-8.998687134E0,-2.249372406E0,9.401139948E0
2.097895750E0,-1.672322388E0,-8.220904541E0,-1.893861694E0,8.600386373E0
2.107829750E0,-1.834734650E0,-7.236850891E0,-1.410666504E0,7.597910373E0
2.117762750E0,-2.099983063E0,-6.548731842E0,-1.260528717E0,6.991763029E0
2.127696750E0,-2.256856842E0,-5.163362732E0,-1.196761322E0,5.760725229E0
2.137629750E0,-2.013912048E0,-4.677173767E0,-9.824070740E-1,5.186224045E0
2.147563750E0,-1.301842804E0,-5.717510376E0,-4.534071350E-1,5.881351683E0
2.157496750E0,-1.972747650E0,-7.262447662E0,-9.684860229E-2,7.526238037E0
2.167430750E0,-2.284998322E0,-6.841073914E0,-1.474433899E-1,7.214100718E0
2.177363750E0,-1.025517426E0,-6.190227356E0,-6.161187744E-1,6.304776210E0
2.187297750E0,2.598596191E-1,-5.411396942E0,-7.682025146E-1,5.471825928E0
2.197231750E0,7.243437195E-1,-5.326224060E0,-4.291575623E-1,5.392356885E0
2.207164750E0,6.450086975E-1,-6.211932220E0,-1.178050232E-1,6.246440279E0
2.217098750E0,-5.141807556E-1,-6.901697845E0,1.167572021E-2,6.920834583E0
2.227031750E0,-1.616039429E0,-8.030201111E0,-1.616638184E-2,8.191213260E0
2.236965750E0,-1.055754547E0,-8.537196808E0,1.047821045E-1,8.602867330E0
2.246898750E0,3.650907898E-1,-8.685987396E0,2.083666992E-1,8.696153461E0
2.256832750E0,3.341052246E-1,-8.821755066E0,3.821553040E-1,8.836347176E0
2.266766750E0,1.005908203E-1,-8.708291016E0,6.506968689E-1,8.733147047E0
2.276699750E0,-1.646575928E-1,-9.315877533E0,7.746391296E-1,9.349478708E0
2.286633750E0,-6.517446899E-1,-9.574839020E0,6.301895142E-1,9.617663553E0
2.296566750E0,-6.379733276E-1,-9.566456451E0,1.078956299E0,9.648225002E0
2.306500750E0,-9.888436890E-1,-8.693022766E0,1.216370544E0,8.833233494E0
2.316433750E0,-1.558259583E0,-8.233179016E0,2.887495422E-1,8.384317858E0
2.326367750E0,-1.790426788E0,-8.243208160E0,-9.469308472E-1,8.488391302E0
2.336300750E0,-2.349214783E0,-8.540489960E0,-1.374890900E0,8.963766163E0
2.346234750E0,-2.790048065E0,-9.273365936E0,-1.454076233E0,9.792549295E0
2.356167750E0,-1.942360840E0,-1.095197525E1,-1.715283051E0,1.125436464E1
2.366101750E0,-7.447013855E-1,-1.204170914E1,-1.681453400E0,1.218132278E1
2.376035750E0,-7.803273010E-1,-1.241368561E1,-8.505313110E-1,1.246723324E1
2.385968750E0,-6.782395935E-1,-1.231818420E1,-4.165837097E-1,1.234387350E1
2.395902750E0,-4.311035156E-1,-1.133921997E1,-2.095642090E-3,1.134741222E1
2.405835750E0,-7.321275330E-1,-1.042686722E1,7.768844604E-1,1.048137015E1
2.415769750E0,-7.384144592E-1,-9.871222687E0,1.375938721E0,9.993973214E0
2.425702750E0,-8.225395203E-1,-9.937235413E0,2.160008240E0,1.020249256E1
2.435636750E0,-6.394702148E-1,-1.049587372E1,2.674488373E0,1.085012329E1
2.445569750E0,-8.346643066E-1,-1.128817612E1,2.790347443E0,1.165785672E1
2.455503750E0,-1.439706116E0,-1.226624222E1,2.138303375E0,1.253418498E1
2.465437083E0,-1.827998657E0,-1.383063904E1,5.957611084E-1,1.396363443E1
2.475370083E0,-1.811682587E0,-1.531824554E1,-1.691183167E0,1.551743989E1
2.485304083E0,-1.863175507E0,-1.661125671E1,-3.272794189E0,1.703280524E1
2.495237083E0,-1.653012543E0,-1.731314713E1,-4.014352112E0,1.784916067E1
2.505171083E0,-1.087488556E0,-1.711256424E1,-3.531605988E0,1.750699081E1
2.515104083E0,1.944456482E-1,-1.593945374E1,-2.177521820E0,1.608867912E1
2.525038083E0,1.624571686E0,-1.410501846E1,-8.770262146E-1,1.422532790E1
2.534971083E0,1.005309448E0,-1.058029816E1,-4.902305603E-1,1.063925196E1
2.544905083E0,-3.755690002E-1,-7.093598785E0,-7.409591675E-2,7.103920467E0
2.554839083E0,-2.841840363E0,-4.925657043E0,-1.004860382E0,5.774763921E0
2.564772083E0,-2.534828796E0,-3.642375641E0,-2.145638123E0,4.929099339E0
2.574706083E0,-2.065404968E0,-3.960015106E0,-2.975213013E0,5.366517474E0
2.584639083E0,-9.975256348E-1,-5.811963959E0,-2.882555695E0,6.563772527E0
2.594573083E0,-5.334906006E-1,-8.166417847E0,-2.532134399E0,8.566603603E0
2.604506083E0,-3.784130859E-1,-9.869426422E0,-1.898202667E0,1.005743246E1
2.614440083E0,-1.622625732E-1,-1.052162018E1,-1.716031494E0,1.066187528E1
2.624373083E0,1.348695374E-1,-1.069915100E1,-2.194736023E0,1.092276925E1
2.634307083E0,6.959028625E-1,-1.066666855E1,-2.979703674E0,1.109687941E1
2.644241083E0,8.255332947E-1,-1.118069962E1,-2.958896942E0,1.159502567E1
2.654174083E0,6.069877625E-1,-1.131377289E1,-2.617007904E0,1.162835420E1
2.664108083E0,-3.167413330E-1,-1.029199768E1,-2.556833038E0,1.060956816E1
2.674041083E0,1.603166199E-1,-9.900711365E0,-2.929408264E0,1.032623938E1
2.683975083E0,3.183879089E-1,-1.060110489E1,-2.872077484E0,1.098788537E1
2.693908083E0,-4.095483398E-1,-1.094613739E1,-2.727328491E0,1.128822281E1
2.703842083E0,-8.451425171E-1,-1.018482056E1,-2.822231140E0,1.060234994E1
2.713775083E0,-1.203347626E0,-8.787176971E0,-2.298919373E0,9.162289829E0
2.723709083E0,-1.509161682E0,-7.641908569E0,-1.607507172E0,7.953641611E0
2.733642083E0,-1.445843353E0,-6.725963287E0,-1.995500336E0,7.163174348E0
2.743576083E0,-1.857637024E0,-6.099216614E0,-2.092049561E0,6.710285387E0
2.753510083E0,-2.033371582E0,-5.223986664E0,-2.323618011E0,6.068264770E0
2.763443083E0,-2.251018982E0,-4.756658478E0,-2.206262054E0,5.706178983E0
2.773377083E0,-2.337988129E0,-4.657414856E0,-2.162852325E0,5.642307313E0
2.783310083E0,-2.543660431E0,-4.933440857E0,-2.074236603E0,5.925496145E0
2.793244083E0,-2.379451904E0,-5.356910248E0,-1.901346130E0,6.162255746E0
2.803177083E0,-2.215991821E0,-6.264323273E0,-1.944306793E0,6.923344186E0
2.813111083E0,-1.909429321E0,-7.388335876E0,-2.143542480E0,7.926424271E0
2.823044083E0,-1.872905273E0,-8.037386169E0,-1.929188232E0,8.475206065E0
2.832978083E0,-1.577569427E0,-8.475375366E0,-1.495989075E0,8.749782638E0
2.842912083E0,-1.335672455E0,-9.005872192E0,-1.010548553E0,9.160292748E0
2.852845083E0,-1.098266144E0,-9.323661346E0,-5.692662048E-1,9.405366204E0
2.862779083E0,-1.100361786E0,-9.589807892E0,-4.047583008E-1,9.661213213E0
2.872712083E0,-8.033793640E-1,-9.531429291E0,-5.631289673E-1,9.581788818E0
2.882646083E0,-7.439529419E-1,-9.445957031E0,-3.387455750E-1,9.481261455E0
2.892579083E0,-7.399113464E-1,-9.330846405E0,-3.224295044E-1,9.365688668E0
2.902513083E0,-7.131170654E-1,-9.131461029E0,-4.028123474E-1,9.168117269E0
2.912446083E0,-7.798782349E-1,-8.952583008E0,-2.348616028E-1,8.989555748E0
2.922380083E0,-4.436773682E-1,-9.136400757E0,-1.167572021E-1,9.147912365E0
2.932314083E0,-1.615141296E-1,-9.206754456E0,-3.126997375E-1,9.213479014E0
2.942247083E0,-1.633103943E-1,-9.040150909E0,-7.176077271E-1,9.070058412E0
2.952181083E0,-4.519102478E-1,-8.999585266E0,-1.238075409E0,9.095580716E0
2.962114083E0,-1.043929138E0,-9.360784149E0,-1.483115845E0,9.534867621E0
2.972048083E0,-1.480122070E0,-9.747430115E0,-1.651815033E0,9.996581820E0
2.981981083E0,-1.840422821E0,-9.971663818E0,-9.530680847E-1,1.018477168E1
2.991915083E0,-1.825304260E0,-1.048764084E1,-4.201762390E-1,1.065358597E1
3.001848083E0,-1.939965820E0,-1.093221634E1,4.073030090E-1,1.111047781E1
3.011782083E0,-1.550625458E0,-1.141825562E1,9.511221313E-1,1.156225038E1
3.021716083E0,-1.456321564E0,-1.158650574E1,1.731599121E0,1.180535570E1
3.031649083E0,-1.375339966E0,-1.219214630E1,1.756148071E0,1.239451683E1
3.041583083E0,-1.810934143E0,-1.320778427E1,1.204245758E0,1.338563617E1
3.051516083E0,-2.478695526E0,-1.381911301E1,2.035766602E-1,1.404112742E1
3.061450083E0,-2.381846924E0,-1.310390030E1,-4.279600525E-1,1.332548489E1
3.071383083E0,-2.270478516E0,-1.333337311E1,-1.056353302E0,1.356649525E1
3.081317083E0,-2.522853699E0,-1.419378387E1,-2.355950775E0,1.460749108E1
3.091250083E0,-3.151396637E0,-1.442355606E1,-4.790039062E0,1.552142856E1
3.101184083E0,-3.312312012E0,-1.392135040E1,-6.545438690E0,1.573588814E1
3.111118083E0,-3.566333771E0,-1.231563950E1,-7.524851990E0,1.486664422E1
3.121051083E0,-3.209625549E0,-1.014844620E1,-7.958200836E0,1.329005707E1
3.130985083E0,-1.790576477E0,-8.000113678E0,-6.262077942E0,1.031608468E1
3.140918083E0,-9.360035706E-1,-6.420149231E0,-3.026855621E0,7.159348698E0
3.150852083E0,-6.780899048E-1,-6.253994751E0,-1.521286469E0,6.471983373E0
3.160785083E0,-1.069675598E0,-7.395970001E0,-1.887425079E0,7.707590517E0
3.170719083E0,-3.743714905E-1,-9.039402466E0,-2.096240845E0,9.286828125E0
3.180652083E0,5.408253479E-1,-1.092488159E1,-1.772913208E0,1.108100858E1
3.190586083E0,1.243763580E0,-1.231983078E1,-1.685644684E0,1.249666261E1
3.200520083E0,8.527766418E-1,-1.317155960E1,-1.563049622E0,1.329136315E1
3.210453083E0,2.451901245E-1,-1.349548599E1,-1.822460175E0,1.362019168E1
3.220387083E0,9.699829102E-2,-1.349249222E1,-2.493514709E0,1.372131082E1
3.230320083E0,1.399589539E-1,-1.331765579E1,-3.132984924E0,1.368192745E1
3.240254083E0,1.143621826E-1,-1.276725037E1,-3.066672821E0,1.313088888E1
3.250187083E0,9.280700684E-3,-1.167122955E1,-2.963237915E0,1.204153081E1
3.260121083E0,-2.969824219E-1,-1.045096710E1,-3.107088776E0,1.090710377E1
3.270054083E0,-4.695735168E-1,-9.269474030E0,-3.049907684E0,9.769625630E0
3.279988083E0,-5.168751526E-1,-8.504564667E0,-2.992726593E0,9.030569891E0
3.289922083E0,-6.111790466E-1,-7.680528259E0,-2.416275330E0,8.074802823E0
3.299855083E0,-9.087602234E-1,-6.142027588E0,-1.774559784E0,6.457508069E0
3.309789083E0,-1.287472687E0,-5.378465424E0,-1.500629425E0,5.730389594E0
3.319722083E0,-1.122964783E0,-5.350024567E0,-1.560205536E0,5.684897016E0
3.329656083E0,-9.172924805E-1,-5.328619080E0,-1.509161682E0,5.613659749E0
3.339589083E0,-8.726852417E-1,-5.344635773E0,-1.527124329E0,5.626617082E0
3.349523083E0,-9.617500305E-1,-5.457201691E0,-1.527124329E0,5.747879794E0
3.359456083E0,-7.994874573E-1,-5.815107422E0,-1.687440948E0,6.107545454E0
3.369390083E0,-6.336323547E-1,-6.125861206E0,-1.458716583E0,6.328943004E0
3.379324083E0,-5.789959717E-1,-6.632557526E0,-9.571096802E-1,6.726225881E0
3.389257083E0,-3.215313721E-1,-7.232958984E0,-5.195695496E-1,7.258721004E0
3.399191083E0,-3.219804382E-1,-7.863447876E0,-3.824546814E-1,7.879324558E0
3.409124083E0,-3.773652649E-1,-8.205935669E0,-4.787045288E-1,8.228544390E0
3.419058083E0,-2.239343262E-1,-8.127049713E0,-4.414320374E-1,8.142109424E0
3.428991083E0,-2.041754150E-1,-7.790998535E0,-2.242337036E-1,7.796898520E0
3.438925083E0,-8.187973022E-2,-7.329957275E0,-1.661544800E-2,7.330433413E0
3.448858083E0,-3.107537842E-1,-7.191046143E0,2.546205139E-1,7.202259655E0
3.458792083E0,-8.978329468E-1,-7.321874084E0,7.140151978E-1,7.411191659E0
3.468726583E0,-1.319805450E0,-7.330705719E0,8.222401428E-1,7.493811555E0
3.478659583E0,-1.779349823E0,-7.479346619E0,8.614585876E-1,7.736202074E0
3.488593583E0,-1.726509705E0,-7.841593323E0,7.532336426E-1,8.064662579E0
3.498526583E0,-1.391656036E0,-8.161777496E0,-5.804928589E-1,8.299897010E0
3.508460583E0,-8.255332947E-1,-8.377029877E0,-1.552721100E0,8.559619010E0
3.518393583E0,-7.661068726E-1,-8.865763550E0,-2.240690460E0,9.176566722E0
3.528327583E0,-3.285667419E-1,-9.135203247E0,-2.602338409E0,9.504317949E0
3.538260583E0,-9.729766846E-2,-1.043375290E1,-2.465822296E0,1.072161117E1
3.548194583E0,-2.977308655E-1,-1.283535873E1,-1.987866211E0,1.299179316E1
3.558128583E0,-5.219645691E-1,-1.413914749E1,-1.791474609E0,1.426174323E1
3.568061583E0,-3.996688843E-1,-1.431084045E1,-1.012344818E0,1.435216819E1
3.577995583E0,-1.046324158E-1,-1.321990906E1,2.712359619E-1,1.322310525E1
3.587928583E0,-8.532257080E-2,-1.172182434E1,1.231788483E0,1.178667674E1
3.597862583E0,-2.769241333E-2,-1.101753891E1,1.708397369E0,1.114923998E1
3.607795583E0,4.394860840E-1,-1.118938156E1,1.103654938E0,1.125226475E1
3.617729583E0,6.477030945E-1,-1.163994461E1,-3.498225403E-1,1.166319877E1
3.627662583E0,-6.179150391E-1,-1.251712051E1,-1.303040314E0,1.259992218E1
3.637596583E0,-1.766476593E0,-1.323158478E1,-2.326611786E0,1.355021763E1
3.647530583E0,-1.681453400E0,-1.336001770E1,-3.280428314E0,1.385924126E1
3.657463583E0,-7.581733704E-1,-1.423749298E1,-4.471501465E0,1.494240137E1
3.667397583E0,1.905537415E-1,-1.582524124E1,-5.123994598E0,1.663520038E1
3.677330583E0,5.376818848E-1,-1.693892532E1,-4.130660248E0,1.744358469E1
3.687264583E0,2.192939758E-1,-1.578347809E1,-3.405418396E0,1.614816228E1
3.697197583E0,-3.471281433E-1,-1.254151978E1,-3.279380493E0,1.296782760E1
3.707131583E0,3.727249146E-2,-8.838819580E0,-2.887944489E0,9.298728095E0
3.717064583E0,-3.643423462E-1,-6.474186859E0,-2.556533661E0,6.970201230E0
3.726998583E0,-9.092092896E-1,-5.286107483E0,-2.945574646E0,6.119314001E0
3.736932583E0,-1.350341949E0,-5.533842316E0,-3.809278564E0,6.852549696E0
3.746865583E0,-1.478026428E0,-6.753805389E0,-4.106111298E0,8.041057104E0
3.756799583E0,-1.448837128E0,-7.835007019E0,-3.663332062E0,8.769633163E0
3.766732583E0,-1.196162567E0,-8.091573486E0,-3.592978363E0,8.933860302E0
3.776666583E0,-6.842271423E-1,-8.782237244E0,-4.101770325E0,9.717014849E0
3.786599583E0,-5.706134033E-1,-9.761800232E0,-4.988975372E0,1.097762354E1
3.796533583E0,-4.376898193E-1,-1.110031677E1,-5.107079773E0,1.222664585E1
3.806466583E0,-3.041674805E-1,-1.172302185E1,-4.457580414E0,1.254558816E1
3.816400583E0,-1.270857239E-1,-1.119087845E1,-3.897145844E0,1.185072390E1
3.826334583E0,2.101629639E-1,-1.012030472E1,-3.432362366E0,1.068858491E1
3.836267583E0,6.653663635E-1,-8.841513977E0,-3.146905975E0,9.408405764E0
3.846201583E0,6.930587769E-1,-9.021888885E0,-2.810256042E0,9.474827099E0
3.856134583E0,5.682183838E-1,-9.544302521E0,-2.658920746E0,9.924033569E0
3.866068583E0,1.460961914E-1,-9.467811584E0,-2.296524353E0,9.743450333E0
3.876001583E0,-2.918930054E-1,-8.588390350E0,-2.155517578E0,8.859565811E0
3.885935583E0,-7.355703735E-1,-7.617658997E0,-1.977687378E0,7.904494907E0
3.895869583E0,-9.331594849E-1,-6.776857452E0,-2.138602753E0,7.167301116E0
3.905802583E0,-1.118025055E0,-6.069877625E0,-2.318378906E0,6.593047486E0
3.915736583E0,-1.616189117E0,-5.756728821E0,-2.419867859E0,6.450407308E0
3.925669583E0,-1.305585022E0,-5.270240479E0,-2.585872650E0,6.013877644E0
3.935603583E0,-1.453926544E0,-5.047803040E0,-2.442021790E0,5.792899822E0
3.945536583E0,-1.438807983E0,-5.096451874E0,-2.426903229E0,5.825276766E0
3.955470583E0,-1.559307404E0,-5.381758575E0,-2.132016449E0,5.995019523E0
3.965403583E0,-1.422192535E0,-5.795647888E0,-1.944905548E0,6.276529586E0
3.975337583E0,-1.201551361E0,-6.782096558E0,-1.554816742E0,7.061020783E0
3.985271583E0,-1.198258209E0,-7.677534485E0,-1.410217438E0,7.897409178E0
3.995204583E0,-1.374591522E0,-8.069269867E0,-1.393901367E0,8.303347461E0
4.005138583E0,-1.597328339E0,-8.453969879E0,-1.300645294E0,8.701306955E0
4.015071583E0,-1.724863129E0,-8.610244904E0,-1.175954590E0,8.859703116E0
4.025005583E0,-1.608255615E0,-8.766370239E0,-9.737251282E-1,8.965705434E0
4.034938583E0,-1.493893433E0,-8.725804596E0,-9.509724426E-1,8.903692044E0
4.044872583E0,-1.185384979E0,-8.733438721E0,-8.234376526E-1,8.851900305E0
4.054805583E0,-1.151106262E0,-8.735833740E0,-1.012344818E0,8.869311067E0
4.064739583E0,-8.126600647E-1,-8.933572540E0,-1.065184937E0,9.033479599E0
4.074673583E0,-4.546046448E-1,-9.407037964E0,-7.125183105E-1,9.444930438E0
4.084606583E0,-3.815565491E-1,-9.901609497E0,-7.294331360E-1,9.935770163E0
4.094540583E0,1.188528442E-1,-9.857301636E0,-1.035995636E0,9.912305912E0
4.104473583E0,2.124082947E-1,-9.858948212E0,-1.588496704E0,9.988358169E0
4.114407583E0,1.945953369E-2,-9.717043304E0,-2.210453339E0,9.965310493E0
4.124340583E0,-3.778143311E-1,-1.022284149E1,-1.880240021E0,1.040117947E1
4.134274583E0,-1.570683746E0,-1.065364563E1,-1.594334564E0,1.088618920E1
4.144207583E0,-2.239343262E0,-1.078746735E1,-1.249302063E0,1.108805058E1
4.154141583E0,-2.569556580E0,-1.128667923E1,-6.117778015E-1,1.159163583E1
4.164075583E0,-2.759661255E0,-1.128608047E1,-1.332229614E-1,1.161934125E1
4.174008583E0,-2.999163208E0,-1.151989426E1,5.089416504E-3,1.190390564E1
4.183942583E0,-2.897524567E0,-1.198108521E1,-7.783813477E-3,1.232648011E1
4.193875583E0,-2.678529968E0,-1.285616547E1,-7.753875732E-2,1.313246076E1
4.203809583E0,-2.046993256E0,-1.385533768E1,-5.083428955E-1,1.401495544E1
4.213742583E0,-1.238524475E0,-1.400203262E1,-8.562194824E-1,1.408275443E1
4.223676583E0,-1.731898499E0,-1.378782806E1,-1.102607117E0,1.393984998E1
4.233609583E0,-2.133812714E0,-1.405517212E1,-2.189796295E0,1.438388778E1
4.243543583E0,-2.511477356E0,-1.393422363E1,-5.007836151E0,1.501827319E1
4.253477583E0,-3.381917267E0,-1.347273331E1,-7.821984100E0,1.594162295E1
4.263410583E0,-3.960763550E0,-1.279419434E1,-8.640332336E0,1.593845662E1
4.273344583E0,-3.820954285E0,-1.149504593E1,-9.183403015E0,1.520100863E1
4.283277583E0,-2.233954468E0,-9.511221313E0,-7.719447327E0,1.245165654E1
4.293211583E0,-4.083508301E-1,-7.585475922E0,-5.682932281E0,9.486933892E0
4.303144583E0,4.496649170E-1,-6.476731567E0,-4.960384827E0,8.170414185E0
4.313078583E0,5.065466309E-1,-6.530320129E0,-4.046385498E0,7.699019813E0
4.323011583E0,4.403842163E-1,-7.517068176E0,-3.207080841E0,8.184474311E0
4.332945583E0,5.851332092E-1,-8.727301483E0,-2.623594208E0,9.131890200E0
4.342879583E0,8.753796387E-1,-1.023062531E1,-2.390528870E0,1.054260935E1
4.352812583E0,8.530760193E-1,-1.146645538E1,-2.155667267E0,1.169847166E1
4.362746583E0,6.424639893E-1,-1.212658264E1,-2.276316376E0,1.235509542E1
4.372679583E0,6.420149231E-1,-1.236264175E1,-2.639910278E0,1.265765462E1
4.382613583E0,6.349795532E-1,-1.228076202E1,-2.713706818E0,1.259303457E1
4.392546583E0,7.677534485E-1,-1.189890610E1,-2.986739044E0,1.229203082E1
4.402480583E0,1.015787659E0,-1.154219788E1,-3.237317963E0,1.203056042E1
4.412414583E0,7.450007629E-1,-1.098760117E1,-3.152294769E0,1.145510226E1
4.422347583E0,2.639012146E-1,-1.004546036E1,-2.974314880E0,1.047986005E1
4.432281583E0,-2.026785278E-1,-9.029223633E0,-2.665507050E0,9.416628156E0
4.442214583E0,-4.933740234E-1,-8.072413330E0,-2.383792877E0,8.431473381E0
4.452148583E0,-5.821394348E-1,-7.039710846E0,-2.167642365E0,7.388848932E0
4.462081208E0,-6.095324707E-1,-6.242768097E0,-1.841470642E0,6.537178097E0
4.472015208E0,-8.699908447E-1,-5.635181580E0,-1.769170990E0,5.970102302E0
4.481948208E0,-1.070424042E0,-5.172793121E0,-1.495989075E0,5.490134754E0
4.491882208E0,-1.236728210E0,-4.740342407E0,-1.633553009E0,5.164188052E0
4.501816208E0,-1.432071991E0,-4.672533417E0,-1.800156555E0,5.208067045E0
4.511749208E0,-1.387913818E0,-4.640050964E0,-1.840572510E0,5.181127762E0
4.521683208E0,-1.095272369E0,-4.798271942E0,-1.622625732E0,5.182272616E0
4.531616208E0,-5.264552307E-1,-5.303621063E0,-1.314566345E0,5.489411277E0
4.541550208E0,-3.773652649E-1,-6.177803192E0,-9.458830261E-1,6.261178126E0
4.551483208E0,-3.174897766E-1,-7.048841858E0,-8.231382751E-1,7.103838956E0
4.561417208E0,-1.507365417E-1,-7.599546661E0,-7.860154724E-1,7.641573875E0
4.571350208E0,3.427871704E-2,-7.683821411E0,-6.258485413E-1,7.709343221E0
4.581284208E0,1.341210938E-1,-7.625891876E0,-3.411405945E-1,7.634696607E0
4.591218208E0,1.920506287E-1,-7.592960358E0,-1.730401611E-1,7.597359629E0
4.601151208E0,2.020797729E-2,-7.492519226E0,-3.607498169E-2,7.492633323E0
4.611085208E0,-4.296066284E-1,-7.430697784E0,1.734892273E-1,7.445127932E0
4.621018208E0,-9.424401855E-1,-7.644602966E0,7.509883118E-1,7.739000676E0
4.630952208E0,-1.612596588E0,-8.112978973E0,8.791218567E-1,8.318278116E0
4.640885208E0,-2.008223877E0,-8.747060394E0,3.242257690E-1,8.980487238E0
4.650819208E0,-1.725012817E0,-9.088949432E0,-9.963281250E-1,9.304694554E0
4.660752208E0,-9.030720520E-1,-9.308692474E0,-2.339485016E0,9.640564551E0
4.670686208E0,1.407073975E-1,-9.218130798E0,-3.104394379E0,9.727846547E0
4.680620208E0,8.050259399E-1,-8.644523621E0,-3.212469635E0,9.257203495E0
4.690553208E0,1.850901031E0,-9.415121155E0,-2.982398071E0,1.004813611E1
4.700487208E0,1.975591736E0,-1.309387115E1,-2.238744507E0,1.342998144E1
4.710420208E0,8.671467590E-1,-1.661035858E1,-1.571282501E0,1.670703099E1
4.720354208E0,-1.698966980E-1,-1.654464523E1,-8.189469910E-1,1.656577269E1
4.730287208E0,-2.042053528E0,-1.462593521E1,5.538482666E-2,1.476790543E1
4.740221208E0,-3.602708130E0,-1.182945053E1,7.087760925E-1,1.238619269E1
4.750155208E0,-3.054997101E0,-9.626781006E0,1.156794434E0,1.016592805E1
4.760088208E0,-2.160008240E0,-9.130712585E0,1.434317322E0,9.491723452E0
4.770022208E0,-1.891316986E0,-1.004516098E1,1.127305756E0,1.028363541E1
4.779955208E0,-1.673220520E0,-1.162407761E1,-4.379891968E-1,1.175205010E1
4.789889208E0,-1.417103119E0,-1.300705170E1,-1.940714264E0,1.322716700E1
4.799822208E0,-1.443148956E0,-1.367361557E1,-3.431015167E0,1.417117874E1
4.809756208E0,-9.354048157E-1,-1.319580917E1,-5.435197449E0,1.430194858E1
4.819689208E0,6.060896301E-1,-1.334714447E1,-6.580465851E0,1.489349324E1
4.829623208E0,2.066752167E0,-1.489702148E1,-5.940097504E0,1.617026506E1
4.839557208E0,1.951940918E0,-1.642279861E1,-4.205205231E0,1.706464587E1
4.849490208E0,9.105564880E-1,-1.552661224E1,-3.020718384E0,1.584391178E1
4.859424208E0,7.249424744E-1,-1.235291199E1,-3.217109985E0,1.278552982E1
4.869357208E0,-1.960922241E-2,-8.201894073E0,-3.481909332E0,8.910395250E0
4.879291208E0,-7.726931763E-1,-5.700595551E0,-3.342698822E0,6.653381080E0
4.889224208E0,-2.101629639E-1,-4.976850586E0,-3.090623016E0,5.862180555E0
4.899158208E0,-5.529501343E-1,-5.688171387E0,-3.342848511E0,6.620852191E0
4.909091208E0,-9.011260986E-2,-7.283104706E0,-4.521347809E0,8.572882855E0
4.919025208E0,3.091072083E-1,-9.144633636E0,-4.882546692E0,1.037107197E1
4.928959208E0,6.345304871E-1,-1.018826340E1,-4.570296021E0,1.118440636E1
4.938892208E0,5.643264771E-2,-1.079989151E1,-5.013674011E0,1.190704700E1
4.948826208E0,3.088078308E-1,-1.170026917E1,-5.628295898E0,1.298727745E1
4.958759208E0,3.971241760E-1,-1.201117264E1,-5.386099548E0,1.316951192E1
4.968693208E0,6.556365967E-2,-1.126377686E1,-5.123246155E0,1.237435327E1
4.978626208E0,-1.510359192E-1,-1.039752823E1,-4.911286926E0,1.150009323E1
4.988560208E0,-1.450483704E-1,-1.025756927E1,-4.594545593E0,1.124049001E1
4.998494208E0,8.666976929E-2,-9.463769989E0,-4.201313324E0,1.035478091E1
5.008427208E0,1.195414124E0,-9.129964142E0,-3.346441040E0,9.797138755E0
5.018361208E0,1.679208069E0,-9.296867065E0,-2.408641205E0,9.749514317E0
5.028294208E0,1.163380737E0,-8.175099792E0,-2.013013916E0,8.499290346E0
5.038228208E0,4.534071350E-1,-6.744973755E0,-1.758543091E0,6.985178794E0
5.048161208E0,-8.996292114E-2,-5.676944733E0,-1.626068573E0,5.905920236E0
5.058095208E0,-2.704875183E-1,-5.000651093E0,-1.574126587E0,5.249528489E0
5.068028208E0,-1.357077942E0,-4.628824310E0,-1.759291534E0,5.134469957E0
5.077962208E0,-2.496658173E0,-4.517156525E0,-1.997296600E0,5.534184566E0
5.087896208E0,-3.202739868E0,-4.610113220E0,-2.026934967E0,5.968178275E0
5.097829208E0,-3.116968231E0,-4.683909760E0,-2.322719879E0,6.086832446E0
5.107763208E0,-2.947520599E0,-4.658462677E0,-2.371518402E0,6.001104209E0
5.117696208E0,-2.505340118E0,-4.822072449E0,-2.090852051E0,5.822437128E0
5.127630208E0,-2.070943451E0,-5.240602112E0,-1.953587494E0,5.963993743E0
5.137563208E0,-1.455423431E0,-5.574258270E0,-1.930385742E0,6.075936285E0
5.147497208E0,-1.031654663E0,-5.478906555E0,-1.658401337E0,5.816616145E0
5.157430208E0,-9.372010803E-1,-5.451812897E0,-1.368154907E0,5.698460983E0
5.167364208E0,-9.704319763E-1,-5.419629822E0,-1.941462708E0,5.838099269E0
5.177298208E0,-7.917036438E-1,-5.722599792E0,-1.955084381E0,6.098958762E0
5.187231208E0,-3.827540588E-1,-6.488407288E0,-1.607207794E0,6.695449701E0
5.197165208E0,-4.538562012E-1,-7.414681091E0,-1.586251373E0,7.596030184E0
5.207098208E0,-5.105882263E-1,-8.374036102E0,-8.789721680E-1,8.435506686E0
5.217032208E0,-4.373904419E-1,-9.131910095E0,-3.858975220E-1,9.150519618E0
5.226965208E0,-6.824308777E-1,-9.842482452E0,-4.529580688E-1,9.876504632E0
5.236899208E0,-4.740641785E-1,-1.054242691E1,-8.939410400E-1,1.059087497E1
5.246833208E0,-1.050515442E0,-1.098984650E1,-1.735940094E0,1.117558932E1
5.256766208E0,-1.526824951E0,-1.153965317E1,-2.430795135E0,1.189132266E1
5.266700208E0,-1.813179474E0,-1.212104416E1,-2.826272736E0,1.257756530E1
5.276633208E0,-2.338137817E0,-1.274090515E1,-2.969375153E0,1.328964790E1
5.286567208E0,-2.190694427E0,-1.192225754E1,-2.538571014E0,1.238481771E1
5.296500208E0,-1.603914642E0,-1.193662766E1,-1.230890350E0,1.210663921E1
5.306434208E0,-1.168769531E0,-1.232566864E1,-7.229965210E-1,1.240205038E1
5.316367208E0,-1.962419128E-1,-1.247894989E1,5.942642212E-2,1.248063431E1
5.326301208E0,3.983216858E-1,-1.217298615E1,3.740721130E-1,1.218524443E1
5.336235208E0,4.430786133E-2,-1.252580246E1,2.721340942E-1,1.252883663E1
5.346168208E0,1.146914978E0,-1.263627274E1,1.863624573E-1,1.268958366E1
5.356102208E0,9.806108093E-1,-1.216445389E1,5.514532471E-1,1.221636757E1
5.366035208E0,-9.954299927E-2,-1.230471222E1,-1.085093536E0,1.235286524E1
5.375969208E0,-2.194586334E0,-1.332184708E1,-2.252964935E0,1.368808495E1
5.385902208E0,-3.855981445E0,-1.451441711E1,-3.767814789E0,1.548332411E1
5.395836208E0,-4.355193329E0,-1.501018616E1,-6.726711731E0,1.701534743E1
5.405770208E0,-4.809648285E0,-1.450004700E1,-9.742939453E0,1.811929769E1
5.415703208E0,-5.173242188E0,-1.285960831E1,-1.080213684E1,1.757322170E1
5.425637208E0,-3.459156647E0,-1.063313828E1,-1.062610291E1,1.542541595E1
5.435570208E0,-9.300160217E-1,-8.854387207E0,-8.837622070E0,1.254466685E1
5.445504208E0,1.624122620E-1,-8.005951538E0,-6.193221130E0,1.012312332E1
5.455437208E0,7.644602966E-1,-6.951244812E0,-3.238365784E0,7.706569725E0
5.465371708E0,-3.309617615E-1,-7.029532013E0,-2.955903168E0,7.632903743E0
5.475304708E0,1.230441284E-1,-8.478967896E0,-3.840114441E0,9.308840709E0
5.485238708E0,1.787133636E0,-1.011177246E1,-3.656596069E0,1.090011393E1
5.495172708E0,2.285297699E0,-1.136421799E1,-2.998714142E0,1.197331711E1
5.505105708E0,1.571581879E0,-1.208975922E1,-2.457290039E0,1.243665638E1
5.515039708E0,5.504054260E-1,-1.235201385E1,-2.493365021E0,1.261317016E1
5.524972708E0,-2.170486450E-1,-1.249391876E1,-2.873574371E0,1.282195562E1
5.534906708E0,-7.467970276E-1,-1.254556137E1,-3.893553314E0,1.315707313E1
5.544839708E0,-8.634045410E-1,-1.240590179E1,-4.265230408E0,1.314701704E1
5.554773708E0,-7.902067566E-1,-1.178723831E1,-4.034410400E0,1.248358446E1
5.564706708E0,-1.220561829E0,-1.068268524E1,-3.738775177E0,1.138367142E1
5.574640708E0,-1.766027527E0,-9.167985077E0,-3.507805481E0,9.973740667E0
5.584574708E0,-1.973496094E0,-7.908803558E0,-3.220403137E0,8.764408532E0
5.594507708E0,-1.936822357E0,-6.696474609E0,-2.719245300E0,7.482536204E0
5.604441708E0,-1.957778778E0,-5.639971619E0,-2.389780426E0,6.430647564E0
5.614374708E0,-1.941013641E0,-4.930896149E0,-2.256407776E0,5.759570022E0
5.624308708E0,-1.413211212E0,-4.375401306E0,-2.008672943E0,5.017576059E0
5.634241708E0,-8.056246948E-1,-4.014052734E0,-2.114353180E0,4.607834619E0
5.644175708E0,-4.010160828E-1,-3.834426270E0,-2.268233185E0,4.473088474E0
5.654109708E0,-2.736309814E-1,-3.839515686E0,-2.271676025E0,4.469593559E0
5.664042708E0,-2.059716797E-1,-4.048331451E0,-2.076931000E0,4.554673891E0
5.673976708E0,-1.920506287E-1,-4.548740845E0,-1.699715424E0,4.859728309E0
5.683909708E0,4.909790039E-2,-5.199587402E0,-1.121617584E0,5.319412163E0
5.693843708E0,1.648072815E-1,-6.191873932E0,-7.168592834E-1,6.235411090E0
5.703776708E0,1.983375549E-1,-7.157665558E0,-7.738906860E-1,7.202112247E0
5.713710708E0,2.263293457E-1,-7.846383362E0,-1.040336609E0,7.918286247E0
5.723643708E0,4.809498596E-1,-8.030650177E0,-1.101559296E0,8.120103935E0
5.733577708E0,5.526507568E-1,-7.790250092E0,-7.159611511E-1,7.842577364E0
5.743511708E0,3.811074829E-1,-7.399412842E0,-1.001417542E-1,7.409897549E0
5.753444708E0,-2.769241333E-2,-7.282955017E0,5.923182678E-1,7.307054234E0
5.763378708E0,-5.706134033E-1,-7.651638336E0,1.135838013E0,7.756500298E0
5.773311708E0,-9.976753235E-1,-8.309520264E0,9.322613525E-1,8.420961601E0
5.783245708E0,-1.181193695E0,-8.917555847E0,5.942642212E-2,8.995640741E0
5.793178708E0,-1.206491089E0,-9.159602509E0,-1.140628052E0,9.308865195E0
5.803112708E0,-9.726773071E-1,-9.090895386E0,-2.216889954E0,9.407713916E0
5.813046708E0,-4.424798584E-1,-9.072333984E0,-2.649939423E0,9.461776329E0
5.822979708E0,-4.116439819E-2,-8.765771484E0,-2.748434601E0,9.186639047E0
5.832913708E0,3.808081055E-1,-8.826545105E0,-2.774031372E0,9.260030419E0
5.842846708E0,1.059945831E0,-9.562564545E0,-2.837798767E0,1.003091360E1
5.852780708E0,1.629361725E0,-1.142139908E1,-2.184557190E0,1.174203844E1
5.862713708E0,2.733316040E-1,-1.493519211E1,-1.017434235E0,1.497230263E1
5.872647708E0,-3.204835510E-1,-1.646560959E1,-2.272274780E-1,1.647029572E1
5.882580708E0,-3.330574036E-1,-1.518876480E1,1.182540894E-1,1.519287621E1
5.892514708E0,-1.930984497E-1,-1.323891953E1,2.137554932E-1,1.324205304E1
5.902448708E0,-2.790197754E-1,-1.175894714E1,-2.567161560E-1,1.176505814E1
5.912381708E0,-1.380728760E0,-1.134445908E1,-1.050964508E0,1.147639708E1
5.922315708E0,-2.748135223E0,-1.174337952E1,-2.567161560E0,1.233083647E1
5.932248708E0,-2.314487000E0,-1.315359695E1,-4.824467468E0,1.420033272E1
5.942182708E0,-7.270381165E-1,-1.517214935E1,-5.792654114E0,1.625661533E1
5.952115708E0,1.030756531E0,-1.637070694E1,-5.111420746E0,1.718106885E1
5.962049708E0,2.839595032E0,-1.623598709E1,-4.617747345E0,1.711707239E1
5.971982708E0,3.751049652E0,-1.493788651E1,-4.385729828E0,1.601391435E1
5.981916708E0,2.847528534E0,-1.244631775E1,-3.787723389E0,1.331788620E1
5.991850708E0,9.491761780E-1,-9.462871857E0,-2.918480988E0,9.948085769E0
6.001783708E0,-3.484753418E-1,-7.083719330E0,-3.033441925E0,7.713772392E0
6.011717708E0,-2.704875183E-1,-6.087391205E0,-3.535198517E0,7.044652137E0
6.021650708E0,-4.008663940E-1,-6.416706390E0,-3.728296967E0,7.432026173E0
6.031584708E0,-1.759141846E0,-7.330256653E0,-3.746109924E0,8.417872783E0
6.041517708E0,-3.222648468E0,-8.253386993E0,-4.395758972E0,9.890730860E0
6.051451708E0,-2.607876892E0,-9.179211731E0,-4.943769379E0,1.074708358E1
6.061385708E0,-1.218316498E0,-9.817035370E0,-4.572092285E0,1.089782118E1
6.071318708E0,-1.000968475E0,-1.062864761E1,-4.292473755E0,1.150632082E1
6.081252708E0,-5.697152710E-1,-1.165117126E1,-5.089416504E0,1.272699995E1
6.091185708E0,6.024971008E-1,-1.190264832E1,-5.183720398E0,1.299642246E1
6.101119708E0,1.020428009E0,-1.145118713E1,-4.300706635E0,1.227465020E1
6.111052708E0,5.834866333E-1,-1.032612671E1,-3.645818481E0,1.096637323E1
6.120986708E0,3.823049927E-1,-9.281299438E0,-3.702700195E0,9.999933255E0
6.130919708E0,2.257305908E-1,-7.834557953E0,-3.713178406E0,8.672885707E0
6.140853708E0,9.939331055E-2,-6.794221344E0,-3.293600922E0,7.551101226E0
6.150787708E0,4.040098572E-1,-7.774981842E0,-2.719844055E0,8.246885369E0
6.160720708E0,4.147874451E-1,-9.038354645E0,-2.384541321E0,9.356812525E0
6.170654708E0,2.668949890E-1,-8.650062103E0,-2.227517853E0,8.936254423E0
6.180587708E0,1.484912109E-1,-7.776179352E0,-1.937421112E0,8.015273889E0
6.190521708E0,-1.362167358E-2,-7.141648865E0,-1.711391144E0,7.343854145E0
6.200454708E0,-3.826043701E-1,-6.855144653E0,-1.665736084E0,7.064989103E0
6.210388708E0,-1.032702484E0,-6.596183167E0,-1.871258698E0,6.933809624E0
6.220322708E0,-1.750609589E0,-6.092480621E0,-2.102228394E0,6.678496707E0
6.230255708E0,-1.836830292E0,-5.324427795E0,-2.495610352E0,6.160482765E0
6.240189708E0,-1.200503540E0,-4.488416290E0,-2.705623627E0,5.376568492E0
6.250122708E0,-1.844165039E0,-4.410727844E0,-2.011067963E0,5.186507414E0
6.260056708E0,-1.322050781E0,-4.629423065E0,-1.855840759E0,5.159798553E0
6.269989708E0,-1.560953979E0,-5.449268188E0,-1.057251434E0,5.766184329E0
6.279923708E0,-1.013991394E0,-5.921236725E0,-8.960366821E-1,6.073887111E0
6.289856708E0,-1.030157776E0,-6.179000702E0,-3.363505554E-1,6.273309048E0
6.299790708E0,-8.716374207E-1,-6.499933319E0,6.182144165E-2,6.558407340E0
6.309724708E0,-6.010002136E-1,-6.333180084E0,-1.028361511E-1,6.362463871E0
6.319657708E0,-7.921527100E-1,-6.775510254E0,1.751358032E-2,6.821682479E0
6.329591708E0,-8.020321655E-1,-7.521858215E0,-3.414399719E-1,7.572198351E0
6.339524708E0,-6.902146912E-1,-7.813751221E0,-3.600013733E-1,7.852433091E0
6.349458708E0,-5.815406799E-1,-8.616082764E0,-8.996292114E-2,8.636154531E0
6.359391708E0,-4.016148376E-1,-8.627608795E0,-3.487747192E-2,8.637021734E0
6.369325708E0,-1.957928467E-1,-9.611063690E0,-6.346801758E-2,9.613267305E0
6.379259708E0,-1.853146362E-1,-1.040635986E1,-6.789880371E-1,1.043013384E1
6.389192708E0,-3.695814514E-1,-1.068777466E1,-1.097068634E0,1.075028731E1
6.399126708E0,-3.752696228E-1,-1.071471863E1,-1.863025818E0,1.088195239E1
6.409059708E0,-3.562591553E-1,-1.083461929E1,-1.933229828E0,1.101150641E1
6.418993708E0,-1.006357269E0,-1.123339005E1,-1.537153473E0,1.138264678E1
6.428926708E0,-1.840722198E0,-1.150103348E1,-1.060394897E0,1.169557466E1
6.438860708E0,-2.257904663E0,-1.201641174E1,-4.143383789E-1,1.223372228E1
6.448794708E0,-2.106569366E0,-1.272937912E1,3.124003601E-1,1.290628999E1
6.458727708E0,-1.993704071E0,-1.352946533E1,6.300398254E-1,1.369007810E1
6.468661000E0,-1.999242554E0,-1.355401428E1,7.652087402E-1,1.372201947E1
6.478594000E0,-2.582729187E0,-1.303130127E1,8.355624390E-1,1.331102804E1
6.488528000E0,-3.424728241E0,-1.285167480E1,-2.659968567E-1,1.330282162E1
6.498461000E0,-2.989283752E0,-1.298010773E1,-1.773811340E0,1.343746333E1
6.508395000E0,-2.665806427E0,-1.352811813E1,-3.772604828E0,1.429507088E1
6.518328000E0,-3.587439880E0,-1.376178223E1,-6.720724182E0,1.572973326E1
6.528262000E0,-5.561235352E0,-1.370714584E1,-9.425599365E0,1.754010003E1
6.538196000E0,-4.074077911E0,-1.334115692E1,-9.988878021E0,1.715698875E1
6.548129000E0,-9.907896423E-1,-1.259690460E1,-8.419391785E0,1.518386735E1
6.558063000E0,1.270857239E0,-1.101095261E1,-5.475164337E0,1.236258791E1
6.567996000E0,1.308578796E0,-8.862320709E0,-3.290307770E0,9.543543998E0
6.577930000E0,2.486329651E-1,-7.065307617E0,-3.084036713E0,7.713084501E0
6.587863000E0,-1.550775146E-1,-7.058571625E0,-4.351900177E0,8.293763776E0
6.597797000E0,-2.243833923E-1,-8.208181000E0,-5.228477325E0,9.734554863E0
6.607731000E0,-2.395019531E-3,-9.708361359E0,-4.927453308E0,1.088724401E1
6.617664000E0,7.484436035E-2,-1.122156464E1,-3.798051910E0,1.184712256E1
6.627598000E0,6.885681152E-3,-1.266306702E1,-2.596051483E0,1.292643791E1
6.637531000E0,-2.619552612E-1,-1.397523834E1,-2.503244476E0,1.420007536E1
6.647465000E0,-4.085005188E-1,-1.444690750E1,-2.739153900E0,1.470996170E1
6.657398000E0,-6.990463257E-2,-1.373783203E1,-2.868934021E0,1.403437558E1
6.667332000E0,1.104702759E-1,-1.282757492E1,-2.843187561E0,1.313935301E1
6.677265000E0,-1.908531189E-1,-1.210427902E1,-2.960992584E0,1.246264308E1
6.687199000E0,-7.685018921E-1,-1.115704880E1,-2.937192078E0,1.156276050E1
6.697133000E0,-8.879534912E-1,-9.712402954E0,-2.596500549E0,1.009262343E1
6.707066000E0,-1.124761047E0,-8.417595520E0,-2.413730621E0,8.828765331E0
6.717000000E0,-1.289119263E0,-7.279362488E0,-2.336491241E0,7.753072812E0
6.726933000E0,-1.117126923E0,-6.209387512E0,-2.296973419E0,6.714205294E0
6.736867000E0,-8.186476135E-1,-5.412295074E0,-1.975442047E0,5.819406599E0
6.746800000E0,-5.301974487E-1,-4.697830811E0,-1.453926544E0,4.946172870E0
6.756734000E0,-5.275030518E-1,-4.035607910E0,-1.035396881E0,4.199575857E0
6.766668000E0,-2.656974792E-1,-3.700604553E0,-9.800120544E-1,3.837380987E0
6.776601000E0,3.424877930E-1,-3.854634247E0,-1.095122681E0,4.021790242E0
6.786535000E0,6.589297485E-1,-4.416416016E0,-1.235081635E0,4.632962927E0
6.796468000E0,6.424639893E-1,-5.270839233E0,-1.211879883E0,5.446389543E0
6.806402000E0,2.573149109E-1,-6.034700775E0,-1.207389221E0,6.159676383E0
6.816335000E0,-1.038839722E-1,-6.663094025E0,-1.261426849E0,6.782242369E0
6.826269000E0,-3.034190369E-1,-7.306007080E0,-1.224154358E0,7.414064773E0
6.836202000E0,-3.742218018E-1,-7.693401489E0,-1.193318481E0,7.794387560E0
6.846136000E0,-2.941383362E-1,-7.626939697E0,-1.116228790E0,7.713798884E0
6.856070000E0,-2.222877502E-1,-7.255711670E0,-8.442443848E-1,7.308044353E0
6.866003000E0,-7.274871826E-2,-6.863676910E0,-4.243675232E-1,6.877168087E0
6.875937000E0,-1.032852173E-2,-6.785389709E0,2.405497742E-1,6.789660108E0
6.885870000E0,-3.802093506E-2,-7.090605011E0,8.473878479E-1,7.141161753E0
6.895804000E0,-4.281097412E-1,-7.583230591E0,1.242117004E0,7.696201582E0
6.905737000E0,-8.720864868E-1,-8.471932526E0,1.278491364E0,8.612126086E0
6.915671000E0,-1.360371094E0,-9.349707184E0,8.753796387E-1,9.488620735E0
6.925605000E0,-1.836231537E0,-9.923314362E0,-2.875520325E-1,1.009587046E1
6.935538000E0,-1.450483704E0,-1.009560608E1,-1.932780762E0,1.038079027E1
6.945472000E0,-9.725276184E-1,-1.006701553E1,-2.879412231E0,1.051577988E1
6.955405000E0,-5.298980713E-1,-9.679022369E0,-2.997666321E0,1.014644122E1
6.965339000E0,-7.679031372E-2,-9.324559479E0,-2.892884216E0,9.763302992E0
6.975272000E0,5.774990845E-1,-9.839638367E0,-2.628533936E0,1.020103813E1
6.985206000E0,1.339264984E0,-1.135478760E1,-1.844314728E0,1.158129219E1
6.995139000E0,1.575024719E0,-1.267713776E1,-1.109343109E0,1.282268173E1
7.005073000E0,1.545685730E0,-1.281110916E1,-3.357518005E-1,1.290838455E1
7.015007000E0,1.538350983E0,-1.238329880E1,6.849755859E-1,1.249727188E1
7.024940000E0,1.310225372E0,-1.209050766E1,1.315763855E0,1.223226473E1
7.034874000E0,8.053253174E-1,-1.261456787E1,6.114784241E-1,1.265502972E1
7.044807000E0,-2.248324585E-1,-1.392150009E1,-1.203946381E0,1.397527106E1
7.054741000E0,-1.862127686E0,-1.524399994E1,-3.623215485E0,1.577893355E1
7.064674000E0,-2.542163544E0,-1.636965912E1,-5.617518311E0,1.749242256E1
7.074608000E0,-2.237696686E0,-1.628134277E1,-6.155649261E0,1.754939961E1
7.084542000E0,-2.728825378E-1,-1.513457748E1,-6.005810852E0,1.628495209E1
7.094475000E0,2.831960907E0,-1.482487152E1,-3.955973511E0,1.560277362E1
7.104409000E0,4.528083801E0,-1.368753662E1,-1.424288177E0,1.448726332E1
7.114342000E0,4.545447693E0,-1.147887955E1,-9.340576172E-1,1.238136640E1
7.124276000E0,3.141816559E0,-9.602830811E0,-1.846560059E0,1.027108343E1
7.134209000E0,1.122515717E0,-7.943531342E0,-2.473007355E0,8.394968558E0
7.144143000E0,-1.303190002E0,-6.330934753E0,-3.113375702E0,7.174409195E0
7.154077000E0,-2.556234283E0,-5.420677643E0,-3.882027283E0,7.140603311E0
7.164010000E0,-2.864742737E0,-5.999972992E0,-4.484674072E0,8.019895784E0
7.173944000E0,-3.750899963E0,-7.679480438E0,-4.904550934E0,9.853846467E0
7.183877000E0,-4.295617218E0,-9.491612091E0,-5.063969421E0,1.158390321E1
7.193811000E0,-3.636986847E0,-1.084120560E1,-4.456532593E0,1.227273787E1
7.203744000E0,-2.484982452E0,-1.158096725E1,-4.081861725E0,1.252818963E1
7.213678000E0,-1.541195068E0,-1.201805832E1,-4.413272552E0,1.289519223E1
7.223611000E0,-3.691323853E-1,-1.185849014E1,-4.423451385E0,1.266202864E1
7.233545000E0,6.891668701E-1,-1.043974045E1,-4.038451996E0,1.121482172E1
7.243479000E0,1.800306244E0,-8.947343903E0,-3.417842560E0,9.745650991E0
7.253412000E0,2.424657898E0,-8.272098083E0,-3.121009827E0,9.167730088E0
7.263346000E0,2.245630188E0,-8.132288818E0,-3.128943329E0,8.998181079E0
7.273279000E0,1.021475830E0,-7.771688690E0,-3.320694580E0,8.512906111E0
7.283213000E0,1.128652954E-1,-8.019573212E0,-3.278033295E0,8.664398153E0
7.293146000E0,-8.144563293E-1,-9.049281921E0,-2.720143433E0,9.484304018E0
7.303080000E0,-1.481768646E0,-8.982670441E0,-1.988015900E0,9.318595054E0
7.313014000E0,-3.140469360E-1,-7.644004211E0,-1.733545074E0,7.844399556E0
7.322947000E0,9.559121704E-1,-7.202871552E0,-1.945803680E0,7.522052820E0
7.332881000E0,5.424719238E-1,-7.387437744E0,-1.691482544E0,7.598001409E0
7.342814000E0,-7.280859375E-1,-7.621251526E0,-1.410367126E0,7.784774845E0
7.352748000E0,-1.279239807E0,-7.366331635E0,-1.579216003E0,7.641545617E0
7.362681000E0,-1.465751953E0,-6.595734100E0,-1.692230988E0,6.965327187E0
7.372615000E0,-9.803114319E-1,-5.849236450E0,-1.986069946E0,6.254522475E0
7.382549000E0,-1.133143616E0,-5.333858185E0,-2.158661041E0,5.864629151E0
7.392482000E0,-7.315287781E-1,-4.875810699E0,-2.255958710E0,5.421993548E0
7.402416000E0,-1.445993042E-1,-4.505630493E0,-2.238594818E0,5.033182081E0
7.412349000E0,-1.582209778E-1,-4.486769714E0,-1.985321503E0,4.908934489E0
7.422283000E0,-6.122268677E-1,-4.664599915E0,-1.373693390E0,4.901055767E0
7.432216000E0,-7.481442261E-1,-5.194048920E0,-8.614585876E-1,5.317891957E0
7.442150000E0,-1.084045715E0,-5.876330109E0,-7.786807251E-1,6.026006499E0
7.452083000E0,-8.696914673E-1,-6.567293243E0,-1.113235016E0,6.717514123E0
7.462017000E0,-4.635859680E-1,-7.334747314E0,-1.219663696E0,7.449899976E0
7.471951625E0,-3.516188049E-1,-8.051905975E0,-6.628216553E-1,8.086789114E0
7.481884625E0,-3.040177917E-1,-9.133856049E0,-7.515870667E-1,9.169767514E0
7.491818625E0,-5.885760498E-1,-1.057835220E1,-8.177494812E-1,1.062622564E1
7.501751625E0,-1.218166809E0,-1.140972336E1,-9.991722107E-1,1.151798865E1
7.511685625E0,-1.342707825E0,-1.143127853E1,-1.845811615E0,1.165692986E1
7.521618625E0,-1.616039429E0,-1.165850601E1,-2.293380890E0,1.199132777E1
7.531552625E0,-1.501826935E0,-1.167332520E1,-2.282902679E0,1.198889694E1
7.541486625E0,-1.459015961E0,-1.148651367E1,-1.754052429E0,1.171091046E1
7.551419625E0,-1.688039703E0,-1.099882782E1,-1.079255676E0,1.117982488E1
7.561353625E0,-1.800455933E0,-1.105615860E1,-3.433859253E-1,1.120706021E1
7.571286625E0,-1.638492737E0,-1.154638916E1,4.315525818E-1,1.167004707E1
7.581220625E0,-1.369651794E0,-1.223121506E1,1.137484589E0,1.236011485E1
7.591153625E0,-1.325343933E0,-1.316617081E1,1.160087585E0,1.328346316E1
7.601087625E0,-1.004411316E0,-1.382914215E1,9.464817810E-1,1.389783589E1
7.611021625E0,-1.216969299E0,-1.379755783E1,6.312373352E-1,1.386549952E1
7.620954625E0,-2.153272247E0,-1.319685699E1,4.071533203E-2,1.337143499E1
7.630888625E0,-2.229613495E0,-1.302740936E1,-8.155041504E-1,1.324196428E1
7.640821625E0,-2.293081512E0,-1.273686356E1,-2.344574432E0,1.315229810E1
7.650755625E0,-3.363505554E0,-1.243928238E1,-4.336033173E0,1.359595894E1
7.660688625E0,-4.339176636E0,-1.227941483E1,-7.089706879E0,1.482823071E1
7.670622625E0,-4.405488739E0,-1.291993286E1,-9.497599640E0,1.662941355E1
7.680556625E0,-2.853665771E0,-1.268342468E1,-9.800419922E0,1.628069104E1
7.690489625E0,2.095642090E-3,-1.164009430E1,-6.997199249E0,1.358133267E1
7.700423625E0,2.123933258E0,-1.016131943E1,-3.951482849E0,1.110755246E1
7.710356625E0,2.108365631E0,-8.407117310E0,-2.399659882E0,8.993508472E0
7.720290625E0,1.288670197E0,-7.597451019E0,-2.816842346E0,8.204665360E0
7.730223625E0,5.186714172E-1,-7.866890717E0,-3.902684326E0,8.797041238E0
7.740157625E0,6.984475708E-1,-8.703650665E0,-4.274660797E0,9.721835672E0
7.750090625E0,8.732839966E-1,-9.786049805E0,-3.488196259E0,1.042578097E1
7.760024625E0,5.942642212E-1,-1.112441666E1,-2.166744232E0,1.134903417E1
7.769958625E0,2.424957275E-2,-1.254541168E1,-1.695075073E0,1.265943213E1
7.779891625E0,-1.582209778E-1,-1.350431763E1,-2.208507385E0,1.368463128E1
7.789825625E0,9.430389404E-2,-1.359802277E1,-2.755320282E0,1.387468581E1
7.799758625E0,6.017486572E-1,-1.321526871E1,-2.872676239E0,1.353727067E1
7.809692625E0,7.069798279E-1,-1.250155289E1,-2.762355652E0,1.282260714E1
7.819625625E0,-1.543290710E-1,-1.148651367E1,-2.945874023E0,1.185925746E1
7.829559625E0,-6.535409546E-1,-1.051757858E1,-3.148103485E0,1.099805122E1
7.839493625E0,-6.903643799E-1,-9.363029480E0,-3.011287994E0,9.859552698E0
7.849426625E0,-7.714956665E-1,-8.329578552E0,-2.305805054E0,8.677201240E0
7.859360625E0,-7.806266785E-1,-7.517068176E0,-1.869163055E0,7.785207930E0
7.869293625E0,-5.858816528E-1,-6.619983673E0,-1.804198151E0,6.886404876E0
7.879227625E0,-3.153941345E-1,-5.690267029E0,-1.818418579E0,5.982078104E0
7.889160625E0,-1.468446350E-1,-4.694387970E0,-2.024839325E0,5.114569000E0
7.899094625E0,-3.573069763E-1,-4.155508575E0,-1.956431580E0,4.606901814E0
7.909027625E0,-3.423381042E-1,-4.043990479E0,-1.573976898E0,4.352982615E0
7.918961625E0,-1.872605896E-1,-4.178860016E0,-1.462009735E0,4.431186074E0
7.928895625E0,1.541793823E-2,-4.537514191E0,-1.479972382E0,4.772796978E0
7.938828625E0,1.555265808E-1,-5.331762543E0,-1.386117554E0,5.511188819E0
7.948762625E0,-1.770817566E-1,-5.886958008E0,-1.246158600E0,6.020011943E0
7.958695625E0,-3.921844482E-1,-6.759643250E0,-4.758604431E-1,6.787711593E0
7.968629625E0,-5.114863586E-1,-7.525899811E0,-2.615061951E-1,7.547792508E0
7.978562625E0,-7.818241882E-1,-7.974965973E0,-4.230203247E-1,8.024355272E0
7.988496625E0,-5.701643372E-1,-8.078700256E0,-5.706134033E-1,8.118872142E0
7.998430625E0,-6.885681152E-2,-7.694748688E0,-2.778222656E-1,7.700070379E0
8.008363625E0,2.098635864E-1,-7.376959534E0,4.132905579E-1,7.391507544E0
8.018297625E0,1.082249451E-1,-7.461084595E0,9.777667236E-1,7.525657694E0
8.028230625E0,-3.511697388E-1,-7.846233673E0,1.235830078E0,7.950721918E0
8.038164625E0,-7.385641479E-1,-8.463999023E0,7.484436035E-1,8.529063506E0
8.048097625E0,-7.776329041E-1,-8.815617828E0,-3.658392334E-1,8.857407576E0
8.058031625E0,-6.224057007E-1,-8.624615021E0,-1.693578186E0,8.811332486E0
8.067965625E0,2.519261169E-1,-8.339607697E0,-2.798280945E0,8.800164745E0
8.077898625E0,8.069718933E-1,-8.343349915E0,-3.382516022E0,9.039032364E0
8.087832625E0,7.309300232E-1,-8.685837708E0,-2.806813202E0,9.157305047E0
8.097765625E0,1.134790192E0,-9.724228363E0,-2.356549530E0,1.006984070E1
8.107699625E0,1.611997833E0,-1.199126404E1,-2.260149994E0,1.230842103E1
8.117632625E0,1.698368225E0,-1.328771805E1,-1.865121460E0,1.352503544E1
8.127566625E0,2.862048340E-1,-1.370969055E1,-9.027726746E-1,1.374236249E1
8.137499625E0,-4.975653076E-1,-1.314177155E1,5.550457764E-1,1.316289506E1
8.147433625E0,-3.118016052E-1,-1.272204437E1,1.647174683E0,1.283202313E1
8.157367625E0,5.492079163E-1,-1.287772064E1,1.712139587E0,1.300264359E1
8.167300625E0,-2.436932373E-1,-1.356733658E1,-1.294807434E-1,1.357014272E1
8.177234625E0,-1.463057556E0,-1.393377457E1,-2.534679108E0,1.423780915E1
8.187167625E0,-2.555934906E0,-1.337244186E1,-4.477039948E0,1.433174418E1
8.197101625E0,-2.125280457E0,-1.356958191E1,-5.319188690E0,1.472902368E1
8.207034625E0,-3.365002441E-1,-1.467802689E1,-5.761967926E0,1.577206328E1
8.216968625E0,1.904040527E0,-1.533216660E1,-4.714446259E0,1.615322588E1
8.226902625E0,3.389701080E0,-1.481858459E1,-2.543211365E0,1.541260675E1
8.236835625E0,4.377347260E0,-1.325164307E1,-1.762734375E0,1.406678519E1
8.246769625E0,4.930746460E0,-1.163260986E1,-2.156116333E0,1.281712567E1
8.256702625E0,4.214785309E0,-1.039902512E1,-2.428849182E0,1.148056823E1
8.266636625E0,2.341430969E0,-9.006920013E0,-3.108435974E0,9.811691053E0
8.276569625E0,6.462062073E-1,-7.249873810E0,-3.731590118E0,8.179426479E0
8.286503625E0,-4.703219604E-1,-6.716532898E0,-3.854933624E0,7.758448953E0
8.296437625E0,-1.545086975E0,-7.016808472E0,-3.819906464E0,8.137234191E0
8.306370625E0,-3.053500214E0,-7.795788574E0,-4.340224457E0,9.430574287E0
8.316304625E0,-4.091292114E0,-9.336833954E0,-4.928351440E0,1.132271113E1
8.326237625E0,-5.297932892E0,-1.021176453E1,-5.001848602E0,1.254458916E1
8.336171625E0,-2.473157043E0,-1.015757721E1,-5.084626465E0,1.162524438E1
8.346104625E0,7.021897888E-1,-9.837542725E0,-4.053121490E0,1.066293164E1
8.356038625E0,1.375938721E0,-9.746382294E0,-4.175716553E0,1.069213655E1
8.365972625E0,1.944755859E0,-9.264983368E0,-3.807631989E0,1.020392344E1
8.375905625E0,2.115999756E0,-8.557853851E0,-3.031196594E0,9.322149446E0
8.385839625E0,2.192041626E0,-8.052355042E0,-2.362237701E0,8.673271307E0
8.395772625E0,1.962419128E0,-8.174650726E0,-2.154769135E0,8.678653891E0
8.405706625E0,1.305135956E0,-8.471633148E0,-2.384092255E0,8.896957004E0
8.415639625E0,7.033872986E-1,-8.933722229E0,-2.664608917E0,9.349132967E0
8.425573625E0,2.300715637E-1,-9.162745972E0,-2.753524017E0,9.570305177E0
8.435507625E0,-2.760260010E-1,-8.824449463E0,-2.523751831E0,9.182397398E0
8.445440625E0,-6.460565186E-1,-8.372539215E0,-2.060465240E0,8.646520626E0
8.455374625E0,-8.969348145E-1,-7.962541809E0,-1.986968079E0,8.255580311E0
8.465307625E0,-1.137634277E0,-7.667804718E0,-1.711989899E0,7.938535782E0
8.475241375E0,-7.777825928E-1,-7.190148010E0,-1.325643311E0,7.352584876E0
8.485174375E0,-8.424481201E-1,-6.572682037E0,-1.319655762E0,6.756578966E0
8.495108375E0,-1.074016571E0,-6.600973206E0,-1.777403870E0,6.919936659E0
8.505041375E0,-8.583151245E-1,-6.819518738E0,-1.998045044E0,7.157843577E0
8.514975375E0,1.197509766E-2,-7.115752716E0,-1.900597687E0,7.365212263E0
8.524909375E0,1.278641052E0,-7.607180786E0,-2.654280396E0,8.157777079E0
8.534842375E0,5.536985779E-1,-7.012317810E0,-2.408940582E0,7.435198579E0
8.544776375E0,-4.111949158E-1,-5.769152985E0,-1.983375549E0,6.114408065E0
8.554709375E0,-7.063810730E-1,-5.115312653E0,-2.048639832E0,5.555386837E0
8.564643375E0,-1.047222290E0,-5.357209625E0,-1.736838226E0,5.728261212E0
8.574576375E0,-1.416953430E0,-5.770649872E0,-1.311572571E0,6.085094870E0
8.584510375E0,-1.728156281E0,-6.255940704E0,-9.090596008E-1,6.553602642E0
8.594444375E0,-1.521585846E0,-7.058272247E0,-7.324269104E-1,7.257470619E0
8.604377375E0,-1.021026764E0,-7.686964874E0,-3.366499329E-1,7.761781871E0
8.614311375E0,-1.017284546E0,-8.516988831E0,-1.320254517E-1,8.578542843E0
8.624244375E0,-7.761360168E-1,-9.487869873E0,-3.143463135E-1,9.524750676E0
8.634178375E0,-9.859996033E-1,-9.998158722E0,-6.228547668E-1,1.006594859E1
8.644111375E0,-3.791615295E-1,-1.006387207E1,-1.397942963E0,1.016757243E1
8.654045375E0,-7.107220459E-1,-9.934241638E0,-1.610201569E0,1.008895593E1
8.663979375E0,-6.382727051E-1,-1.021011795E1,-1.918710022E0,1.040842681E1
8.673912375E0,-8.509803772E-1,-1.064077240E1,-1.559157715E0,1.078801083E1
8.683846375E0,-6.981481934E-1,-1.104627914E1,-1.583706665E0,1.118104739E1
8.693779375E0,-6.331832886E-1,-1.119761444E1,-1.387015686E0,1.130094256E1
8.703713375E0,-7.701484680E-1,-1.172915909E1,-9.419911194E-1,1.179210112E1
8.713646375E0,-9.792636108E-1,-1.248553619E1,-7.090754700E-1,1.254393715E1
8.723580375E0,-6.209088135E-1,-1.291963348E1,-4.745132446E-1,1.294324611E1
8.733513375E0,-1.008303223E0,-1.269824387E1,-1.061293030E-1,1.273865519E1
8.743447375E0,-1.394799500E0,-1.266471359E1,-5.439688110E-1,1.275289528E1
8.753381375E0,-6.583309937E-1,-1.263537460E1,-1.100810852E0,1.270031006E1
8.763314375E0,-1.963916016E-1,-1.288490570E1,-1.923050995E0,1.302910165E1
8.773248375E0,-1.535656586E0,-1.382914215E1,-4.379592590E0,1.458712600E1
8.783181375E0,-3.098107452E0,-1.459629684E1,-7.732769623E0,1.680612619E1
8.793115375E0,-2.878214722E0,-1.457743607E1,-9.177116089E0,1.746439870E1
8.803048375E0,-1.729054413E0,-1.365430573E1,-8.399183807E0,1.612377073E1
8.812982375E0,-7.313790894E-1,-1.205488174E1,-8.112829285E0,1.454898925E1
8.822916375E0,1.181343384E0,-9.693991241E0,-7.243586884E0,1.215888931E1
8.832849375E0,1.436412964E0,-8.153095551E0,-6.176755371E0,1.032901526E1
8.842783375E0,1.143771515E0,-7.706574097E0,-6.084996185E0,9.885680359E0
8.852716375E0,1.786834259E0,-7.531737671E0,-5.610482941E0,9.560197061E0
8.862650375E0,2.001637573E0,-7.941735077E0,-4.856051788E0,9.521499251E0
8.872583375E0,2.113455048E0,-8.857680359E0,-3.671564941E0,9.818634462E0
8.882517375E0,2.158810730E0,-1.036444702E1,-2.620750122E0,1.090644566E1
8.892451375E0,1.910477142E0,-1.178678925E1,-1.944755859E0,1.209795020E1
8.902384375E0,1.131796417E0,-1.298759216E1,-1.774410095E0,1.315701503E1
8.912318375E0,1.140628052E-1,-1.332783463E1,-2.001038818E0,1.347769797E1
8.922251375E0,2.835104370E-1,-1.279494278E1,-2.543959808E0,1.304847387E1
8.932185375E0,3.091072083E-1,-1.164428558E1,-3.437302094E0,1.214495697E1
8.942118375E0,2.013313293E-1,-1.068642746E1,-3.977229309E0,1.140432458E1
8.952052375E0,-6.616241455E-2,-9.947414246E0,-4.043691101E0,1.073810343E1
8.961985375E0,-4.674778748E-1,-8.867410126E0,-3.731739807E0,9.631997710E0
8.971919375E0,-4.331991577E-1,-7.947572937E0,-3.177292786E0,8.570108899E0
8.981853375E0,5.224136353E-2,-7.514074402E0,-2.763253784E0,8.006223501E0
8.991786375E0,4.411326599E-1,-7.498207397E0,-2.331701202E0,7.864765902E0
9.001720375E0,5.884263611E-1,-6.796316986E0,-1.914668427E0,7.085345817E0
9.011653375E0,3.941304016E-1,-5.767955475E0,-1.624122620E0,6.005199698E0
9.021587375E0,2.710862732E-1,-5.037624207E0,-1.495540009E0,5.261918408E0
9.031520375E0,1.669029236E-1,-4.600533142E0,-1.686692505E0,4.902825041E0
9.041454375E0,7.035369873E-3,-4.374503174E0,-2.023941193E0,4.820027538E0
9.051388375E0,-4.379891968E-1,-4.362378387E0,-2.336491241E0,4.968034929E0
9.061321375E0,-7.876620483E-1,-4.563260651E0,-2.607278137E0,5.314288151E0
9.071255375E0,-8.541238403E-1,-5.109624481E0,-2.738704834E0,5.859888569E0
9.081188375E0,-8.219407654E-1,-6.029461670E0,-2.581531677E0,6.610166447E0
9.091122375E0,-6.649172974E-1,-7.067552948E0,-2.200424194E0,7.431977282E0
9.101055375E0,-3.537144470E-1,-7.659721527E0,-1.840871887E0,7.885762936E0
9.110989375E0,6.975494385E-2,-7.786807251E0,-1.528321838E0,7.935678960E0
9.120923375E0,6.066883850E-1,-7.543862457E0,-1.016985168E0,7.636241903E0
9.130856375E0,1.007255402E0,-7.201973419E0,-2.824626160E-1,7.277552453E0
9.140790375E0,1.198707275E0,-6.997348938E0,2.987786865E-1,7.105565424E0
9.150723375E0,8.583151245E-1,-7.204069061E0,6.141728210E-1,7.280970000E0
9.160657375E0,3.056643677E-1,-7.803871765E0,5.143304443E-1,7.826773348E0
9.170590375E0,-4.685256958E-1,-8.300688629E0,8.442443848E-2,8.314329530E0
9.180524375E0,-1.053958282E0,-8.555309143E0,-6.140231323E-1,8.641826601E0
9.190457375E0,-1.143322449E0,-8.833430786E0,-1.704655151E0,9.068766998E0
9.200391375E0,-6.767427063E-1,-8.941506042E0,-3.038082275E0,9.467758706E0
9.210325375E0,-1.163081360E-1,-8.972192230E0,-3.809128876E0,9.747985627E0
9.220258375E0,2.844085693E-1,-9.138346710E0,-3.438649292E0,9.768038584E0
9.230192375E0,9.891430664E-1,-9.756112061E0,-3.250939636E0,1.033096003E1
9.240125375E0,2.219434662E0,-1.129581024E1,-2.968776398E0,1.188843356E1
9.250059375E0,2.805016937E0,-1.345806381E1,-2.271376648E0,1.393365542E1
9.259992375E0,2.177821198E0,-1.465407669E1,-6.517446899E-1,1.482935063E1
9.269926375E0,1.201701050E0,-1.440933563E1,8.211923218E-1,1.448265844E1
9.279860375E0,1.109642487E0,-1.331511108E1,1.311572571E0,1.342548741E1
9.289793375E0,8.964857483E-1,-1.242326569E1,7.463479614E-1,1.247791057E1
9.299727375E0,1.209484863E-1,-1.253328690E1,-8.511300659E-1,1.256273582E1
9.309660375E0,-1.498384094E0,-1.277623169E1,-2.556683350E0,1.311540624E1
9.319594375E0,-1.558708649E0,-1.278117142E1,-4.893473969E0,1.377439664E1
9.329527375E0,-1.886077881E-2,-1.354188950E1,-6.853348389E0,1.517733544E1
9.339461375E0,2.069296875E0,-1.452684128E1,-6.815327454E0,1.617899241E1
9.349395375E0,3.898043976E0,-1.526809982E1,-5.295837250E0,1.662394391E1
9.359328375E0,4.702620850E0,-1.466799774E1,-4.509522400E0,1.604994059E1
9.369262375E0,4.502187653E0,-1.318952225E1,-3.940705261E0,1.448317468E1
9.379195375E0,2.968327332E0,-1.104343506E1,-3.157982941E0,1.186344306E1
9.389129375E0,3.945794678E-1,-8.291258240E0,-2.995870056E0,8.824731925E0
9.399062375E0,-7.182064819E-1,-6.561904449E0,-3.231779480E0,7.349748918E0
9.408996375E0,-4.857398987E-1,-6.274352417E0,-3.705244904E0,7.302895405E0
9.418930375E0,-1.047072601E0,-7.296576691E0,-4.170627136E0,8.469387413E0
9.428863375E0,-2.133663025E0,-8.770860901E0,-4.459825745E0,1.006829502E1
9.438797375E0,-2.250569916E0,-9.416618042E0,-4.572691040E0,1.070734625E1
9.448730375E0,-1.897154846E0,-9.387129364E0,-4.319717102E0,1.050606254E1
9.458664375E0,-1.086740112E0,-9.212292938E0,-4.546794891E0,1.033057061E1
9.468597083E0,4.029620361E-1,-9.532776489E0,-5.174140320E0,1.085393634E1
9.478531083E0,1.615290985E0,-1.001222946E1,-5.029391327E0,1.132027742E1
9.488464083E0,1.856589203E0,-1.031400192E1,-4.317621460E0,1.133434666E1
9.498398083E0,1.377585297E0,-1.004770569E1,-3.898043976E0,1.086503004E1
9.508332083E0,8.652008057E-1,-9.669591980E0,-3.821403351E0,1.043324998E1
9.518265083E0,3.192860413E-1,-9.479337616E0,-3.880530396E0,1.024784374E1
9.528199083E0,-2.481838989E-1,-9.184899902E0,-3.804937592E0,9.944924914E0
9.538132083E0,-4.650828552E-1,-8.674311676E0,-3.417992249E0,9.335023092E0
9.548066083E0,-3.863465881E-1,-8.147706757E0,-3.144510956E0,8.741987087E0
9.557999083E0,-3.742218018E-3,-7.416776733E0,-2.808609467E0,7.930755213E0
9.567933083E0,2.077679443E-1,-6.882837067E0,-2.556533661E0,7.345235052E0
9.577867083E0,3.567082214E-1,-6.956184540E0,-2.337389374E0,7.347049285E0
9.587800083E0,-5.583389282E-2,-6.981631622E0,-2.080523529E0,7.285250558E0
9.597734083E0,-6.587800598E-1,-6.452182617E0,-1.945204926E0,6.771150116E0
9.607667083E0,-1.133592682E0,-5.737868042E0,-2.105671234E0,6.216270054E0
9.617601083E0,-1.085542603E0,-4.920417938E0,-2.488125916E0,5.619580589E0
9.627534083E0,-1.209335175E0,-4.853058014E0,-2.609822845E0,5.641439438E0
9.637468083E0,-1.303938446E0,-4.674030304E0,-2.335892487E0,5.385462697E0
9.647402083E0,-1.296454010E0,-4.672683105E0,-1.939666443E0,5.222745094E0
9.657335083E0,-1.340911560E0,-5.241799622E0,-1.463506622E0,5.605029770E0
9.667269083E0,-1.088835754E0,-5.750741272E0,-1.408121796E0,6.019916567E0
9.677202083E0,-7.958949280E-1,-6.270011444E0,-1.165326691E0,6.426856039E0
9.687136083E0,-8.421487427E-1,-6.502178650E0,-1.097368011E0,6.647688189E0
9.697069083E0,-4.920268250E-1,-6.464606781E0,-9.484277344E-1,6.552308478E0
9.707003083E0,-1.815724182E-1,-6.962022400E0,-1.011446686E0,7.037453292E0
9.716937083E0,1.321751404E-1,-7.129075012E0,-1.083746338E0,7.212190161E0
9.726870083E0,-2.320175171E-2,-7.995173950E0,-8.171507263E-1,8.036857603E0
9.736804083E0,2.844085693E-1,-8.926836548E0,-9.888436890E-1,8.985939619E0
9.746737083E0,4.167333984E-1,-9.726623383E0,-1.418600006E0,9.838358355E0
9.756671083E0,5.210664368E-1,-1.042342438E1,-1.529818726E0,1.054796811E1
9.766604083E0,6.007008362E-1,-1.085078568E1,-2.193089447E0,1.108647972E1
9.776538083E0,2.760260010E-1,-1.098864899E1,-2.778671722E0,1.133788399E1
9.786472083E0,-1.766326904E-2,-1.127575195E1,-3.046015778E0,1.167994462E1
9.796405083E0,-4.834945679E-1,-1.149908752E1,-2.950514374E0,1.188142735E1
9.806339083E0,-8.271798706E-1,-1.169937103E1,-2.189197540E0,1.193113972E1
9.816272083E0,-9.997709656E-1,-1.193468170E1,-1.434017944E0,1.206203038E1
9.826206083E0,-4.936734009E-1,-1.265378632E1,-2.133064270E-1,1.266520909E1
9.836139083E0,2.712359619E-1,-1.308429108E1,4.082011414E-1,1.309346670E1
9.846073083E0,-9.834548950E-2,-1.343201797E1,8.175997925E-1,1.345723776E1
9.856006083E0,-3.694317627E-1,-1.355251740E1,4.926255798E-1,1.356649872E1
9.865940083E0,-9.021739197E-1,-1.315015411E1,3.757186890E-2,1.318111841E1
9.875874083E0,-2.217339020E0,-1.290077271E1,-1.215921478E0,1.314629202E1
9.885807083E0,-1.948198700E0,-1.248344055E1,-2.647095337E0,1.290886827E1
9.895741083E0,-1.605860596E0,-1.270752457E1,-3.915407867E0,1.339366969E1
9.905674083E0,-3.066672821E0,-1.385144577E1,-6.366860046E0,1.555004627E1
9.915608083E0,-4.956941986E0,-1.451905746E1,-8.934770050E0,1.775399728E1
9.925541083E0,-4.868176575E0,-1.423839111E1,-9.491911469E0,1.779121435E1
9.935475083E0,-2.831362152E0,-1.263208145E1,-8.483308868E0,1.547748761E1
9.945409083E0,9.580078125E-3,-1.013452515E1,-6.732998657E0,1.216724959E1
9.955342083E0,1.400637360E0,-8.171806641E0,-4.945865021E0,9.654107395E0
9.965276083E0,9.493258667E-1,-6.703959045E0,-4.774172058E0,8.284745339E0
9.975209083E0,5.478607178E-2,-6.565946045E0,-5.317242737E0,8.449125357E0
9.985143083E0,-3.502716064E-2,-7.677235107E0,-6.009553070E0,9.749661220E0
9.995076083E0,7.119195557E-1,-8.866661682E0,-5.523813171E0,1.047077031E1
1.000501008E1,1.318907318E0,-1.041399399E1,-4.155059509E0,1.128961057E1
1.001494408E1,1.341510315E0,-1.190504333E1,-2.797233124E0,1.230261029E1
1.002487708E1,1.180744629E0,-1.282742523E1,-2.360890503E0,1.309621319E1
1.003481108E1,9.617500305E-1,-1.298594559E1,-2.709665222E0,1.330045231E1
1.004474408E1,8.900491333E-1,-1.263282990E1,-2.960543518E0,1.300559097E1
1.005467808E1,1.488205261E0,-1.193872330E1,-3.175945587E0,1.244325115E1
1.006461108E1,1.630259857E0,-1.141316620E1,-3.332669678E0,1.200103317E1
1.007454508E1,9.523196411E-1,-1.093925171E1,-3.474275208E0,1.151714934E1
1.008447908E1,3.007246399E-1,-9.824070740E0,-3.422931976E0,1.040765413E1
1.009441208E1,-2.160008240E-1,-8.649163971E0,-3.157084808E0,9.209879382E0
1.010434608E1,-4.661306763E-1,-7.513475647E0,-2.957699432E0,8.088113503E0
1.011427908E1,-7.614665222E-1,-6.401587830E0,-2.772833862E0,7.017746478E0
1.012421308E1,-9.583071899E-1,-5.543272705E0,-2.433788910E0,6.129400738E0
1.013414608E1,-8.869056702E-1,-5.046904907E0,-2.122885437E0,5.546574924E0
1.014408008E1,-8.532257080E-1,-4.689897308E0,-1.942660217E0,5.147529465E0
1.015401408E1,-8.012837219E-1,-4.346661072E0,-1.899549866E0,4.810801157E0
1.016394708E1,-8.069718933E-1,-4.099824371E0,-1.822909241E0,4.558811425E0
1.017388108E1,-8.488847351E-1,-4.055217133E0,-1.693578186E0,4.475890789E0
1.018381408E1,-9.228309631E-1,-4.434528351E0,-1.617386627E0,4.809635972E0
1.019374808E1,-8.226892090E-1,-5.244494019E0,-1.565145264E0,5.534547384E0
1.020368108E1,-5.415737915E-1,-6.152356110E0,-1.576222229E0,6.374108909E0
1.021361508E1,-1.664538574E-1,-6.809788971E0,-1.660796356E0,7.011360585E0
1.022354808E1,2.142045593E-1,-7.170239410E0,-1.686393127E0,7.368998478E0
1.023348208E1,5.249583435E-1,-7.124883728E0,-1.444945221E0,7.288855609E0
1.024341608E1,7.692503357E-1,-6.855294342E0,-1.061442719E0,6.979503366E0
1.025334908E1,1.053509216E0,-6.503226471E0,-6.327342224E-1,6.618322204E0
1.026328308E1,1.134191437E0,-6.407126312E0,-2.014810181E-1,6.509858093E0
1.027321608E1,1.043031006E0,-6.604416046E0,1.871109009E-1,6.688888957E0
1.028315008E1,6.355783081E-1,-7.082821198E0,5.105882263E-1,7.129587382E0
1.029308308E1,2.414479065E-1,-7.872578888E0,6.012995911E-1,7.899199747E0
1.030301708E1,-1.619631958E-1,-8.718769226E0,2.122586060E-1,8.722856333E0
1.031295108E1,-4.870870972E-1,-9.702822876E0,-1.660047913E-1,9.716459396E0
1.032288408E1,-6.451583862E-1,-1.066457291E1,-1.277892609E0,1.076022092E1
1.033281808E1,-5.119354248E-1,-1.120809265E1,-2.937491455E0,1.159794270E1
1.034275108E1,-3.854484558E-1,-1.118743561E1,-3.849395142E0,1.183744605E1
1.035268508E1,-5.777984619E-2,-1.060394897E1,-3.585044861E0,1.119373124E1
1.036261808E1,1.019679565E0,-1.052446426E1,-3.047063599E0,1.100403067E1
1.037255208E1,2.089504852E0,-1.156599838E1,-2.529739380E0,1.202239288E1
1.038248608E1,2.494562531E0,-1.277997391E1,-1.941612396E0,1.316512188E1
1.039241908E1,2.121687927E0,-1.335417984E1,-1.112636261E0,1.356737404E1
1.040235308E1,1.097966766E0,-1.328756836E1,-1.158590698E-1,1.333335769E1
1.041228608E1,7.614665222E-1,-1.299657349E1,-2.170486450E-2,1.301887955E1
1.042222008E1,5.879772949E-1,-1.333936066E1,-8.930429077E-1,1.338214429E1
1.043215308E1,-7.810757446E-1,-1.382944153E1,-2.125430145E0,1.401360002E1
1.044208708E1,-2.379002838E0,-1.347497864E1,-4.267924805E0,1.433352315E1
1.045202108E1,-1.329984283E0,-1.336076614E1,-7.031477966E0,1.515653696E1
1.046195408E1,1.406924286E0,-1.412597488E1,-8.153993683E0,1.637101754E1
1.047189133E1,3.961811371E0,-1.506108032E1,-6.347550201E0,1.681735661E1
1.048182433E1,5.033881989E0,-1.496872238E1,-3.692072296E0,1.621832345E1
1.049175833E1,4.111949158E0,-1.352332809E1,-2.451751556E0,1.434571763E1
1.050169133E1,2.868035889E0,-1.160357025E1,-2.401156769E0,1.219155553E1
1.051162533E1,1.304686890E0,-9.604776764E0,-2.858006744E0,1.010555031E1
1.052155933E1,2.826123047E-1,-7.684120789E0,-3.764671326E0,8.561444516E0
1.053149233E1,-5.164260864E-2,-6.584058380E0,-3.848197632E0,7.626343601E0
1.054142633E1,-8.907975769E-1,-6.484066315E0,-3.179538116E0,7.276407007E0
1.055135933E1,-2.262994080E0,-7.246131592E0,-3.370091858E0,8.305726000E0
1.056129333E1,-3.334316254E0,-8.395441589E0,-4.962779846E0,1.030680786E1
1.057122633E1,-2.576142883E0,-9.903256073E0,-6.014343109E0,1.186942779E1
1.058116033E1,-1.390458527E0,-1.076740906E1,-5.889951782E0,1.235159928E1
1.059109333E1,-2.755769348E-1,-1.087099365E1,-5.724396057E0,1.228914789E1
1.060102733E1,8.613088989E-1,-1.077549225E1,-5.398823090E0,1.208306157E1
1.061096133E1,1.426832886E0,-1.033645523E1,-4.874164124E0,1.151675452E1
1.062089433E1,1.958527222E0,-9.521998901E0,-4.395908661E0,1.066903486E1
1.063082833E1,2.706970825E0,-8.888067169E0,-4.063899078E0,1.014104062E1
1.064076133E1,2.880010986E0,-8.508007507E0,-3.836072845E0,9.767093217E0
1.065069533E1,2.315834198E0,-8.397836609E0,-3.808679810E0,9.507512274E0
1.066062833E1,1.686393127E0,-8.968899078E0,-4.009562073E0,9.968031926E0
1.067056233E1,1.806144104E0,-9.425299988E0,-3.903432770E0,1.036027141E1
1.068049633E1,1.815424805E0,-9.291328583E0,-3.181184692E0,9.987216334E0
1.069042933E1,1.299896851E0,-8.256530457E0,-2.452949066E0,8.710739700E0
1.070036333E1,8.072712708E-1,-7.101532288E0,-2.036065979E0,7.431622461E0
1.071029633E1,3.097059631E-1,-6.517596588E0,-1.675765228E0,6.736703361E0
1.072023033E1,-6.242019653E-2,-6.296356659E0,-2.111958160E0,6.641413308E0
1.073016333E1,-3.059637451E-1,-5.965843964E0,-2.549348602E0,6.494927737E0
1.074009733E1,-5.839356995E-1,-5.561983795E0,-2.760709076E0,6.236838882E0
1.075003133E1,-3.573069763E-1,-5.266797638E0,-2.857557678E0,6.002704517E0
1.075996433E1,-4.936734009E-1,-5.312602386E0,-2.634970551E0,5.950674529E0
1.076989833E1,-7.855664063E-1,-5.517077179E0,-2.260898438E0,6.013893657E0
1.077983133E1,-7.789801025E-1,-5.384452972E0,-1.796114960E0,5.729325681E0
1.078976533E1,-7.144642639E-1,-5.320984955E0,-1.871258698E0,5.685503424E0
1.079969833E1,-4.980143738E-1,-5.353617096E0,-1.835782471E0,5.681490263E0
1.080963233E1,-8.367599487E-2,-5.550308075E0,-1.596280518E0,5.775901046E0
1.081956633E1,-2.538720703E-1,-5.530100098E0,-1.321302338E0,5.691423195E0
1.082949933E1,-3.927832031E-1,-5.689219208E0,-1.059945831E0,5.800429209E0
1.083943333E1,-4.938230896E-1,-6.413712616E0,-5.748046875E-1,6.458325727E0
1.084936633E1,-4.809498596E-1,-7.226522369E0,-3.670367432E-1,7.251803520E0
1.085930033E1,-2.625540161E-1,-7.914342041E0,-3.252735901E-1,7.925373648E0
1.086923333E1,-4.370910645E-2,-8.374934235E0,-5.310955811E-1,8.391870854E0
1.087916733E1,1.041833496E-1,-8.681646423E0,-1.216071167E0,8.767021608E0
1.088910133E1,4.819976807E-2,-8.735684052E0,-1.930834808E0,8.946654242E0
1.089903433E1,-1.369651794E-1,-9.024732971E0,-2.537223816E0,9.375610346E0
1.090896833E1,-4.558021545E-1,-1.008033783E1,-2.837499390E0,1.048200215E1
1.091890133E1,-7.631130981E-1,-1.113085327E1,-2.833158417E0,1.151108261E1
1.092883533E1,-8.472381592E-1,-1.145672562E1,-2.534379730E0,1.176424477E1
1.093876833E1,-1.054856415E0,-1.202958435E1,-2.015109558E0,1.224272389E1
1.094870233E1,-5.342390442E-1,-1.271111710E1,-1.514550476E0,1.281217282E1
1.095863633E1,-3.043171692E-1,-1.297726364E1,-3.480262756E-1,1.298549586E1
1.096856933E1,-3.365002441E-1,-1.368214783E1,4.134402466E-1,1.369252842E1
1.097850333E1,8.562194824E-2,-1.354144043E1,4.578977966E-1,1.354945056E1
1.098843633E1,-6.780899048E-1,-1.363813934E1,9.939331055E-2,1.365534803E1
1.099837033E1,-1.491797791E0,-1.379950378E1,-1.354084167E0,1.394579898E1
1.100830333E1,-1.554217987E0,-1.361853012E1,-2.937491455E0,1.401816009E1
1.101823733E1,-7.542814636E-1,-1.404244858E1,-4.373754730E0,1.472715292E1
1.102817133E1,-6.307882690E-1,-1.430694855E1,-5.991740112E0,1.552377596E1
1.103810433E1,-8.846603394E-1,-1.388198227E1,-7.655081177E0,1.587741552E1
1.104803833E1,-1.111588440E0,-1.361823074E1,-7.705376587E0,1.568644848E1
1.105797133E1,-1.118174744E0,-1.281619858E1,-7.885302429E0,1.508917676E1
1.106790533E1,-4.861889648E-1,-1.081366287E1,-8.055049438E0,1.349279459E1
1.107783833E1,1.280437317E0,-8.632099457E0,-6.858437805E0,1.109913645E1
1.108777233E1,1.216669922E0,-7.887398071E0,-5.166955261E0,9.507300390E0
1.109770633E1,1.572180634E0,-7.594008179E0,-4.588558044E0,9.010858843E0
1.110763933E1,2.163750458E0,-8.075556793E0,-4.059408417E0,9.293827535E0
1.111757333E1,2.558329926E0,-9.329050140E0,-3.218606873E0,1.019488395E1
1.112750633E1,2.740052032E0,-1.028630951E1,-2.683918762E0,1.097813592E1
1.113744033E1,2.863395538E0,-1.091036179E1,-2.507435760E0,1.155518336E1
1.114737333E1,2.689906311E0,-1.137918686E1,-2.362387390E0,1.192905544E1
1.115730733E1,1.862576752E0,-1.174203232E1,-2.453248444E0,1.213931394E1
1.116724033E1,9.607022095E-1,-1.182615738E1,-2.581232300E0,1.214264005E1
1.117717433E1,3.966751099E-1,-1.164937500E1,-3.111878815E0,1.206437229E1
1.118710833E1,-3.204835510E-1,-1.140837616E1,-3.492387543E0,1.193526401E1
1.119704133E1,-8.237370300E-1,-1.147977768E1,-4.015399933E0,1.218963801E1
1.120697533E1,-1.221909027E0,-1.083536774E1,-4.133654022E0,1.166127571E1
1.121690833E1,-1.344354401E0,-9.402696991E0,-3.976031799E0,1.029693296E1
1.122684233E1,-8.961863708E-1,-8.105344849E0,-3.643124084E0,8.931523847E0
1.123677633E1,-5.129832458E-1,-7.075785828E0,-3.153492279E0,7.763659604E0
1.124670933E1,5.104385376E-2,-6.211183777E0,-2.501897278E0,6.696334772E0
1.125664333E1,6.480024719E-1,-5.419629822E0,-1.712139587E0,5.720464717E0
1.126657633E1,1.048120422E0,-4.772974548E0,-1.165027313E0,5.023657144E0
1.127651033E1,8.916957092E-1,-4.743485870E0,-9.404942322E-1,4.917347745E0
1.128644333E1,6.694079590E-1,-5.030139771E0,-1.273252258E0,5.231785970E0
1.129637733E1,1.927990723E-1,-5.389093323E0,-1.639241180E0,5.636187539E0
1.130631033E1,-3.921844482E-1,-5.763464813E0,-1.732048187E0,6.030864467E0
1.131624433E1,-8.937913513E-1,-6.001170502E0,-1.533111877E0,6.258062192E0
1.132617833E1,-1.043629761E0,-6.261928253E0,-1.744322662E0,6.583583377E0
1.133611133E1,-9.126521301E-1,-6.478827209E0,-1.763033752E0,6.776165873E0
1.134604533E1,-7.767347717E-1,-6.644832001E0,-1.300196228E0,6.815249038E0
1.135597833E1,-7.158114624E-1,-6.651418304E0,-1.010099487E0,6.765652406E0
1.136591233E1,-4.514611816E-1,-6.436465302E0,-9.241781616E-1,6.518129183E0
1.137584533E1,5.179229736E-2,-6.199058990E0,-6.426136780E-1,6.232492852E0
1.138577933E1,3.608995056E-1,-6.060147858E0,-7.155120850E-2,6.071306292E0
1.139571333E1,3.219804382E-1,-6.069578247E0,5.397775269E-1,6.102033372E0
1.140564633E1,4.924758911E-2,-6.494095459E0,7.825726318E-1,6.541262958E0
1.141558033E1,-4.668791199E-1,-7.238048401E0,5.376818848E-1,7.272992684E0
1.142551333E1,-9.171427917E-1,-8.022417297E0,-3.212319946E-1,8.081059348E0
1.143544733E1,-1.018931122E0,-8.555309143E0,-1.387315063E0,8.726750727E0
1.144538033E1,-6.954537964E-1,-9.106013947E0,-2.529589691E0,9.476390135E0
1.145531433E1,-1.133143616E-1,-9.876162415E0,-3.065625000E0,1.034163821E1
1.146524833E1,2.395019531E-2,-1.052775742E1,-2.920277252E0,1.092530407E1
1.147517862E1,9.101074219E-1,-1.132874176E1,-2.856210480E0,1.171864428E1
1.148511263E1,2.102378082E0,-1.293759613E1,-2.740800476E0,1.339079439E1
1.149504563E1,2.582280121E0,-1.445768509E1,-2.468367004E0,1.489247006E1
1.150497962E1,2.263293457E0,-1.465257980E1,-1.614542542E0,1.491399812E1
1.151491362E1,1.859133911E0,-1.354233856E1,-1.472937012E-1,1.367015026E1
1.152484663E1,1.775607605E0,-1.206715622E1,8.785231018E-1,1.222868940E1
1.153478063E1,2.159259796E0,-1.137798935E1,7.366181946E-1,1.160446685E1
1.154471362E1,2.215692444E0,-1.166045197E1,-4.324507141E-1,1.187697127E1
1.155464762E1,1.502126312E0,-1.202299805E1,-2.108066254E0,1.229848807E1
1.156458063E1,9.804611206E-2,-1.246398102E1,-4.055067444E0,1.310740279E1
1.157451463E1,-3.830534363E-1,-1.343366455E1,-5.648503876E0,1.457791718E1
1.158444862E1,5.635780334E-1,-1.479732880E1,-5.951922913E0,1.595944692E1
1.159438162E1,1.644929352E0,-1.604318802E1,-4.288731537E0,1.668780670E1
1.160431563E1,2.658621368E0,-1.614662292E1,-2.472558289E0,1.654978078E1
1.161424863E1,2.835703125E0,-1.459405151E1,-1.940265198E0,1.499307109E1
1.162418262E1,3.537443848E0,-1.255843460E1,-2.124082947E0,1.321890756E1
1.163411563E1,3.579656067E0,-1.006911118E1,-2.963387604E0,1.108975218E1
1.164404963E1,2.340682526E0,-7.578290863E0,-3.725901947E0,8.763083499E0
1.165398363E1,1.168170776E0,-6.228847046E0,-3.835474091E0,7.407700047E0
1.166391662E1,1.496887207E-1,-6.303092651E0,-4.035757599E0,7.485901621E0
1.167385063E1,-1.327888641E0,-7.373067627E0,-4.436923370E0,8.706991643E0
1.168378363E1,-2.694396973E0,-9.120084686E0,-4.714296570E0,1.061415620E1
1.169371762E1,-3.151396637E0,-1.069795349E1,-4.592599640E0,1.206107297E1
1.170365062E1,-2.993475037E0,-1.120405106E1,-4.995861053E0,1.262736237E1
1.171358463E1,-2.170785828E0,-1.135852982E1,-5.737418976E0,1.290916292E1
1.172351863E1,-1.035546570E0,-1.107786346E1,-5.671256561E0,1.248817707E1
1.173345162E1,9.026229858E-2,-1.030666718E1,-5.240452423E0,1.156277982E1
1.174338562E1,1.514999542E0,-9.476493530E0,-4.627626801E0,1.065429881E1
1.175331863E1,2.576292572E0,-8.548423462E0,-3.884422302E0,9.736609457E0
1.176325263E1,2.886447601E0,-7.881260834E0,-3.414699097E0,9.061237333E0
1.177318562E1,2.590213623E0,-7.582931213E0,-3.407064972E0,8.707361490E0
1.178311962E1,2.323019257E0,-7.643106079E0,-3.062331848E0,8.555195226E0
1.179305363E1,1.994452515E0,-8.375532990E0,-2.611020355E0,8.996933977E0
1.180298662E1,1.725012817E0,-8.783434753E0,-2.498753815E0,9.293447472E0
1.181292062E1,9.608518982E-1,-8.435558167E0,-2.040706329E0,8.731916186E0
1.182285363E1,3.794609070E-1,-7.728578339E0,-2.037113800E0,8.001546497E0
1.183278763E1,1.025367737E-1,-6.569837952E0,-2.055824890E0,6.884744039E0
1.184272062E1,-1.639091492E-1,-5.671406250E0,-1.989512787E0,6.012476710E0
1.185265462E1,-2.805166626E-1,-5.401667175E0,-2.251318359E0,5.858765418E0
1.186258863E1,-2.098635864E-1,-5.774691467E0,-2.349663849E0,6.237950342E0
1.187252163E1,-6.186634827E-1,-5.846542053E0,-1.975891113E0,6.202333769E0
1.188245562E1,-1.110390930E0,-5.622757416E0,-1.922751617E0,6.045274415E0
1.189238862E1,-1.010249176E0,-5.532644806E0,-2.238145752E0,6.053103200E0
1.190232263E1,-9.467811584E-1,-5.414839783E0,-2.080373840E0,5.877485836E0
1.191225563E1,-5.712121582E-1,-5.445226593E0,-1.741628265E0,5.745436884E0
1.192218962E1,-5.346881104E-1,-5.615422668E0,-1.289568329E0,5.786350283E0
1.193212362E1,-7.171586609E-1,-5.829028473E0,-8.156538391E-1,5.929349093E0
1.194205663E1,-5.730084229E-1,-6.323150940E0,-4.635859680E-1,6.365963274E0
1.195199063E1,-3.894900513E-1,-6.913523254E0,-2.155517578E-1,6.927840129E0
1.196192362E1,-2.647993469E-1,-7.548353119E0,-7.185058594E-2,7.553338071E0
1.197185763E1,-2.761756897E-1,-8.175249481E0,-2.320175171E-1,8.183202870E0
1.198179063E1,-2.329156494E-1,-8.559500427E0,-6.941065979E-1,8.590755568E0
1.199172462E1,-2.023791504E-1,-9.042845306E0,-1.328038330E0,9.142083699E0
1.200165862E1,-1.698966980E-1,-9.599986725E0,-2.048789520E0,9.817644753E0
1.201159163E1,-4.842430115E-1,-1.013662079E1,-2.849175110E0,1.054055839E1
1.202152563E1,-6.710545349E-1,-1.067909271E1,-3.451372833E0,1.124301160E1
1.203145862E1,-4.406835938E-1,-1.163425644E1,-3.440295868E0,1.214025373E1
1.204139262E1,-5.688171387E-2,-1.123054596E1,-3.025658112E0,1.163112226E1
1.205132563E1,-4.670288086E-2,-1.091560089E1,-2.204316101E0,1.113604658E1
1.206125963E1,4.221221924E-1,-1.133682495E1,-1.383872223E0,1.142877463E1
1.207119362E1,5.598358154E-1,-1.221684494E1,-2.823129272E-1,1.223292349E1
1.208112662E1,3.242257690E-1,-1.334699478E1,6.518943787E-1,1.336683801E1
1.209106063E1,5.201683044E-1,-1.387749161E1,1.233135681E0,1.394187835E1
1.210099363E1,-3.246748352E-1,-1.368544098E1,1.494941254E0,1.377067747E1
1.211092762E1,-9.553134155E-1,-1.295031967E1,1.111139374E0,1.303295953E1
1.212086063E1,-1.865720215E0,-1.200967575E1,1.637594604E-1,1.215483610E1
1.213079463E1,-1.883383484E0,-1.155237671E1,-1.710493011E0,1.182921499E1
1.214072863E1,-1.659449158E0,-1.233225494E1,-3.391946411E0,1.289742548E1
1.215066162E1,-2.752625885E0,-1.261337036E1,-5.558990021E0,1.405618836E1
1.216059563E1,-3.518583069E0,-1.202000427E1,-7.641309814E0,1.467141933E1
1.217052863E1,-3.660338287E0,-1.160132492E1,-9.752669220E0,1.559177261E1
1.218046262E1,-1.688937836E0,-1.111304031E1,-1.063373703E1,1.547347858E1
1.219039562E1,1.182840271E0,-1.022553589E1,-9.598639526E0,1.407460749E1
1.220032963E1,2.924618225E0,-9.450747070E0,-6.356980591E0,1.175930330E1
1.221026363E1,3.209176483E0,-9.561816101E0,-3.832480316E0,1.078958045E1
1.222019662E1,2.025737457E0,-9.201365662E0,-3.655847626E0,1.010613498E1
1.223013062E1,1.362616425E0,-9.432634735E0,-3.981420593E0,1.032874782E1
1.224006363E1,1.410816193E0,-1.073357941E1,-4.203858032E0,1.161346424E1
1.224999763E1,1.730251923E0,-1.155222702E1,-3.951333160E0,1.233129168E1
1.225993062E1,1.300345917E0,-1.222522751E1,-3.182232513E0,1.269935789E1
1.226986462E1,6.276448059E-1,-1.296498917E1,-2.749781799E0,1.326823960E1
1.227979863E1,8.981323242E-3,-1.350850891E1,-2.892584839E0,1.381473636E1
1.228973163E1,-5.493576050E-1,-1.326676163E1,-3.519780579E0,1.373672498E1
1.229966562E1,-1.186283112E0,-1.237012619E1,-4.182452545E0,1.311183431E1
1.230959863E1,-1.711989899E0,-1.142454254E1,-4.186793518E0,1.228740500E1
1.231953263E1,-1.724114685E0,-1.047850983E1,-3.993246002E0,1.134538467E1
1.232946562E1,-1.273102570E0,-9.260792084E0,-3.893104248E0,1.012617010E1
1.233939962E1,-9.939331055E-1,-7.948471069E0,-3.619922333E0,8.790331794E0
1.234933363E1,-6.825805664E-1,-7.250622253E0,-2.965333557E0,7.863246301E0
1.235926663E1,-1.984872437E-1,-6.488706665E0,-2.331252136E0,6.897640748E0
1.236920062E1,3.362008667E-1,-5.387297058E0,-1.908381500E0,5.725200483E0
1.237913362E1,7.146139526E-1,-4.303550720E0,-1.677411804E0,4.673856252E0
1.238906763E1,7.372169495E-1,-3.758234711E0,-1.574425964E0,4.140849440E0
1.239900063E1,9.226812744E-1,-3.845802612E0,-1.612147522E0,4.270896639E0
1.240893462E1,9.716294861E-1,-4.173171844E0,-1.697470093E0,4.608777692E0
1.241886862E1,8.740324402E-1,-4.482578430E0,-1.777104492E0,4.900565525E0
1.242880163E1,5.168751526E-1,-4.862937469E0,-1.747316437E0,5.193114238E0
1.243873563E1,1.368154907E-1,-5.450615387E0,-1.774410095E0,5.733799592E0
1.244866862E1,-2.011816406E-1,-6.152356110E0,-1.959125977E0,6.459886558E0
1.245860262E1,-3.830534363E-1,-6.834337921E0,-1.899400177E0,7.103705075E0
1.246853563E1,-4.093986511E-1,-7.301366730E0,-1.617686005E0,7.489624249E0
1.247846996E1,-1.140628052E-1,-7.375762024E0,-1.195713501E0,7.472924898E0
1.248840396E1,4.668791199E-1,-7.227869568E0,-5.728587341E-1,7.265551716E0
1.249833696E1,1.008752289E0,-6.947203217E0,-1.047821045E-3,7.020058035E0
1.250827096E1,1.418300629E0,-7.009024658E0,2.975811768E-1,7.157273076E0
1.251820396E1,1.371747437E0,-7.506889343E0,5.906716919E-1,7.654016703E0
1.252813796E1,1.049168243E0,-8.285869446E0,6.367758179E-1,8.376268257E0
1.253807096E1,6.186634827E-1,-9.034313049E0,8.517288208E-2,9.055871642E0
1.254800496E1,2.212399292E-1,-9.688303070E0,-6.896159363E-1,9.715334972E0
1.255793896E1,-1.468446350E-1,-9.955497437E0,-2.022893372E0,1.015999952E1
1.256787196E1,-6.331832886E-2,-9.732910309E0,-3.512296143E0,1.034745266E1
1.257780596E1,2.282752991E-1,-9.110354919E0,-3.697012024E0,9.834560197E0
1.258773896E1,8.572673035E-1,-8.822503510E0,-2.961741028E0,9.345768311E0
1.259767296E1,1.855541382E0,-9.474098511E0,-2.417472839E0,9.952173197E0
1.260760596E1,2.191143494E0,-1.101783829E1,-2.072290649E0,1.142314575E1
1.261753996E1,1.971250763E0,-1.272084686E1,-1.612446899E0,1.297327096E1
1.262747396E1,1.569336548E0,-1.349039658E1,-1.074615326E0,1.362381793E1
1.263740696E1,1.407523041E0,-1.339384735E1,-5.468128967E-1,1.347869698E1
1.264734096E1,1.419498138E0,-1.325089462E1,-1.773811340E-1,1.332788983E1
1.265727396E1,9.871971130E-1,-1.318353470E1,-5.944139099E-1,1.323380041E1
1.266720796E1,5.827381897E-1,-1.346479980E1,-2.033521271E0,1.362995328E1
1.267714096E1,-1.954934692E-1,-1.366074234E1,-3.417243805E0,1.408302717E1
1.268707496E1,-1.284628601E0,-1.345117813E1,-4.654570770E0,1.429158818E1
1.269700796E1,-9.834548950E-1,-1.353201004E1,-5.280718689E0,1.455913696E1
1.270694196E1,6.234535217E-1,-1.407672729E1,-5.045857086E0,1.496675046E1
1.271687596E1,2.405348053E0,-1.439601334E1,-4.080963593E0,1.515536747E1
1.272680896E1,3.271446991E0,-1.362047607E1,-3.514990540E0,1.444212216E1
1.273674296E1,4.134402466E0,-1.246457977E1,-3.621119843E0,1.362246459E1
1.274667596E1,3.705544281E0,-1.086216202E1,-3.642675018E0,1.204104246E1
1.275660996E1,2.276016998E0,-8.525670776E0,-3.733536072E0,9.581576445E0
1.276654296E1,1.343905334E0,-6.950047302E0,-3.636388092E0,7.958175507E0
1.277647696E1,-2.881507874E-1,-6.605014801E0,-2.907254333E0,7.222283514E0
1.278641096E1,-1.685345306E0,-6.685846710E0,-3.138972473E0,7.575888279E0
1.279634396E1,-2.205513611E0,-7.697143707E0,-4.371210022E0,9.122378451E0
1.280627796E1,-1.920356598E0,-9.645192719E0,-5.247487793E0,1.114691169E1
1.281621096E1,-1.148411865E0,-1.106798401E1,-5.387446747E0,1.236299730E1
1.282614496E1,-6.426136780E-1,-1.162198196E1,-5.558091888E0,1.289867445E1
1.283607796E1,3.673361206E-1,-1.187016586E1,-5.487588501E0,1.308240807E1
1.284601196E1,1.436412964E0,-1.167033142E1,-5.020859070E0,1.278549739E1
1.285594596E1,1.750759277E0,-1.089913513E1,-4.182302856E0,1.180457377E1
1.286587896E1,1.789378967E0,-9.911938019E0,-3.422333221E0,1.063770450E1
1.287581296E1,2.039508820E0,-9.087602234E0,-3.362906799E0,9.902184240E0
1.288574596E1,2.060614929E0,-8.731043701E0,-3.568429413E0,9.654581631E0
1.289567996E1,1.902244263E0,-8.751850433E0,-3.559448090E0,9.637587351E0
1.290561296E1,1.845661926E0,-8.530760193E0,-3.371139679E0,9.356544242E0
1.291554696E1,1.527872772E0,-8.099506989E0,-2.988235931E0,8.767323574E0
1.292548096E1,1.206790466E0,-7.419022064E0,-2.556084595E0,7.939256897E0
1.293541396E1,9.535171509E-1,-6.559060364E0,-2.103276215E0,6.953721209E0
1.294534796E1,6.442602539E-1,-5.852828979E0,-2.004631348E0,6.220066332E0
1.295528096E1,8.262817383E-2,-5.509293365E0,-2.096839600E0,5.895411530E0
1.296521496E1,-2.293231201E-1,-5.406157837E0,-2.060614929E0,5.790100650E0
1.297514796E1,-4.840933228E-1,-5.496120758E0,-1.907782745E0,5.837921268E0
1.298508196E1,-4.320016479E-1,-5.459596710E0,-1.882784729E0,5.791260657E0
1.299501596E1,-1.113684082E-1,-5.410798187E0,-2.041305084E0,5.784121921E0
1.300494896E1,2.046244812E-1,-5.687123566E0,-1.939666443E0,6.012283388E0
1.301488296E1,3.216810608E-1,-6.101312256E0,-1.777852936E0,6.363195032E0
1.302481596E1,2.606080627E-1,-6.356531525E0,-1.440155182E0,6.522841140E0
1.303474996E1,5.051994324E-1,-6.439908142E0,-1.363813934E0,6.602092986E0
1.304468296E1,-7.753875732E-2,-6.491700439E0,-1.168320465E0,6.596450528E0
1.305461696E1,-4.882846069E-1,-6.451284485E0,-9.092092896E-1,6.533311174E0
1.306455096E1,-6.406677246E-1,-6.526278534E0,-9.199868774E-1,6.621868504E0
1.307448396E1,-7.188052368E-1,-6.787185974E0,-1.022972717E0,6.901380123E0
1.308441796E1,-5.620811462E-1,-7.525151367E0,-7.920030212E-1,7.587562659E0
1.309435096E1,-5.694158936E-1,-8.252039795E0,-9.687854004E-1,8.328201510E0
1.310428496E1,-4.496649170E-1,-8.190966797E0,-1.258133698E0,8.299219000E0
1.311421796E1,-4.625381470E-2,-7.597750397E0,-1.152453461E0,7.684796646E0
1.312415196E1,2.433938599E-1,-7.920778656E0,-1.523980865E0,8.069726933E0
1.313408596E1,-3.020718384E-1,-8.800199890E0,-1.995051270E0,9.028565505E0
1.314401896E1,-8.367599487E-1,-9.782906342E0,-2.581681366E0,1.015236437E1
1.315395296E1,-1.252445526E0,-1.141960281E1,-2.569556580E0,1.177193991E1
1.316388596E1,-1.470541992E0,-1.243688736E1,-2.285597076E0,1.273038157E1
1.317381996E1,-1.376387787E0,-1.280272659E1,-1.774260406E0,1.299816339E1
1.318375296E1,-1.047671356E0,-1.350985611E1,-1.050964508E0,1.359111304E1
1.319368696E1,-8.979826355E-1,-1.365280884E1,-2.386038208E-1,1.368438869E1
1.320362096E1,-6.168672180E-1,-1.320494019E1,6.447093201E-1,1.323505272E1
1.321355396E1,-2.984793091E-1,-1.316287766E1,1.140777740E0,1.321558973E1
1.322348796E1,1.106199646E-1,-1.266576141E1,1.141077118E0,1.271753930E1
1.323342096E1,3.442840576E-1,-1.267788620E1,-2.426454163E-1,1.268488103E1
1.324335496E1,2.059716797E-1,-1.343231735E1,-2.221380615E0,1.361631762E1
1.325328796E1,-2.847079468E-1,-1.417207901E1,-4.163292389E0,1.477368896E1
1.326322196E1,-1.504671021E0,-1.450917801E1,-5.730233917E0,1.567213649E1
1.327315596E1,-2.116897888E0,-1.435335205E1,-7.659422150E0,1.640630121E1
1.328308896E1,-2.106120300E0,-1.339803864E1,-9.380842438E0,1.649070607E1
1.329302296E1,-7.478448486E-1,-1.212538513E1,-9.651928711E0,1.551592615E1
1.330295596E1,1.298399963E0,-1.036968613E1,-8.069120178E0,1.320329252E1
1.331288996E1,1.930535431E0,-9.186546478E0,-5.319787445E0,1.078979804E1
1.332282296E1,1.919159088E0,-8.424032135E0,-3.929179230E0,9.491361253E0
1.333275696E1,1.291813660E0,-7.570357361E0,-3.791764984E0,8.564845287E0
1.334269096E1,1.092727661E0,-8.347990265E0,-4.158801727E0,9.390347545E0
1.335262396E1,1.778302002E0,-9.519603882E0,-4.353995819E0,1.061802692E1
1.336255796E1,2.150428162E0,-1.048838928E1,-3.865711212E0,1.138307402E1
1.337249096E1,1.891167297E0,-1.109238327E1,-2.721939697E0,1.157697871E1
1.338242496E1,1.420845337E0,-1.135628448E1,-2.142344971E0,1.164360944E1
1.339235796E1,9.868977356E-1,-1.185849014E1,-2.276765442E0,1.211533807E1
1.340229196E1,3.513194275E-1,-1.227402603E1,-2.778372345E0,1.258945961E1
1.341222596E1,-1.757345581E-1,-1.247401016E1,-3.046464844E0,1.284183633E1
1.342215896E1,-2.896476746E-1,-1.237716156E1,-3.543730774E0,1.287773473E1
1.343209296E1,-5.526507568E-1,-1.164982407E1,-3.912863159E0,1.230180156E1
1.344202596E1,-7.611671448E-1,-1.043599823E1,-3.921694794E0,1.117448543E1
1.345195996E1,-5.601351929E-1,-9.143885193E0,-3.811224518E0,9.922188276E0
1.346189296E1,-3.296145630E-1,-7.966284027E0,-3.381468201E0,8.660522741E0
1.347182721E1,-1.224453735E-1,-6.881938934E0,-2.886297913E0,7.463698279E0
1.348176121E1,9.116043091E-2,-5.830824738E0,-2.333198090E0,6.280974500E0
1.349169421E1,3.785627747E-1,-4.932093658E0,-1.835932159E0,5.276315431E0
1.350162821E1,8.189469910E-1,-4.406835938E0,-1.454974365E0,4.712518176E0
1.351156121E1,1.136885834E0,-4.387975159E0,-1.303040314E0,4.716433976E0
1.352149521E1,1.134490814E0,-4.529880066E0,-1.212179260E0,4.824547790E0
1.353142821E1,9.473799133E-1,-4.902754669E0,-1.174457703E0,5.129705931E0
1.354136221E1,5.325924683E-1,-5.225633240E0,-1.321751404E0,5.416449415E0
1.355129621E1,7.274871826E-2,-5.278922424E0,-1.322799225E0,5.442619969E0
1.356122921E1,-1.878593445E-1,-5.566175079E0,-1.165775757E0,5.690046508E0
1.357116321E1,-1.480421448E-1,-6.289920044E0,-1.105900269E0,6.388116001E0
1.358109621E1,-2.468367004E-1,-7.099586334E0,-1.338067474E0,7.228795131E0
1.359103021E1,-5.275030518E-1,-7.641160126E0,-1.152603149E0,7.745584649E0
1.360096321E1,-1.844165039E-1,-7.857460327E0,-4.423301697E-1,7.872061243E0
1.361089721E1,3.029699707E-1,-8.004155273E0,8.906478882E-2,8.010382324E0
1.362083021E1,3.035687256E-1,-8.144862671E0,5.331912231E-1,8.167939445E0
1.363076421E1,2.893482971E-1,-8.356522522E0,9.023236084E-1,8.410076040E0
1.364069821E1,-1.127156067E-1,-8.700507202E0,1.072519684E0,8.767087821E0
1.365063121E1,-9.575587463E-1,-8.773854675E0,6.239025879E-1,8.847977117E0
1.366056521E1,-2.246678009E0,-8.279732208E0,-1.301543427E0,8.677300433E0
1.367049821E1,-2.785258026E0,-7.174879761E0,-3.169658661E0,8.323658924E0
1.368043221E1,-1.204395447E0,-6.439159698E0,-4.118385773E0,7.737858062E0
1.369036521E1,6.225553894E-1,-6.752009125E0,-3.661835175E0,7.706246770E0
1.370029921E1,1.632205811E0,-8.607999573E0,-2.905907135E0,9.230712255E0
1.371023321E1,2.638862457E0,-1.142828476E1,-2.423460388E0,1.197674613E1
1.372016621E1,3.298989716E0,-1.364936600E1,-1.746717682E0,1.415060239E1
1.373010021E1,3.350183258E0,-1.512335083E1,-3.115022278E-1,1.549311143E1
1.374003321E1,2.811453552E0,-1.511407013E1,9.303153992E-1,1.540145687E1
1.374996721E1,1.937271423E0,-1.406669815E1,1.605860596E0,1.428998970E1
1.375990021E1,1.613794098E0,-1.300869827E1,1.185384979E0,1.316190335E1
1.376983421E1,1.970053253E0,-1.256307495E1,-3.841012573E-1,1.272240134E1
1.377976821E1,1.004860382E0,-1.323817108E1,-2.134860535E0,1.344680436E1
1.378970121E1,-8.285270691E-1,-1.321781342E1,-3.791166229E0,1.377570288E1
1.379963521E1,-1.696272583E0,-1.292846512E1,-5.081333313E0,1.399437384E1
1.380956821E1,-6.224057007E-1,-1.334909042E1,-6.079008636E0,1.468127890E1
1.381950221E1,1.941313019E0,-1.411923889E1,-6.107898560E0,1.550574177E1
1.382943521E1,3.370391235E0,-1.469419327E1,-3.945794678E0,1.558358587E1
1.383936921E1,2.809956665E0,-1.421009995E1,-2.453547821E0,1.469158582E1
1.384930321E1,2.256707153E0,-1.277712982E1,-2.365530853E0,1.318876453E1
1.385923621E1,1.500030670E0,-1.026924500E1,-2.473905487E0,1.066900619E1
1.386917021E1,4.236190796E-1,-7.529342651E0,-3.169059906E0,8.180060793E0
1.387910321E1,-1.432521057E-1,-6.093079376E0,-3.788471832E0,7.176256425E0
1.388903721E1,-8.759783936E-1,-5.913901978E0,-3.679049377E0,7.019756340E0
1.389897021E1,-1.959575043E0,-6.670129395E0,-3.922592926E0,7.982311429E0
1.390890421E1,-2.702330475E0,-7.796537018E0,-4.585863647E0,9.440271440E0
1.391883821E1,-2.337539063E0,-8.733738098E0,-4.890929260E0,1.027927328E1
1.392877121E1,-2.225871277E0,-9.449250183E0,-4.990023193E0,1.091527203E1
1.393870521E1,-7.467970276E-1,-9.847272491E0,-5.426964569E0,1.126847043E1
1.394863821E1,1.010698242E0,-1.069076843E1,-5.424569550E0,1.203079363E1
1.395857221E1,1.670226746E0,-1.128967300E1,-4.933590546E0,1.243328957E1
1.396850521E1,1.733545074E0,-1.129131958E1,-4.547842712E0,1.229560693E1
1.397843921E1,1.938768311E0,-1.082533859E1,-4.337530060E0,1.182205334E1
1.398837321E1,2.004481659E0,-1.051458481E1,-4.136348419E0,1.147535702E1
1.399830621E1,1.347048798E0,-1.001178040E1,-3.893703003E0,1.082641262E1
1.400824021E1,1.056652679E0,-9.173822937E0,-3.437900848E0,9.853664517E0
1.401817321E1,1.181044006E0,-8.416398010E0,-3.006647644E0,9.015018051E0
1.402810721E1,1.561552734E0,-7.738457794E0,-2.529589691E0,8.289813024E0
1.403804021E1,1.885479126E0,-7.234904938E0,-2.213447113E0,7.797321919E0
1.404797421E1,1.730700989E0,-6.849606171E0,-1.827250214E0,7.297347049E0
1.405790821E1,1.488654327E0,-6.532565460E0,-1.511556702E0,6.868428267E0
1.406784121E1,9.719288635E-1,-6.357878723E0,-1.597328339E0,6.627120445E0
1.407777521E1,2.624043274E-1,-6.227948914E0,-1.818119202E0,6.493208847E0
1.408770821E1,-7.129673767E-1,-5.661676483E0,-1.911225586E0,6.017947019E0
1.409764221E1,-1.278191986E0,-5.415887604E0,-2.285447388E0,6.015719662E0
1.410757521E1,-1.287173309E0,-5.285209351E0,-2.716850281E0,6.080421733E0
1.411750921E1,-1.142424316E0,-4.988975372E0,-2.957998810E0,5.911409776E0
1.412744321E1,-1.412762146E0,-5.107379150E0,-2.736309814E0,5.963942494E0
1.413737621E1,-1.274000702E0,-5.161865845E0,-2.535577240E0,5.890423476E0
1.414731021E1,-1.161584473E0,-5.385800171E0,-2.013163605E0,5.865914223E0
1.415724321E1,-1.215622101E0,-5.977968750E0,-1.403331757E0,6.259647553E0
1.416717721E1,-9.445358276E-1,-6.494394836E0,-9.542655945E-1,6.631736955E0
1.417711021E1,-5.348377991E-1,-6.694378967E0,-9.852511597E-1,6.787597592E0
1.418704421E1,-3.189866638E-1,-7.120842133E0,-6.360273743E-1,7.156303235E0
1.419697821E1,2.498304749E-1,-7.852670288E0,-5.331912231E-1,7.874715157E0
1.420691121E1,1.835183716E-1,-8.700656891E0,-2.784210205E-1,8.707044710E0
1.421684521E1,1.613644409E-1,-9.508077850E0,-8.104147339E-1,9.543917169E0
1.422677821E1,5.685177612E-1,-1.016401382E1,-1.513652344E0,1.029181874E1
1.423671221E1,6.867718506E-1,-1.045785278E1,-1.921853485E0,1.065513309E1
1.424664521E1,5.866300964E-1,-1.058523788E1,-2.689008179E0,1.093719164E1
1.425657921E1,2.327659607E-1,-1.086485641E1,-3.347788239E0,1.137132231E1
1.426651321E1,3.951782227E-2,-1.120943985E1,-3.610342255E0,1.177657313E1
1.427644621E1,-3.200344849E-1,-1.121108643E1,-3.203638000E0,1.166422639E1
1.428638021E1,-5.498066711E-1,-1.120360199E1,-2.381098480E0,1.146702293E1
1.429631321E1,-3.092568970E-1,-1.111932724E1,-1.081201630E0,1.117604917E1
1.430624721E1,2.908451843E-1,-1.235395981E1,3.496728516E-1,1.236232927E1
1.431618021E1,8.427474976E-1,-1.320089859E1,1.027762756E0,1.326763895E1
1.432611421E1,4.840933228E-1,-1.374651398E1,1.263971558E0,1.381298726E1
1.433604721E1,-3.050656128E-1,-1.369816452E1,9.587562561E-1,1.373506424E1
1.434598121E1,-1.250200195E0,-1.327424606E1,1.414558411E-1,1.333373987E1
1.435591521E1,-1.823208618E0,-1.241338623E1,-8.675958252E-1,1.257652456E1
1.436584821E1,-1.016985168E0,-1.249825974E1,-2.631976776E0,1.281280832E1
1.437578221E1,-9.846524048E-1,-1.313937653E1,-4.600084076E0,1.395612874E1
1.438571521E1,-2.522554321E0,-1.324864929E1,-6.501430206E0,1.497192650E1
1.439564921E1,-3.364403687E0,-1.288580383E1,-8.570727081E0,1.583731402E1
1.440558221E1,-2.410138092E0,-1.287921753E1,-9.647737427E0,1.627150415E1
1.441551621E1,-3.858975220E-1,-1.267938309E1,-9.221723328E0,1.568297974E1
1.442545021E1,1.794618073E0,-1.113743958E1,-7.818541260E0,1.372562573E1
1.443538321E1,2.333198090E0,-8.746761017E0,-5.391937408E0,1.053672770E1
1.444531721E1,1.357377319E0,-8.052654419E0,-4.326004028E0,9.241321725E0
1.445525021E1,8.137078857E-1,-7.546856232E0,-4.742438049E0,8.950300451E0
1.446518421E1,1.066083069E0,-7.893086243E0,-5.432952118E0,9.641281671E0
1.447511612E1,1.321002960E0,-9.256451111E0,-5.197491760E0,1.069770333E1
1.448505013E1,1.971999207E0,-1.074959610E1,-4.552183685E0,1.183912892E1
1.449498413E1,2.135309601E0,-1.163994461E1,-3.448229370E0,1.232631914E1
1.450491712E1,2.093396759E0,-1.183394119E1,-2.581082611E0,1.229172330E1
1.451485112E1,2.201472015E0,-1.176253967E1,-2.407743073E0,1.220659843E1
1.452478413E1,2.096989288E0,-1.150911667E1,-2.636916504E0,1.199209987E1
1.453471813E1,1.796564026E0,-1.115659973E1,-3.103196869E0,1.171866847E1
1.454465112E1,1.742676086E0,-1.076187057E1,-3.547922058E0,1.146483882E1
1.455458512E1,1.875150604E0,-1.025726990E1,-3.880979462E0,1.112608544E1
1.456451913E1,9.557624817E-1,-9.444909210E0,-3.687881012E0,1.018431432E1
1.457445213E1,2.061213684E-1,-8.444689178E0,-3.314557343E0,9.074224579E0
1.458438612E1,-2.811154175E-1,-7.467072144E0,-3.109932861E0,8.093693513E0
1.459431913E1,-4.688250732E-1,-6.632557526E0,-2.939138031E0,7.269741993E0
1.460425313E1,-4.689747620E-1,-6.115832062E0,-2.605332184E0,6.664164983E0
1.461418612E1,-6.246510315E-1,-5.643115082E0,-2.209405518E0,6.092323816E0
1.462412012E1,-6.688092041E-1,-5.076842651E0,-1.942061462E0,5.476608420E0
1.463405413E1,-5.060975647E-1,-4.654870148E0,-1.895657959E0,5.051481954E0
1.464398713E1,-2.974314880E-1,-4.472399597E0,-2.011666718E0,4.913005865E0
1.465392112E1,-2.201921082E-1,-4.622387695E0,-2.041305084E0,5.057853202E0
1.466385412E1,-1.366658020E-1,-5.046904907E0,-1.917662201E0,5.400680976E0
1.467378813E1,5.852828979E-2,-5.675747223E0,-1.600172424E0,5.897294624E0
1.468372113E1,3.929328918E-1,-6.350693665E0,-1.373094635E0,6.509308347E0
1.469365512E1,8.497828674E-1,-6.910230103E0,-1.395997009E0,7.100860416E0
1.470358912E1,1.062789917E0,-7.331454163E0,-1.309177551E0,7.522877668E0
1.471352213E1,1.284179535E0,-7.509434052E0,-1.028062134E0,7.687498202E0
1.472345613E1,1.480271759E0,-7.342830505E0,-6.917115784E-1,7.522421766E0
1.473338912E1,1.673070831E0,-6.976841583E0,-3.109034729E-1,7.181374900E0
1.474332312E1,1.634002075E0,-6.752458191E0,1.306782532E-1,6.948577639E0
1.475325613E1,1.263672180E0,-6.918912048E0,7.532336426E-1,7.073582701E0
1.476319012E1,4.634362793E-1,-7.427404633E0,1.284628601E0,7.551912566E0
1.477312412E1,-4.888833618E-1,-8.154143372E0,1.209933929E0,8.257905375E0
1.478305713E1,-1.026116180E0,-8.990005188E0,4.453239441E-1,9.059327851E0
1.479299113E1,-1.238973541E0,-9.626182251E0,-7.536827087E-1,9.734807537E0
1.480292412E1,-9.189390564E-1,-1.004007156E1,-2.514920197E0,1.039097250E1
1.481285812E1,-4.742138672E-1,-9.911788330E0,-3.596570892E0,1.055479743E1
1.482279113E1,1.122665405E-2,-9.290131073E0,-3.729644165E0,1.001083947E1
1.483272513E1,8.653504944E-1,-8.854536896E0,-3.664828949E0,9.621986611E0
1.484265912E1,1.921404419E0,-9.445807343E0,-3.225342865E0,1.016454170E1
1.485259212E1,2.554288330E0,-1.168036057E1,-2.405497742E0,1.219596783E1
1.486252613E1,1.914818115E0,-1.414573380E1,-1.302291870E0,1.433402515E1
1.487245913E1,9.804611206E-1,-1.480316666E1,-1.556762695E-1,1.483641743E1
1.488239312E1,1.335223389E-1,-1.401161270E1,7.470964050E-1,1.403215136E1
1.489232613E1,1.683998108E-1,-1.307426193E1,1.063089294E0,1.311849238E1
1.490226013E1,-3.927832031E-1,-1.261142441E1,1.100212097E0,1.266541633E1
1.491219312E1,-8.898994446E-1,-1.238749008E1,1.752854919E-1,1.242065041E1
1.492212712E1,-1.124311981E0,-1.229198868E1,-1.301393738E0,1.241171579E1
1.493206113E1,-4.016148376E-1,-1.190130112E1,-3.775748291E0,1.249233917E1
1.494199413E1,1.156045990E0,-1.272937912E1,-6.289920044E0,1.424558280E1
1.495192812E1,3.122357025E0,-1.451681213E1,-6.776109009E0,1.632184430E1
1.496186112E1,4.662204895E0,-1.582643875E1,-6.377637634E0,1.768860028E1
1.497179513E1,4.950205994E0,-1.623913055E1,-5.926026764E0,1.798142635E1
1.498172813E1,3.969295807E0,-1.501033585E1,-4.638254700E0,1.620428641E1
1.499166212E1,2.814447327E0,-1.157991943E1,-3.290158081E0,1.236287944E1
1.500159612E1,2.327360229E0,-7.895930328E0,-2.782713318E0,8.689408196E0
1.501152913E1,1.632205811E0,-6.076912994E0,-2.934347992E0,6.942864358E0
1.502146313E1,1.558109894E0,-6.233188019E0,-3.045417023E0,7.110197196E0
1.503139612E1,8.987310791E-1,-7.102280731E0,-3.632945251E0,8.027976105E0
1.504133012E1,2.939886475E-1,-8.131540375E0,-4.747377777E0,9.420508158E0
1.505126313E1,-1.046324158E-1,-9.136700134E0,-5.520070953E0,1.067527145E1
1.506119713E1,-3.637435913E-1,-9.637259216E0,-4.696483612E0,1.072688365E1
1.507113112E1,-3.794609070E-1,-9.851912842E0,-4.324058075E0,1.076576312E1
1.508106413E1,-8.981323242E-4,-9.819430389E0,-4.853806458E0,1.095356796E1
1.509099813E1,7.276368713E-1,-9.618548126E0,-5.121449890E0,1.092131734E1
1.510093112E1,1.397643585E0,-8.709937592E0,-4.868176575E0,1.007549322E1
1.511086512E1,2.296823730E0,-7.620353394E0,-4.561913452E0,9.173670990E0
1.512079813E1,2.839295654E0,-7.192692719E0,-4.400549011E0,8.897261374E0
1.513073213E1,2.592009888E0,-7.721243591E0,-3.812422028E0,8.992812662E0
1.514066612E1,2.214794312E0,-8.320597229E0,-3.322041779E0,9.228955177E0
1.515059912E1,2.326462097E0,-8.975335693E0,-2.985691223E0,9.740812532E0
1.516053313E1,2.259401550E0,-8.962911530E0,-2.390229492E0,9.547349134E0
1.517046613E1,1.875599670E0,-8.247399445E0,-1.752555542E0,8.637645666E0
1.518040012E1,1.701661377E0,-7.277117157E0,-1.559906158E0,7.634487067E0
1.519033312E1,1.297651520E0,-6.477629700E0,-1.592238922E0,6.795499303E0
1.520026713E1,7.099736023E-1,-5.921536102E0,-1.720073090E0,6.207036633E0
1.521020013E1,-5.942642212E-2,-5.715414734E0,-1.996548157E0,6.054395232E0
1.522013412E1,-5.420228577E-1,-5.973478088E0,-2.180814972E0,6.382176995E0
1.523006812E1,-2.113604736E-1,-6.456972656E0,-2.470312958E0,6.916618772E0
1.524000113E1,-9.511221313E-1,-6.536008301E0,-2.045496368E0,6.914339680E0
1.524993513E1,-1.308279419E0,-6.571933594E0,-1.647773438E0,6.900511829E0
1.525986812E1,3.287164307E-1,-6.663243713E0,-2.226470032E0,7.033067615E0
1.526980213E1,3.320095825E-1,-6.482419739E0,-1.338067474E0,6.627399233E0
1.527973513E1,-7.315287781E-1,-6.500232697E0,-9.605525208E-1,6.611415931E0
1.528966912E1,-5.545967102E-1,-6.564449158E0,-1.722917175E0,6.809406277E0
1.529960312E1,-9.026229858E-1,-6.306834869E0,-1.574126587E0,6.562680004E0
1.530953613E1,-1.274599457E0,-6.524332581E0,-1.312470703E0,6.775994299E0
1.531947013E1,-1.145268402E0,-7.143894196E0,-1.035845947E0,7.308887796E0
1.532940312E1,-5.542973328E-1,-7.531887360E0,-1.082399139E0,7.629427280E0
1.533933712E1,-3.174897766E-1,-8.070018311E0,-1.025367737E0,8.141091713E0
1.534927013E1,1.610650635E-1,-8.697363739E0,-1.240919495E0,8.786919776E0
1.535920413E1,2.721340942E-1,-9.221873016E0,-1.717528381E0,9.384396765E0
1.536913812E1,1.416055298E-1,-9.634115753E0,-1.943708038E0,9.829254265E0
1.537907112E1,3.724255371E-1,-9.956545258E0,-2.935395813E0,1.038691691E1
1.538900513E1,2.773731995E-1,-1.079794556E1,-3.319796448E0,1.130015985E1
1.539893812E1,1.247356110E0,-1.095122681E1,-3.208877106E0,1.147964103E1
1.540887212E1,8.689430237E-1,-1.153186935E1,-2.237996063E0,1.177912132E1
1.541880513E1,1.245110779E0,-1.176508438E1,-2.082918549E0,1.201274577E1
1.542873913E1,8.836125183E-1,-1.241638000E1,-1.073268127E0,1.249396526E1
1.543867312E1,6.885681152E-1,-1.340567276E1,-5.742059326E-1,1.343562059E1
1.544860612E1,7.881111145E-1,-1.373094635E1,-1.070274353E-1,1.375396167E1
1.545854013E1,1.347946930E0,-1.358889175E1,1.237925720E-1,1.365614384E1
1.546847313E1,1.205742645E0,-1.354503296E1,3.463796997E-1,1.360300379E1
1.547840746E1,-1.167572021E-2,-1.337408844E1,-4.481680298E-1,1.338160052E1
1.548834046E1,-6.280938721E-1,-1.276096344E1,-1.456471252E0,1.285916009E1
1.549827446E1,-7.447013855E-1,-1.289807831E1,-3.137774963E0,1.329513580E1
1.550820746E1,-1.664538574E0,-1.330089066E1,-5.547763367E0,1.450731055E1
1.551814146E1,-2.499651947E0,-1.297157547E1,-8.124804382E0,1.550878707E1
1.552807546E1,-2.464026031E0,-1.272309219E1,-9.923763428E0,1.632267073E1
1.553800846E1,-1.392554169E0,-1.195803314E1,-1.005953110E1,1.568846486E1
1.554794246E1,-1.583706665E-1,-1.019784348E1,-8.880732422E0,1.352362752E1
1.555787546E1,8.649014282E-1,-8.926686859E0,-6.411916351E0,1.102481129E1
1.556780946E1,2.612517242E0,-8.467741241E0,-4.209246826E0,9.810486579E0
1.557774246E1,1.951192474E0,-8.199798431E0,-4.225113831E0,9.428437478E0
1.558767646E1,1.557062073E0,-8.521778870E0,-4.695435791E0,9.853541225E0
1.559761046E1,2.485581207E0,-9.562714233E0,-4.984035645E0,1.106635571E1
1.560754346E1,3.396886139E0,-1.056173676E1,-4.488865356E0,1.196825095E1
1.561747746E1,3.277284851E0,-1.108145599E1,-3.626808014E0,1.211168854E1
1.562741046E1,2.828967133E0,-1.136062546E1,-3.091670837E0,1.210889319E1
1.563734446E1,2.259551239E0,-1.157048904E1,-3.111130371E0,1.219265848E1
1.564727746E1,1.891466675E0,-1.151974457E1,-3.275189209E0,1.212472785E1
1.565721146E1,9.642947388E-1,-1.145328278E1,-3.587140503E0,1.204056177E1
1.566714546E1,1.818717957E-1,-1.111768066E1,-3.544479218E0,1.167044273E1
1.567707846E1,-3.004252625E-1,-1.046668442E1,-3.872896271E0,1.116427622E1
1.568701246E1,-7.547305298E-1,-9.631271667E0,-3.979923706E0,1.044848337E1
1.569694546E1,-9.524693298E-1,-8.697214050E0,-3.746409302E0,9.517579142E0
1.570687946E1,-7.503895569E-1,-7.842790833E0,-3.512894897E0,8.626290228E0
1.571681246E1,-4.478686523E-1,-7.049440613E0,-3.265459442E0,7.781929366E0
1.572674646E1,-3.291654968E-1,-6.125262451E0,-2.937042389E0,6.800985812E0
1.573668046E1,1.154100037E-1,-5.121000824E0,-2.526296539E0,5.711404653E0
1.574661346E1,5.011578369E-1,-4.421206055E0,-2.348765717E0,5.031393698E0
1.575654746E1,6.637197876E-1,-4.197271729E0,-2.348915405E0,4.855411157E0
1.576648046E1,6.572831726E-1,-4.191882935E0,-2.345921631E0,4.848427787E0
1.577641446E1,4.146377563E-1,-4.394112396E0,-2.106419678E0,4.890516545E0
1.578634746E1,5.044509888E-2,-4.865332489E0,-1.752405853E0,5.171550175E0
1.579628146E1,-2.568658447E-1,-5.464536438E0,-1.484612732E0,5.668440130E0
1.580621446E1,-2.315684509E-1,-6.198909302E0,-1.352287903E0,6.348919833E0
1.581614846E1,3.143463135E-2,-6.809788971E0,-1.238374786E0,6.921545064E0
1.582608246E1,5.439688110E-1,-7.077731781E0,-1.318009186E0,7.219926415E0
1.583601546E1,1.075513458E0,-6.913672943E0,-1.396745453E0,7.134879160E0
1.584594946E1,1.326840820E0,-6.560557251E0,-1.068627777E0,6.778154862E0
1.585588246E1,1.476978607E0,-6.262976074E0,-3.746708679E-1,6.445674004E0
1.586581646E1,1.358574829E0,-6.220763855E0,2.689906311E-1,6.373067116E0
1.587574946E1,9.330097961E-1,-6.635251923E0,7.147636414E-1,6.738543049E0
1.588568346E1,4.846920776E-1,-7.552694092E0,9.077124023E-1,7.622470483E0
1.589561746E1,-9.475296021E-2,-8.497080231E0,3.121009827E-1,8.503338027E0
1.590555046E1,-6.789880371E-1,-9.068142700E0,-5.954617310E-1,9.113002330E0
1.591548446E1,-6.801855469E-1,-9.404642944E0,-1.772015076E0,9.594269056E0
1.592541746E1,-2.389031982E-1,-9.445058899E0,-3.211571503E0,9.978998139E0
1.593535146E1,2.897973633E-1,-9.245374146E0,-3.569776611E0,9.914848998E0
1.594528446E1,8.351133728E-1,-8.850794678E0,-3.730542297E0,9.641106088E0
1.595521846E1,1.731299744E0,-8.917855225E0,-3.763473816E0,9.833070516E0
1.596515146E1,2.764301605E0,-1.039902512E1,-3.331472168E0,1.126409311E1
1.597508546E1,2.685864716E0,-1.282158737E1,-2.429148560E0,1.332320287E1
1.598501946E1,1.722767487E0,-1.455168961E1,-1.135089569E0,1.469721152E1
1.599495246E1,7.491920471E-1,-1.483924164E1,8.666976929E-2,1.485839469E1
1.600488646E1,1.071771240E-1,-1.378902557E1,1.043629761E0,1.382887835E1
1.601481946E1,1.278341675E-1,-1.283640656E1,1.249601440E0,1.289771990E1
1.602475346E1,3.463796997E-1,-1.241563156E1,6.107299805E-2,1.242061254E1
1.603468646E1,3.528163147E-1,-1.195488968E1,-1.813179474E0,1.209675520E1
1.604462046E1,-7.035369873E-3,-1.224348953E1,-3.392395477E0,1.270477991E1
1.605455446E1,6.078858948E-1,-1.330807571E1,-5.397924957E0,1.437400425E1
1.606448746E1,1.892813873E0,-1.491214005E1,-7.303312683E0,1.671206275E1
1.607442146E1,2.735261993E0,-1.618688919E1,-7.278015289E0,1.795735355E1
1.608435446E1,4.085005188E0,-1.601968689E1,-6.597979431E0,1.780030809E1
1.609428846E1,5.771997070E0,-1.542407547E1,-5.929918671E0,1.750377073E1
1.610422146E1,4.834197235E0,-1.401281021E1,-4.556374969E0,1.550770343E1
1.611415546E1,2.671644287E0,-1.095736404E1,-3.800746307E0,1.190156219E1
1.612408946E1,8.893006897E-1,-7.642507324E0,-3.783532104E0,8.574024090E0
1.613402246E1,-7.259902954E-2,-5.886808319E0,-3.755540314E0,6.983112906E0
1.614395646E1,-3.802093506E-2,-5.217999115E0,-3.454815674E0,6.258171594E0
1.615388946E1,-3.335064697E-1,-5.598956909E0,-3.764222260E0,6.754917783E0
1.616382346E1,-7.882608032E-1,-6.648574219E0,-4.878056030E0,8.283738581E0
1.617375646E1,-9.469308472E-1,-7.724237366E0,-5.726491699E0,9.661947428E0
1.618369046E1,1.528321838E-1,-8.708440704E0,-5.531447296E0,1.031781015E1
1.619362346E1,8.497828674E-1,-9.496701508E0,-4.903952179E0,1.072185699E1
1.620355746E1,1.328337708E0,-9.932145996E0,-4.706812134E0,1.107095685E1
1.621349146E1,2.256856842E0,-9.820328522E0,-4.831203461E0,1.117464908E1
1.622342446E1,3.336561584E0,-9.368717651E0,-4.858746185E0,1.106855583E1
1.623335846E1,3.051853638E0,-8.956474915E0,-4.477039948E0,1.046786226E1
1.624329146E1,2.636168060E0,-8.602161713E0,-4.485123138E0,1.005300441E1
1.625322546E1,1.931583252E0,-8.415948944E0,-4.191882935E0,9.598494310E0
