"Time (s)","Acceleration x (m/s^2)","Acceleration y (m/s^2)","Acceleration z (m/s^2)","Absolute acceleration (m/s^2)"
2.466458332E-3,-2.497556305E0,6.549929352E0,5.272485809E0,8.771457611E0
1.249945833E-2,-3.006497955E0,6.726711731E0,5.509592743E0,9.200178958E0
2.253345833E-2,-3.176095276E0,6.817872162E0,5.805227966E0,9.501138551E0
3.256645833E-2,-2.466271362E0,6.517446899E0,6.470744019E0,9.509476151E0
4.260045833E-2,-2.079924774E0,6.553222504E0,7.141349487E0,9.913106715E0
5.263345833E-2,-2.019151154E0,6.678362274E0,7.576494598E0,1.029955166E1
6.266745833E-2,-1.987716522E0,6.669979706E0,7.741451569E0,1.041007774E1
7.270045833E-2,-2.142344971E0,6.539451141E0,7.653883667E0,1.029252148E1
8.273445833E-2,-2.393522644E0,6.412664795E0,7.512577515E0,1.016317083E1
9.276745833E-2,-2.484084320E0,6.396947479E0,7.333100739E0,1.004320558E1
1.028014583E-1,-2.113904114E0,6.299799500E0,7.115303650E0,9.735687462E0
1.128344583E-1,-2.247276764E0,6.749165039E0,7.330705719E0,1.021473093E1
1.228684583E-1,-2.563419342E0,6.918912048E0,7.214098206E0,1.031918968E1
1.329014583E-1,-2.402653656E0,6.616989899E0,7.028184814E0,9.947496253E0
1.429354583E-1,-2.191293182E0,6.538852386E0,6.954987030E0,9.794396405E0
1.529684583E-1,-2.155517578E0,6.436914368E0,6.624025269E0,9.484610343E0
1.630024583E-1,-2.533780975E0,6.480324097E0,6.336024170E0,9.410624247E0
1.730354583E-1,-2.606230316E0,6.423292694E0,6.267317047E0,9.345072951E0
1.830695000E-1,-2.444267120E0,6.498885498E0,6.433770905E0,9.465905267E0
1.931035000E-1,-2.171683960E0,6.664890289E0,6.769822083E0,9.745125182E0
2.031365000E-1,-1.937570801E0,6.725364532E0,7.033723297E0,9.922599061E0
2.131705000E-1,-1.739083557E0,6.735842743E0,7.019203491E0,9.882570856E0
2.232035000E-1,-1.578018494E0,6.691684570E0,6.812932434E0,9.679092577E0
2.332375000E-1,-1.486408997E0,6.721772003E0,6.600673828E0,9.537322767E0
2.432705000E-1,-1.360221405E0,6.726562042E0,6.326743469E0,9.334051752E0
2.533045000E-1,-1.394200745E0,6.764882355E0,6.251300354E0,9.315910321E0
2.633375000E-1,-1.604663086E0,6.870263214E0,6.191275177E0,9.386551474E0
2.733715000E-1,-1.992207184E0,6.751560059E0,5.785768433E0,9.111946501E0
2.834045000E-1,-2.605781250E0,6.616690521E0,5.524561615E0,9.005080256E0
2.934385000E-1,-2.953657837E0,6.593339081E0,5.754184113E0,9.236170725E0
3.034715000E-1,-3.168461151E0,6.586902466E0,6.076613617E0,9.505349189E0
3.135055000E-1,-2.862647095E0,6.868766327E0,6.403084717E0,9.817035863E0
3.235385000E-1,-1.989961853E0,7.277865601E0,6.829847260E0,1.017713562E1
3.335725000E-1,-1.239123230E0,7.466174011E0,6.749015350E0,1.014043337E1
3.436055000E-1,-9.322613525E-1,7.582781525E0,6.152356110E0,9.809137199E0
3.536395000E-1,-8.560697937E-1,7.545209656E0,5.425916748E0,9.332931844E0
3.636725000E-1,-8.400531006E-1,7.576644287E0,5.028642883E0,9.132276666E0
3.737065000E-1,-8.065228271E-1,7.748037872E0,5.031337280E0,9.273452689E0
3.837395000E-1,-5.695655823E-1,7.770341492E0,4.938829651E0,9.224676155E0
3.937735000E-1,5.134323120E-2,7.818391571E0,4.857249298E0,9.204496381E0
4.038065000E-1,7.072792053E-1,7.939340057E0,4.747377777E0,9.277443623E0
4.138405000E-1,1.117725677E0,8.188721466E0,4.921615448E0,9.619083561E0
4.238745000E-1,1.310524750E0,8.246052246E0,5.466033325E0,9.979597841E0
4.339075000E-1,1.308578796E0,8.187523956E0,5.861061859E0,1.015381569E1
4.439415000E-1,1.523382111E0,8.183781738E0,5.975573730E0,1.024707070E1
4.539745000E-1,2.038460999E0,8.274343414E0,6.049220581E0,1.045050964E1
4.640085000E-1,2.592908020E0,8.438851318E0,5.802084503E0,1.056416434E1
4.740415000E-1,2.774630127E0,8.553363190E0,5.509293365E0,1.054565823E1
4.840755000E-1,2.948568420E0,8.558901672E0,5.167853394E0,1.042379788E1
4.941085000E-1,3.151696014E0,8.569978638E0,4.926854553E0,1.037552974E1
5.041425000E-1,3.509601746E0,8.717571716E0,4.766088867E0,1.053702824E1
5.141755000E-1,4.148772583E0,8.705297241E0,4.297263794E0,1.055750871E1
5.242095000E-1,4.347708893E0,8.661139069E0,3.599564667E0,1.033802536E1
5.342425000E-1,4.335883484E0,8.698561249E0,3.146307220E0,1.021587502E1
5.442765000E-1,4.731510773E0,8.579708405E0,2.929258575E0,1.022639459E1
5.543095000E-1,4.954097900E0,8.300538940E0,2.940185852E0,1.010379758E1
5.643435000E-1,5.088668060E0,8.243208160E0,3.042273560E0,1.015383926E1
5.743765000E-1,4.730462952E0,7.431146851E0,4.286186829E0,9.796459604E0
5.844105000E-1,4.759352875E0,7.808811493E0,4.555177460E0,1.021658546E1
5.944435000E-1,5.540428619E0,8.500822449E0,4.800068207E0,1.122501610E1
6.044775000E-1,6.412215729E0,8.524772644E0,4.607568512E0,1.161972232E1
6.145105000E-1,6.784042511E0,8.528365173E0,3.976331177E0,1.160032133E1
6.245445000E-1,6.584806824E0,8.410260773E0,3.781735840E0,1.133109408E1
6.345775000E-1,6.715335388E0,8.211923218E0,3.615581360E0,1.120731194E1
6.446115000E-1,6.778204651E0,8.080795898E0,3.081342316E0,1.098808405E1
6.546455000E-1,6.220614166E0,7.852520599E0,2.452649689E0,1.031375833E1
6.646785000E-1,5.309907990E0,7.862100677E0,2.263742523E0,9.753577812E0
6.747125000E-1,4.536765747E0,7.718549194E0,2.272274780E0,9.236962584E0
6.847455000E-1,4.039499817E0,7.524402924E0,2.412383423E0,8.874333322E0
6.947795000E-1,3.979923706E0,7.279362488E0,2.725681915E0,8.732597142E0
7.048125000E-1,4.191882935E0,7.126530304E0,3.107088776E0,8.832514782E0
7.148465000E-1,4.451892242E0,7.349117432E0,3.423830109E0,9.249404531E0
7.248795000E-1,5.053191833E0,7.979756012E0,3.308719482E0,1.000794076E1
7.349135000E-1,5.943390656E0,8.682843933E0,2.936892700E0,1.092433110E1
7.449465000E-1,6.570586395E0,9.078620911E0,2.430196381E0,1.146733699E1
7.549805000E-1,6.255491638E0,9.076974335E0,2.026934967E0,1.120852818E1
7.650135000E-1,5.245841217E0,9.013356628E0,1.829794922E0,1.058808752E1
7.750475000E-1,5.061873779E0,9.062903595E0,1.583107910E0,1.050071514E1
7.850805000E-1,5.496420135E0,9.263187103E0,1.645677795E0,1.089612431E1
7.951145000E-1,5.636828156E0,9.522298279E0,1.879491577E0,1.122410285E1
8.051475000E-1,5.531596985E0,9.389075317E0,1.923050995E0,1.106577723E1
8.151815000E-1,4.972359924E0,9.002429352E0,2.147434387E0,1.050616828E1
8.252145000E-1,4.492308197E0,8.896599426E0,2.144141235E0,1.019449145E1
8.352485000E-1,4.469405823E0,9.106163635E0,1.917662201E0,1.032352812E1
8.452815000E-1,4.914729767E0,9.300309906E0,1.465302887E0,1.062061418E1
8.553155000E-1,4.739294586E0,9.008716278E0,1.068927155E0,1.023525708E1
8.653485000E-1,4.018393707E0,8.781339111E0,1.043779449E0,9.713335169E0
8.753825000E-1,3.323987732E0,8.842262421E0,1.068777466E0,9.506670523E0
8.854165000E-1,3.388653259E0,8.158334656E0,1.084195404E0,8.900386224E0
8.954495000E-1,3.826343079E0,7.848029938E0,7.469467163E-1,8.763013446E0
9.054835000E-1,3.164569244E0,8.244255981E0,3.686833191E-1,8.838449105E0
9.155165000E-1,2.532882843E0,8.569080505E0,1.167572021E-2,8.935590217E0
9.255505000E-1,3.243155823E0,8.550519104E0,-1.553768921E-1,9.146233029E0
9.355835000E-1,3.727847900E0,8.587492218E0,1.113684082E-1,9.362386207E0
9.456175000E-1,3.965254211E0,8.359965363E0,4.281097412E-2,9.252788477E0
9.556505000E-1,4.353846130E0,8.185727692E0,1.199006653E-1,9.272350842E0
9.656845000E-1,4.467908936E0,8.147108002E0,1.296304321E-1,9.292705908E0
9.757175000E-1,4.477339325E0,8.326285400E0,3.571572876E-1,9.460505131E0
9.857515000E-1,4.574487305E0,8.412206726E0,2.288740540E-1,9.578284786E0
9.957845000E-1,4.517006836E0,8.394094391E0,-7.649093628E-2,9.532576895E0
1.005818500E0,4.300257568E0,8.499325562E0,-7.619155884E-1,9.555692833E0
1.015851500E0,4.093986511E0,8.185578003E0,-2.140848083E0,9.399342706E0
1.025885500E0,3.570225677E0,7.336393890E0,-2.046095123E0,8.411640266E0
1.035918500E0,2.786904602E0,7.515870667E0,-2.633323975E0,8.437389661E0
1.045952500E0,1.960772552E0,7.565717010E0,-2.956352234E0,8.356118801E0
1.055985500E0,8.023315430E-1,7.597151642E0,-2.706671448E0,8.104722037E0
1.066019500E0,-2.927911377E-1,7.973469086E0,-1.998045044E0,8.225212454E0
1.076052500E0,-9.151968384E-1,8.060587921E0,-9.780661011E-1,8.171124536E0
1.086086500E0,-1.204096069E0,7.836204529E0,-5.890251160E-1,7.950025116E0
1.096120500E0,-1.285227356E0,7.374115448E0,-1.411414948E0,7.617183216E0
1.106153500E0,-1.224603424E0,6.965315552E0,-2.570005646E0,7.524639746E0
1.116187500E0,-1.080752563E0,6.511609039E0,-3.655099182E0,7.545119510E0
1.126220500E0,1.191522217E-1,5.990392914E0,-7.064110107E0,9.262864358E0
1.136254500E0,1.438508606E0,5.825735321E0,-1.231983078E1,1.370352982E1
1.146287500E0,1.863175507E0,6.180647278E0,-1.329340622E1,1.477790488E1
1.156321500E0,3.272644501E0,6.363417206E0,-1.123922791E1,1.332379542E1
1.166354500E0,5.597310333E0,6.256988525E0,-1.107352249E1,1.389613935E1
1.176388500E0,7.311994629E0,5.718707886E0,-1.091934311E1,1.433181563E1
1.186421833E0,6.647975464E0,5.683081970E0,-9.446406097E0,1.287352270E1
1.196455833E0,4.018244019E0,6.777007141E0,-6.810238037E0,1.041409876E1
1.206488833E0,2.013612671E0,7.852370911E0,-5.160219269E0,9.609486345E0
1.216522833E0,1.455124054E0,7.804470520E0,-4.652026062E0,9.201548380E0
1.226555833E0,1.459315338E0,7.297325134E0,-4.962929535E0,8.944899381E0
1.236589833E0,1.618135071E0,6.919660492E0,-5.825136566E0,9.188703850E0
1.246622833E0,1.199755096E0,6.663992157E0,-6.737788696E0,9.552277230E0
1.256656833E0,3.462300110E-1,6.541696472E0,-7.083419952E0,9.648238501E0
1.266689833E0,-8.289761353E-1,6.328689423E0,-6.134992218E0,8.853114749E0
1.276723833E0,-1.460213470E0,5.608836365E0,-4.891528015E0,7.584083008E0
1.286756833E0,-1.055904236E0,4.641547852E0,-4.739444275E0,6.717233973E0
1.296791833E0,3.983216858E-1,4.354145508E0,-5.996679840E0,7.421415793E0
1.306824833E0,1.005010071E0,4.477938080E0,-7.702682190E0,8.966230401E0
1.316858833E0,7.006929016E-1,4.599934387E0,-8.908873901E0,1.005079107E1
1.326891833E0,-5.209167480E-2,5.273234253E0,-9.172326050E0,1.058023054E1
1.336925833E0,-8.910969543E-1,5.821244659E0,-8.445587311E0,1.029606178E1
1.346958833E0,-1.868713989E0,5.782774658E0,-7.300468597E0,9.498916594E0
1.356992833E0,-2.723436584E0,5.635930023E0,-6.508465576E0,9.030002116E0
1.367025833E0,-3.006048889E0,5.201533356E0,-5.912854156E0,8.429360797E0
1.377059833E0,-2.467917938E0,4.740941162E0,-5.791306915E0,7.880759979E0
1.387092833E0,-1.796264648E0,4.726571045E0,-6.274651794E0,8.058430100E0
1.397126833E0,-1.321751404E0,5.098547516E0,-7.216493225E0,8.934203267E0
1.407159833E0,-1.381626892E0,5.569917297E0,-8.050708466E0,9.886697040E0
1.417193833E0,-2.030677185E0,5.700894928E0,-7.858508148E0,9.918669423E0
1.427226833E0,-2.499352570E0,5.574557648E0,-6.478677521E0,8.904814353E0
1.437260833E0,-2.448458405E0,5.740263062E0,-4.434528351E0,7.655756675E0
1.447293833E0,-2.112257538E0,6.228847046E0,-2.943628693E0,7.205908500E0
1.457327833E0,-1.999691620E0,7.048841858E0,-1.940265198E0,7.579549271E0
1.467360833E0,-1.804796906E0,7.805518341E0,-2.813249817E0,8.491041336E0
1.477394833E0,-1.417402496E0,7.662415924E0,-6.202202454E0,9.959365588E0
1.487427833E0,-1.451980591E0,7.584278412E0,-8.634793854E0,1.158400585E1
1.497461833E0,-1.539249115E0,7.422165527E0,-1.013781830E1,1.265832488E1
1.507495833E0,-1.928739166E0,6.683900757E0,-1.152977371E1,1.346589195E1
1.517528833E0,-2.166594543E0,6.600973206E0,-1.260468842E1,1.439253797E1
1.527562833E0,-2.393672333E0,6.952442322E0,-1.264106277E1,1.462404149E1
1.537595833E0,-3.434607697E0,6.830895081E0,-1.139295822E1,1.372068346E1
1.547629833E0,-3.673061829E0,6.437363434E0,-9.932744751E0,1.239316140E1
1.557662833E0,-3.505859528E0,5.982908478E0,-8.005352783E0,1.059112449E1
1.567696833E0,-3.148851929E0,5.924230499E0,-5.751938782E0,8.837226671E0
1.577729833E0,-3.533102875E0,5.781726837E0,-4.927752686E0,8.378181645E0
1.587763833E0,-3.876488800E0,6.516099701E0,-5.697901154E0,9.484344905E0
1.597796833E0,-3.964954834E0,6.904990997E0,-6.424639893E0,1.023111750E1
1.607830833E0,-3.907324677E0,6.633904724E0,-7.156917114E0,1.051177153E1
1.617863833E0,-3.646117859E0,6.708300018E0,-7.810907135E0,1.092271646E1
1.627897833E0,-3.980672150E0,6.554420013E0,-7.981252899E0,1.106826862E1
1.637930833E0,-4.751868439E0,6.000422058E0,-7.683671722E0,1.084546586E1
1.647964833E0,-5.260660400E0,5.667963409E0,-7.381300507E0,1.069036736E1
1.657997833E0,-5.262007599E0,5.473368073E0,-6.827901306E0,1.021110759E1
1.668031833E0,-4.699028320E0,5.173541565E0,-6.248156891E0,9.374746077E0
1.678064833E0,-3.875141602E0,4.984185333E0,-7.433541870E0,9.752762204E0
1.688098833E0,-3.506607971E0,5.214256897E0,-9.724378052E0,1.157792308E1
1.698131833E0,-4.167483673E0,5.167254639E0,-1.135897888E1,1.315655129E1
1.708165833E0,-4.741988983E0,5.141508179E0,-1.270093826E1,1.449949650E1
1.718198833E0,-5.032834167E0,5.304818573E0,-1.281874329E1,1.475773354E1
1.728232833E0,-5.251379700E0,5.481151886E0,-1.239692047E1,1.453628742E1
1.738266833E0,-5.257816315E0,5.374423828E0,-1.169532944E1,1.390358927E1
1.748299833E0,-5.708978119E0,5.022954712E0,-1.058299255E1,1.303158611E1
1.758333833E0,-5.920488281E0,5.411846008E0,-9.669891357E0,1.256371989E1
1.768366833E0,-5.772296448E0,5.983207855E0,-8.575217743E0,1.194372395E1
1.778400833E0,-5.220543823E0,6.734495544E0,-7.431595917E0,1.130646390E1
1.788433833E0,-4.880900116E0,7.579338684E0,-6.489455109E0,1.110777153E1
1.798467833E0,-5.034929810E0,7.812254333E0,-5.947581940E0,1.103429050E1
1.808500833E0,-5.509592743E0,7.549999695E0,-5.982309723E0,1.109712292E1
1.818534833E0,-5.887257385E0,7.287146301E0,-6.419101410E0,1.135637106E1
1.828567833E0,-6.043382721E0,7.000193024E0,-7.145989838E0,1.168718734E1
1.838601833E0,-5.686524811E0,6.816674652E0,-7.717501373E0,1.176279921E1
1.848634833E0,-5.120402069E0,6.871311035E0,-7.825127563E0,1.160457040E1
1.858668833E0,-5.130431213E0,6.834487610E0,-7.540718994E0,1.139710438E1
1.868701833E0,-5.863756256E0,6.873855743E0,-7.167694702E0,1.153296916E1
1.878735833E0,-6.502927094E0,7.079078979E0,-6.849606171E0,1.180332685E1
1.888768833E0,-6.730004883E0,7.096592560E0,-6.550677795E0,1.177140481E1
1.898802833E0,-6.904242554E0,6.957681427E0,-6.885531464E0,1.197866602E1
1.908835833E0,-6.323150940E0,7.201973419E0,-7.047794037E0,1.189630446E1
1.918869833E0,-5.868396606E0,7.220385132E0,-7.108717346E0,1.170922297E1
1.928902833E0,-5.867947540E0,7.242389374E0,-7.569010162E0,1.200728641E1
1.938936833E0,-6.305637360E0,7.086264038E0,-8.139623566E0,1.249918687E1
1.948969833E0,-7.237749023E0,6.884932709E0,-8.578211517E0,1.316711898E1
1.959003833E0,-8.350984039E0,6.620582428E0,-8.348289642E0,1.353753988E1
1.969036833E0,-9.223070526E0,6.213429108E0,-7.786657562E0,1.357585236E1
1.979070833E0,-8.883576508E0,5.954916687E0,-8.286019135E0,1.352911961E1
1.989103833E0,-8.424481201E0,6.284531250E0,-7.539222107E0,1.293472406E1
1.999137833E0,-7.400310974E0,7.237898712E0,-6.586902466E0,1.226943619E1
2.009171833E0,-2.053579559E0,1.013153137E1,-1.503323822E0,1.044629597E1
2.019204833E0,2.737806702E-1,1.227133163E1,5.831124115E0,1.358905973E1
2.029238833E0,-4.115391998E0,9.851164398E0,7.208709412E0,1.288205662E1
2.039271833E0,-5.500012665E0,9.664951630E0,1.638792114E0,1.124042121E1
2.049305833E0,-3.749552765E0,9.301507416E0,-9.517208862E-1,1.007387506E1
2.059338833E0,-3.518882446E0,7.877668304E0,-1.891466675E0,8.832770673E0
2.069372833E0,-4.244273987E0,7.856711884E0,-2.997816010E0,9.419590443E0
2.079405833E0,-4.645888824E0,7.943082275E0,-3.826193390E0,9.965771162E0
2.089439833E0,-4.539160767E0,8.119565277E0,-4.144431610E0,1.018369452E1
2.099472833E0,-3.776347046E0,8.446635132E0,-3.535797272E0,9.904963625E0
2.109506833E0,-3.649411011E0,8.421038361E0,-2.501597900E0,9.512627389E0
2.119539833E0,-3.542982330E0,8.724607086E0,-2.049238586E0,9.636953429E0
2.129573833E0,-3.405418396E0,9.332193604E0,-1.903142395E0,1.011477448E1
2.139606833E0,-3.366199951E0,9.851014709E0,-2.277513885E0,1.065649391E1
2.149640833E0,-3.174748077E0,1.053509216E1,-2.903811493E0,1.137977651E1
2.159673833E0,-3.453169098E0,9.969418488E0,-4.510121155E0,1.147409581E1
2.169707833E0,-3.270848236E0,9.397757263E0,-5.523663483E0,1.138099943E1
2.179740708E0,-2.534379730E0,9.612859955E0,-5.394781494E0,1.131078355E1
2.189774708E0,-2.260748749E0,9.762548676E0,-5.123994598E0,1.125493946E1
2.199807708E0,-2.642904053E0,9.777068481E0,-4.990023193E0,1.129054212E1
2.209841708E0,-2.638114014E0,9.805808716E0,-4.051175537E0,1.093277428E1
2.219874708E0,-2.091450806E0,8.356672211E0,-4.615651703E0,9.773043413E0
2.229908708E0,-2.172432404E0,6.941365356E0,-5.148543549E0,8.911201728E0
2.239941708E0,-2.070195007E0,7.315886536E0,-4.256548462E0,8.713558858E0
2.249975708E0,-2.298619995E0,8.042026520E0,-3.939507751E0,9.245407820E0
2.260008708E0,-2.550845490E0,7.966882782E0,-3.897145844E0,9.228530744E0
2.270042708E0,-1.963317261E0,7.384443970E0,-3.845353546E0,8.554026613E0
2.280076708E0,-1.316063232E0,6.425088959E0,-4.475243683E0,7.939873839E0
2.290109708E0,-1.621278534E0,6.221063232E0,-4.453688507E0,7.820838391E0
2.300143708E0,-1.046324158E0,6.738387451E0,-3.979624329E0,7.895446123E0
2.310176708E0,-1.335073700E0,6.185287628E0,-5.628744965E0,8.468941770E0
2.320210708E0,-1.676513672E0,6.742429047E0,-6.000272369E0,9.180104359E0
2.330243708E0,-1.620530090E0,6.498137054E0,-5.212760010E0,8.486740827E0
2.340277708E0,-1.240021362E0,6.497089233E0,-4.665348358E0,8.094152012E0
2.350310708E0,-9.211843872E-1,6.295907593E0,-5.328918457E0,8.299662946E0
2.360344708E0,-8.779243469E-1,5.933511200E0,-5.930966492E0,8.435263472E0
2.370377708E0,-3.418890381E-1,6.545139313E0,-5.524711304E0,8.571940954E0
2.380411708E0,-1.383123779E-1,6.877298584E0,-4.623285828E0,8.288011702E0
2.390444708E0,-1.645079041E-1,7.217541046E0,-4.978946228E0,8.769827088E0
2.400478708E0,-6.309379578E-1,7.351811829E0,-6.120472412E0,9.586834849E0
2.410511708E0,-5.694158936E-1,8.195158081E0,-6.350394287E0,1.038327299E1
2.420545708E0,-2.960842896E-1,8.861871643E0,-6.221512299E0,1.083178887E1
2.430578708E0,2.978805542E-2,8.934770050E0,-5.778882751E0,1.064079363E1
2.440612708E0,8.840615845E-1,9.225465546E0,-5.627846832E0,1.084266754E1
2.450645708E0,1.010548553E0,9.124425659E0,-5.707481232E0,1.080979621E1
2.460679708E0,2.308200073E-1,8.662336578E0,-5.931714935E0,1.050117112E1
2.470712708E0,-3.219804382E-1,8.405620422E0,-6.386918335E0,1.056176367E1
2.480746708E0,-9.273216248E-1,8.307873688E0,-6.549031219E0,1.061934558E1
2.490779708E0,-1.414708099E0,8.111931152E0,-6.393504639E0,1.042505288E1
2.500813708E0,-1.346150665E0,8.102051697E0,-6.367458801E0,1.039229979E1
2.510846708E0,-1.117426300E0,8.338559875E0,-6.174060974E0,1.043548040E1
2.520880708E0,-7.282356262E-1,8.713829498E0,-5.898334351E0,1.054758265E1
2.530913708E0,-6.191125488E-1,8.843759308E0,-5.846841431E0,1.061983680E1
2.540947708E0,-7.816744995E-1,8.669821014E0,-5.663921814E0,1.038541389E1
2.550981708E0,-8.184979248E-1,7.842641144E0,-5.175936584E0,9.432246736E0
2.561014708E0,-7.153623962E-1,7.132218475E0,-5.053042145E0,8.770035271E0
2.571048708E0,-4.963677979E-1,6.731501770E0,-5.610183563E0,8.776881945E0
2.581081708E0,-5.553451538E-1,6.654112701E0,-6.343358917E0,9.209985149E0
2.591115708E0,-1.051712952E0,7.127877502E0,-6.717880096E0,9.851022831E0
2.601148708E0,-1.177900543E0,7.234755249E0,-6.425088959E0,9.747353555E0
2.611182708E0,-8.973838806E-1,7.211553497E0,-6.281687164E0,9.605800087E0
2.621215708E0,-3.433859253E-1,7.031328278E0,-6.046226807E0,9.279781778E0
2.631249708E0,5.373825073E-2,6.513405304E0,-5.583239594E0,8.579038455E0
2.641282708E0,5.460644531E-1,6.100264435E0,-4.615352325E0,7.668956229E0
2.651316708E0,1.196761322E0,6.076014862E0,-3.556903381E0,7.141551367E0
2.661349708E0,1.909279633E0,5.776787109E0,-3.997886353E0,7.280090199E0
2.671383708E0,1.471739502E0,5.728737030E0,-5.257966003E0,7.913952970E0
2.681416708E0,-1.047821045E-2,6.252048798E0,-6.129453735E0,8.755479830E0
2.691450708E0,-6.767427063E-1,7.347470856E0,-6.669380951E0,9.946052028E0
2.701483708E0,5.089416504E-3,7.741451569E0,-6.638694763E0,1.019815505E1
2.711517708E0,1.327738953E-1,7.470814362E0,-6.394702148E0,9.834780714E0
2.721550708E0,-7.200027466E-2,7.323520660E0,-6.337820435E0,9.685406897E0
2.731584708E0,2.008822632E-1,7.433990936E0,-6.417903900E0,9.823139284E0
2.741617708E0,-2.556683350E-1,8.287516022E0,-5.562432861E0,9.984435259E0
2.751651708E0,-7.695497131E-1,8.793164520E0,-4.685256958E0,9.993176762E0
2.761684708E0,-6.830296326E-1,8.588090973E0,-4.753515015E0,9.839600654E0
2.771718708E0,-3.017724609E-1,8.587641907E0,-5.656287689E0,1.028748028E1
2.781751708E0,1.498384094E-1,8.905281372E0,-6.407725067E0,1.097202937E1
2.791785708E0,1.576222229E-1,8.458909607E0,-6.230493622E0,1.050699992E1
2.801818708E0,-6.012995911E-1,8.021519165E0,-5.227429504E0,9.593349266E0
2.811852708E0,-7.223977661E-1,8.727750549E0,-4.980293427E0,1.007466182E1
2.821885708E0,-8.140072632E-1,8.572373657E0,-5.045557709E0,9.980273069E0
2.831919708E0,-8.267308044E-1,8.058192902E0,-4.665947113E0,9.348209407E0
2.841953708E0,-3.213816833E-1,7.997119904E0,-4.430786133E0,9.148173517E0
2.851986708E0,-9.460327148E-2,8.120014343E0,-4.558320923E0,9.312457911E0
2.862020708E0,-2.742297363E-1,8.121660919E0,-4.420906677E0,9.250999615E0
2.872053708E0,-6.572831726E-1,8.867410126E0,-3.867058411E0,9.696242791E0
2.882087708E0,-3.956272888E-1,9.895023193E0,-3.679648132E0,1.056446001E1
2.892120708E0,5.219645691E-1,9.678872681E0,-3.655997314E0,1.035950480E1
2.902154708E0,1.186732178E0,8.877289581E0,-3.387006683E0,9.575302494E0
2.912187708E0,8.529263306E-1,8.363557892E0,-3.451672211E0,9.087938434E0
2.922221708E0,7.357200623E-1,8.088430023E0,-3.921545105E0,9.019007720E0
2.932254708E0,5.824388123E-1,7.990982666E0,-4.526736603E0,9.202520481E0
2.942288708E0,-6.182144165E-2,8.188871155E0,-5.359454956E0,9.786990861E0
2.952321708E0,-2.225871277E-1,8.566086731E0,-6.168522491E0,1.055831694E1
2.962355708E0,-2.146536255E-1,8.826545105E0,-6.198011169E0,1.078746111E1
2.972388708E0,1.088237000E-1,8.985364838E0,-5.560935974E0,1.056752728E1
2.982422708E0,9.639953613E-1,9.531429291E0,-4.551285553E0,1.060620722E1
2.992455708E0,1.698667603E0,9.271869049E0,-4.554129639E0,1.046867346E1
3.002489708E0,1.488205261E0,8.456514587E0,-3.827989655E0,9.401111565E0
3.012522708E0,4.138893127E-1,8.312514038E0,-3.584146729E0,9.061749377E0
3.022556708E0,-8.394543457E-1,8.193661194E0,-4.509672089E0,9.390309351E0
3.032589708E0,-1.568139038E0,8.053253174E0,-5.751190338E0,1.001948786E1
3.042623708E0,-1.947450256E0,7.986641693E0,-6.368656311E0,1.039898030E1
3.052656708E0,-1.912273407E0,7.430548096E0,-6.120173035E0,9.814598951E0
3.062690708E0,-1.743125153E0,7.036567383E0,-5.049898682E0,8.834774617E0
3.072723708E0,-6.152206421E-1,6.738537140E0,-4.297114105E0,8.015707633E0
3.082757708E0,2.124082947E-1,6.597081299E0,-3.750301208E0,7.591532000E0
3.092790708E0,-2.239343262E-1,7.314689026E0,-3.124901733E0,7.957376010E0
3.102824708E0,-2.926414490E-1,8.181386719E0,-2.608176270E0,8.592049296E0
3.112857708E0,-5.288502502E-1,9.627828827E0,-1.748513947E0,9.799595478E0
3.122891708E0,-1.247056732E0,1.128608047E1,-7.129673767E-1,1.137712993E1
3.132925708E0,-1.399589539E0,1.152468430E1,-8.178991699E-1,1.163813379E1
3.142958708E0,-1.408720551E0,1.150522476E1,-1.961371307E0,1.175592054E1
3.152991708E0,-2.474354553E0,1.067100952E1,-2.530188446E0,1.124254100E1
3.163025708E0,-2.360740814E0,1.022314087E1,-2.609074402E0,1.081170549E1
3.173059708E0,-2.233505402E0,1.064032333E1,-2.674338684E0,1.119629914E1
3.183092500E0,-2.175875244E0,1.075633209E1,-2.730471954E0,1.130878377E1
3.193126500E0,-1.606010284E0,1.151869675E1,-2.495011597E0,1.189473525E1
3.203159500E0,-1.168470154E0,1.225636276E1,-1.811832275E0,1.244453643E1
3.213193500E0,-3.703298950E-1,1.142409348E1,-1.603615265E0,1.154203786E1
3.223226500E0,2.365081787E-1,1.080992065E1,-1.798360291E0,1.096104103E1
3.233260500E0,1.351689148E-1,1.062640228E1,-2.115850067E0,1.083584411E1
3.243293500E0,-8.382568359E-1,1.046339127E1,-1.942809906E0,1.067519281E1
3.253327500E0,-1.711840210E0,1.047850983E1,-1.687291260E0,1.075065193E1
3.263360500E0,-1.601070557E0,1.040022263E1,-1.771715698E0,1.067084974E1
3.273394500E0,-1.404529266E0,1.004486160E1,-2.380948792E0,1.041829469E1
3.283427500E0,-1.730401611E0,9.429940338E0,-3.027903442E0,1.005416649E1
3.293461500E0,-2.008972321E0,9.577982483E0,-3.319497070E0,1.033405917E1
3.303494500E0,-1.893412628E0,9.819430389E0,-2.824027405E0,1.039140776E1
3.313528500E0,-1.417103119E0,9.249266052E0,-1.792073364E0,9.527257249E0
3.323561500E0,-7.848179626E-1,8.515192566E0,-1.440903625E0,8.671830656E0
3.333595500E0,-4.828958130E-1,8.094866638E0,-1.873953094E0,8.322965485E0
3.343628500E0,-2.339634705E-1,8.190667419E0,-2.005230103E0,8.435799870E0
3.353662500E0,-3.263214111E-2,7.830965424E0,-2.010469208E0,8.084990461E0
3.363695500E0,2.143542480E-1,7.731422424E0,-2.346071320E0,8.082381523E0
3.373729500E0,7.409591675E-2,7.911348267E0,-3.000510406E0,8.461559212E0
3.383762500E0,-5.007087708E-1,8.282875671E0,-3.272195435E0,8.919865561E0
3.393796500E0,-9.936337280E-1,8.691376190E0,-3.126099243E0,9.289769886E0
3.403829500E0,-1.377435608E0,8.807384949E0,-2.944077759E0,9.388021748E0
3.413863500E0,-1.726210327E0,8.713829498E0,-2.780168610E0,9.308059095E0
3.423896500E0,-1.740281067E0,8.540190582E0,-2.409239960E0,9.042558850E0
3.433930500E0,-1.576371918E0,8.541088715E0,-2.121089172E0,8.940590816E0
3.443963500E0,-1.370998993E0,8.887318726E0,-2.007176056E0,9.213730411E0
3.453997500E0,-1.070274353E0,9.364226990E0,-2.152673492E0,9.667897262E0
3.464030500E0,-8.511300659E-1,9.635313263E0,-2.068099365E0,9.891446762E0
3.474064500E0,-1.066232758E0,9.762249298E0,-2.084415436E0,1.003908120E1
3.484097500E0,-1.487456818E0,9.315727844E0,-2.464924164E0,9.750444307E0
3.494131500E0,-1.636846161E0,8.991502075E0,-2.902913361E0,9.589227336E0
3.504165500E0,-1.604663086E0,9.061406708E0,-3.770658875E0,9.944943614E0
3.514198500E0,-1.299896851E0,9.385183411E0,-4.433181152E0,1.046061636E1
3.524232500E0,-1.216520233E0,9.848919067E0,-3.841461639E0,1.064133243E1
3.534265500E0,-1.632654877E0,9.550739136E0,-3.144361267E0,1.018671624E1
3.544299500E0,-2.068398743E0,9.792336731E0,-2.817890167E0,1.039753033E1
3.554332500E0,-1.778900757E0,9.685309296E0,-2.608625336E0,1.018698337E1
3.564366500E0,-1.127006378E0,9.476942596E0,-2.580783234E0,9.886507293E0
3.574399500E0,-9.175918579E-1,9.552984467E0,-2.905458069E0,1.002712190E1
3.584433500E0,-1.194216614E0,1.013063324E1,-3.197051697E0,1.069004316E1
3.594466500E0,-1.664837952E0,1.050605255E1,-3.348686371E0,1.115179474E1
3.604500500E0,-1.930236053E0,1.028765671E1,-3.333118744E0,1.098505222E1
3.614533500E0,-1.591340790E0,9.572144623E0,-2.673141174E0,1.006498892E1
3.624567500E0,-1.048270111E0,9.327553253E0,-1.586850128E0,9.519464966E0
3.634600500E0,-9.509724426E-1,9.890831909E0,-7.116201782E-1,9.961892778E0
3.644634500E0,-1.306932220E0,1.015024246E1,6.541397095E-2,1.023424510E1
3.654667500E0,-1.582209778E0,1.000773880E1,6.191125488E-1,1.015093710E1
3.664701500E0,-1.590143280E0,9.996661835E0,-3.248245239E-2,1.012239392E1
3.674734500E0,-1.285377045E0,9.929451599E0,-1.502725067E0,1.012444496E1
3.684768500E0,-3.131488037E-1,1.037956558E1,-2.488574982E0,1.067831678E1
3.694801500E0,-2.712359619E-1,1.086186264E1,-2.683320007E0,1.119168599E1
3.704835500E0,-1.130449219E0,1.132619705E1,-2.456391907E0,1.164450584E1
3.714868500E0,-1.418600006E0,1.161883850E1,-2.404599609E0,1.194955787E1
3.724902500E0,-1.249152374E0,1.160027710E1,-2.027833099E0,1.184225137E1
3.734935500E0,-1.302890625E0,1.097338074E1,-1.269659729E0,1.112315803E1
3.744969500E0,-1.364412689E0,1.030771500E1,-1.299447784E0,1.047851015E1
3.755002500E0,-1.463806000E0,9.485923920E0,-1.257984009E0,9.680289478E0
3.765036500E0,-1.919458466E0,8.790320435E0,-2.974314880E-1,9.002361892E0
3.775069500E0,-2.024240570E0,8.803792419E0,9.440867615E-1,9.082709434E0
3.785103500E0,-1.704056396E0,8.285719757E0,1.254840546E0,8.551700702E0
3.795136500E0,-9.945318604E-1,7.237599335E0,1.583706665E-1,7.307326393E0
3.805170500E0,-4.276606750E-1,6.135291595E0,-1.569186859E0,6.347207576E0
3.815203500E0,-1.556313629E0,6.030060425E0,-2.672093353E0,6.776711867E0
3.825237500E0,-1.866169281E0,7.215146027E0,-2.827170868E0,7.970810190E0
3.835271500E0,-6.071374512E-1,7.815697174E0,-3.245999908E0,8.484707043E0
3.845304500E0,-1.338067474E0,8.822353821E0,-3.242856445E0,9.494233483E0
3.855338500E0,-2.016157379E0,9.846074982E0,-3.288212128E0,1.057461215E1
3.865371500E0,-2.180814972E0,9.946665802E0,-4.211043091E0,1.101930118E1
3.875405500E0,-2.234104156E0,9.579179993E0,-4.662504272E0,1.088535056E1
3.885438500E0,-1.225950623E0,1.061233154E1,-3.052452393E0,1.111044559E1
3.895472500E0,-8.857081604E-1,1.046354095E1,-8.714877319E-1,1.053706122E1
3.905505500E0,-9.433383179E-1,9.798773346E0,-8.898994446E-1,9.884218092E0
3.915539500E0,-1.280736694E0,9.831405487E0,-8.855584717E-1,9.953945657E0
3.925572500E0,-1.284628601E0,9.948162689E0,-6.441105652E-1,1.005142229E1
3.935606500E0,-1.523082733E0,1.012374756E1,-5.507048035E-1,1.025247879E1
3.945639500E0,-2.077679443E0,9.829010468E0,-1.102307739E0,1.010649697E1
3.955673500E0,-2.915786591E0,9.693242798E0,-3.171604614E0,1.060753709E1
3.965706500E0,-3.093317413E0,1.014560211E1,-4.508025513E0,1.152493596E1
3.975740500E0,-2.732268219E0,1.058493851E1,-3.736230469E0,1.155273262E1
3.985773500E0,-2.115999756E0,9.638007660E0,-2.483934631E0,1.017539080E1
3.995807500E0,-1.757345581E0,8.868757324E0,-1.989812164E0,9.257562985E0
4.005840500E0,-1.677711182E0,8.534652100E0,-1.752854919E0,8.872851945E0
4.015874500E0,-1.907333679E0,8.660690002E0,-1.844763794E0,9.058069692E0
4.025907500E0,-2.436483307E0,9.338330841E0,-2.506387939E0,9.971100958E0
4.035941500E0,-2.707868958E0,9.412875824E0,-3.345991974E0,1.035038395E1
4.045974500E0,-2.261347504E0,9.131760406E0,-3.915856934E0,1.019002827E1
4.056008500E0,-1.355880432E0,8.810528412E0,-3.886218567E0,9.724531731E0
4.066041500E0,-4.848417664E-1,8.197403412E0,-3.513194275E0,8.931686753E0
4.076075500E0,-5.493576050E-1,8.730145569E0,-2.971770172E0,9.238433492E0
4.086108500E0,-1.233435059E0,9.291777649E0,-2.619552612E0,9.732448295E0
4.096142500E0,-2.220332794E0,9.538614349E0,-2.548450470E0,1.011976488E1
4.106175500E0,-2.633623352E0,9.102571106E0,-2.797682190E0,9.880273191E0
4.116209500E0,-2.473606110E0,8.102650452E0,-3.404520264E0,9.130302829E0
4.126242500E0,-2.195334778E0,8.453221436E0,-4.676125946E0,9.906694771E0
4.136276500E0,-2.617307281E0,8.704848175E0,-4.500690765E0,1.014302206E1
4.146309500E0,-2.909499664E0,8.716673584E0,-3.855682068E0,9.965534149E0
4.156343500E0,-2.039059753E0,9.064849548E0,-3.431164856E0,9.904653163E0
4.166376500E0,-1.145567780E0,9.286388855E0,-3.161874847E0,9.876578155E0
4.176410500E0,-9.458830261E-1,9.306447144E0,-3.303480377E0,9.920566301E0
4.186445083E0,-1.301094360E0,9.659413147E0,-3.077300720E0,1.022090449E1
4.196478083E0,-1.701511688E0,9.892029419E0,-2.305655365E0,1.029871034E1
4.206512083E0,-1.418600006E0,9.307644653E0,-1.661395111E0,9.560591440E0
4.216545083E0,-9.883946228E-1,9.926308136E0,-1.818717957E0,1.013983492E1
4.226579083E0,-9.274713135E-1,8.762777710E0,-2.624192963E0,9.194175599E0
4.236612083E0,-1.119521942E0,7.874824219E0,-3.474275208E0,8.679675920E0
4.246646083E0,-1.135987701E0,8.343948669E0,-4.180506592E0,9.401520240E0
4.256679083E0,-2.207459564E0,9.849817200E0,-4.388274536E0,1.100675838E1
4.266713083E0,-2.434836731E0,9.125323792E0,-4.035308533E0,1.027052478E1
4.276746083E0,-1.866318970E0,8.668773193E0,-3.545676727E0,9.550005164E0
4.286780083E0,-1.621577911E0,8.851842499E0,-3.139122162E0,9.530934817E0
4.296813083E0,-1.724863129E0,9.174421692E0,-3.265309753E0,9.889763090E0
4.306847083E0,-1.744622040E0,9.689350891E0,-3.575315094E0,1.047425915E1
4.316880083E0,-1.821112976E0,1.058493851E1,-3.199297028E0,1.120682279E1
4.326914083E0,-1.837728424E0,1.112561417E1,-2.042502594E0,1.145985834E1
4.336947083E0,-1.857786713E0,1.011955627E1,-1.250499573E0,1.036438806E1
4.346981083E0,-6.622229004E-1,8.322094116E0,-2.613714752E0,8.747988023E0
4.357014083E0,-2.197430420E-1,9.956545258E0,-1.924098816E0,1.014313742E1
4.367048083E0,1.678010559E-1,9.814790039E0,-1.152902527E0,9.883695915E0
4.377081083E0,-6.197113037E-1,1.002360580E1,-9.195378113E-1,1.008475410E1
4.387115083E0,-2.083217926E0,9.698930969E0,-1.709744568E0,1.006639386E1
4.397148083E0,-1.856589203E0,7.993227997E0,-3.804189148E0,9.044914170E0
4.407182083E0,-1.177750854E0,7.054679718E0,-4.584067383E0,8.495250248E0
4.417215083E0,-2.174528046E0,7.386240234E0,-4.259392548E0,8.799292125E0
4.427249083E0,-3.253334656E0,8.826395416E0,-3.585044861E0,1.006687584E1
4.437282083E0,-3.196452942E0,9.244326324E0,-2.889740753E0,1.019928832E1
4.447316083E0,-2.414628754E0,8.797505493E0,-2.858904877E0,9.560328029E0
4.457349083E0,-1.823058929E0,8.188122711E0,-2.976260834E0,8.900956462E0
4.467383083E0,-1.885329437E0,8.128396912E0,-3.228486328E0,8.946978675E0
4.477416083E0,-2.419867859E0,8.811725922E0,-3.059338074E0,9.636483986E0
4.487450083E0,-2.413730621E0,8.305328979E0,-3.017874298E0,9.160357539E0
4.497483083E0,-1.897154846E0,7.611072693E0,-2.244282990E0,8.158702727E0
4.507517083E0,-5.620811462E-1,1.035277130E1,-3.606001282E-1,1.037428751E1
4.517550083E0,9.497749329E-1,1.135553604E1,3.421884155E-1,1.140032298E1
4.527584083E0,1.540147247E0,1.129491211E1,1.204994202E-1,1.140007075E1
4.537617083E0,7.318281555E-1,1.094209579E1,-9.235794067E-2,1.096693042E1
4.547651083E0,-4.399351501E-1,1.055290512E1,-8.427474976E-2,1.056240747E1
4.557685083E0,-1.350791016E0,1.014395554E1,-3.861968994E-2,1.023357033E1
4.567718083E0,-1.830693054E0,9.909692688E0,-9.101074219E-2,1.007778394E1
4.577752083E0,-2.033371582E0,9.742041321E0,9.280700684E-3,9.951987501E0
4.587785083E0,-1.729204102E0,9.834698639E0,7.213499451E-1,1.001158279E1
4.597819083E0,-1.048120422E0,9.905950470E0,1.555714874E0,1.008199682E1
4.607852083E0,-5.080435181E-1,9.959389343E0,1.815125427E0,1.013618393E1
4.617886083E0,-5.134323120E-1,9.654174042E0,1.694326630E0,9.815163366E0
4.627919083E0,-1.066382446E0,8.923393707E0,1.050066376E0,9.048025540E0
4.637953083E0,-1.572929077E0,8.160430298E0,4.052073669E-1,8.320512096E0
4.647986083E0,-1.117276611E0,7.884853363E0,4.954696655E-2,7.963772629E0
4.658020083E0,9.033714294E-1,8.265960846E0,-1.590143280E0,8.465857564E0
4.668053083E0,3.544030151E0,8.995992737E0,-4.492008820E0,1.066143416E1
4.678087083E0,3.170706482E0,9.443112946E0,-6.000422058E0,1.162887899E1
4.688120083E0,-1.270857239E-1,9.549242249E0,-4.363426208E0,1.049969840E1
4.698154083E0,-1.887724457E0,9.530980225E0,-1.955084381E0,9.910874967E0
4.708187083E0,-1.533560944E0,9.277407532E0,-5.604345703E-1,9.419988672E0
4.718221083E0,-5.939648438E-1,8.921447754E0,-2.975811768E-1,8.946148826E0
4.728254083E0,9.789642334E-2,8.424780579E0,-3.345542908E-1,8.431988975E0
4.738288083E0,8.256829834E-1,8.371491394E0,-5.288502502E-1,8.428718950E0
4.748321083E0,7.937992859E-1,8.566535797E0,-7.279362488E-1,8.633976144E0
4.758355083E0,4.155358887E-1,8.570427704E0,-3.412902832E-1,8.587280137E0
4.768388083E0,3.945794678E-1,8.590186615E0,2.709365845E-2,8.599286779E0
4.778422083E0,6.435118103E-1,8.481811981E0,-2.694396973E-2,8.506231123E0
4.788455083E0,8.544232178E-1,8.089627533E0,-4.144880676E-1,8.145177286E0
4.798489083E0,7.420069885E-1,7.321874084E0,-1.080453186E0,7.438265495E0
4.808522083E0,5.122348022E-1,6.707551575E0,-1.170565796E0,6.828166438E0
4.818556083E0,4.331991577E-1,8.606053619E0,6.634204102E-1,8.642450292E0
4.828589083E0,8.135581970E-1,1.318398376E1,2.886896667E0,1.352085342E1
4.838623083E0,1.686991882E0,1.611908020E1,2.057621155E0,1.633721191E1
4.848656083E0,2.538571014E0,1.451995560E1,-1.626068573E0,1.482961740E1
4.858690083E0,3.282224579E0,1.239602234E1,-4.780758362E0,1.368539435E1
4.868723083E0,3.326981506E0,1.248852997E1,-6.449937286E0,1.444416414E1
4.878757083E0,2.448608093E0,1.292517197E1,-5.018913116E0,1.407995884E1
4.888790083E0,1.817071381E0,1.211400879E1,-1.830094299E0,1.238548354E1
4.898824083E0,1.594184875E0,9.331295471E0,-1.939965820E-1,9.468481149E0
4.908857083E0,1.616937561E0,8.710835724E0,-9.389973450E-1,8.909257101E0
4.918891083E0,2.144290924E0,9.687854004E0,-1.512155457E0,1.003688761E1
4.928924083E0,2.109263763E0,9.578281860E0,-1.379830627E0,9.904363159E0
4.938958083E0,1.346000977E0,9.542805634E0,-1.327289886E0,9.728235011E0
4.948992083E0,2.409988403E-1,1.021445892E1,-1.545536041E0,1.033353440E1
4.959025083E0,1.058299255E-1,1.030606842E1,-7.325765991E-1,1.033261413E1
4.969059083E0,9.834548950E-1,1.025891647E1,-4.833448792E-1,1.031727546E1
4.979092083E0,1.669777679E0,1.012943573E1,-9.877958679E-1,1.031355256E1
4.989126083E0,1.403780823E0,1.022837997E1,-1.416055298E0,1.042091983E1
4.999159083E0,6.761439514E-1,1.011356873E1,-1.274000702E0,1.021589550E1
5.009193083E0,5.745053101E-1,1.022373962E1,-1.467697906E0,1.034451765E1
5.019226083E0,8.731343079E-1,1.009949799E1,-1.339863739E0,1.022533412E1
5.029260083E0,1.688788147E0,9.210496674E0,-7.565267944E-1,9.394550930E0
5.039293083E0,2.513423309E0,8.685987396E0,-7.812254333E-1,9.076011622E0
5.049327083E0,1.975442047E0,9.066645813E0,-1.188827820E0,9.355199045E0
5.059360083E0,1.647174683E0,8.911717987E0,-8.123606873E-1,9.099001693E0
5.069394083E0,8.812174988E-1,8.802445221E0,-2.139051819E-1,8.849030544E0
5.079427083E0,1.594184875E-1,8.669821014E0,-2.993774414E-3,8.671287081E0
5.089461083E0,-2.254312134E-1,8.809480591E0,-4.523593140E-1,8.823967161E0
5.099494083E0,-6.671626282E-1,9.004375305E0,-1.323547668E0,9.125549794E0
5.109528083E0,-1.288221130E0,8.170010376E0,-2.626438293E0,8.677946839E0
5.119561083E0,-9.990225220E-1,7.060517578E0,-3.568130035E0,7.973738547E0
5.129595083E0,1.234931946E-1,7.373367004E0,-3.819906464E0,8.305027209E0
5.139628083E0,1.519639893E0,7.678731995E0,-3.423979797E0,8.543761941E0
5.149662083E0,2.655328217E0,7.961493988E0,-2.876717834E0,8.871959195E0
5.159695083E0,3.070564728E0,8.486901398E0,-2.810705109E0,9.452826365E0
5.169729083E0,3.692521362E0,8.715027008E0,-2.160756683E0,9.708515809E0
5.179761125E0,3.822900238E0,8.766669617E0,-1.145567780E0,9.632309585E0
5.189795125E0,2.102976837E0,8.801397400E0,-3.171903992E-1,9.054706926E0
5.199828125E0,7.894583130E-1,8.883426819E0,4.525090027E-1,8.929909343E0
5.209862125E0,9.448352051E-1,8.968899078E0,5.611830139E-1,9.035972035E0
5.219895125E0,1.476978607E0,9.528734894E0,4.191284180E-3,9.642524153E0
5.229929125E0,1.963466949E0,1.036295013E1,-1.032403107E0,1.059772589E1
5.239962125E0,1.343605957E0,1.124551483E1,-3.534001007E0,1.186406524E1
5.249996125E0,4.854405212E-1,1.160461807E1,-4.600084076E0,1.249254124E1
5.260029125E0,9.840536499E-1,1.085392914E1,-2.382894745E0,1.115590994E1
5.270063125E0,2.088457031E0,9.824070740E0,7.065307617E-2,1.004385437E1
5.280096125E0,2.004032593E0,1.119042938E1,1.426832886E0,1.145764847E1
5.290130125E0,2.119891663E0,1.107457031E1,1.888173523E0,1.143263957E1
5.300163125E0,1.814526672E0,1.114776810E1,3.284170532E-1,1.129925211E1
5.310197125E0,1.296004944E0,1.133442993E1,-1.557810516E0,1.151415235E1
5.320230125E0,9.262738037E-1,1.153680908E1,-3.180585938E0,1.200300270E1
5.330264125E0,1.084494781E0,1.137918686E1,-3.730392609E0,1.202405304E1
5.340298125E0,1.238225098E0,9.946067047E0,-2.673440552E0,1.037327024E1
5.350331125E0,1.354832611E0,9.070388031E0,-2.296823730E0,9.454253523E0
5.360365125E0,9.725276184E-1,9.282946014E0,-2.244881744E0,9.599916183E0
5.370398125E0,7.780819702E-1,9.191486206E0,-1.809886322E0,9.400240355E0
5.380432125E0,7.042854309E-1,9.658515015E0,-1.064735870E0,9.742514703E0
5.390465125E0,1.060245209E0,9.772278442E0,-9.069639587E-1,9.871379310E0
5.400499125E0,1.369202728E0,9.879605255E0,-1.112785950E0,1.003591594E1
5.410532125E0,1.411265259E0,9.560618591E0,-1.358574829E0,9.759242955E0
5.420566125E0,1.592837677E0,9.237440643E0,-1.681004333E0,9.523298645E0
5.430599125E0,1.810634766E0,8.999585266E0,-1.686542816E0,9.333560944E0
5.440633125E0,1.898651733E0,8.737929382E0,-1.485660553E0,9.064407072E0
5.450666125E0,1.554966431E0,8.942404175E0,-1.589544525E0,9.214725434E0
5.460700125E0,5.996530151E-1,9.159303131E0,-2.030228119E0,9.400757618E0
5.470733125E0,-3.356021118E-1,9.628577271E0,-2.717898102E0,1.001044950E1
5.480767125E0,-3.263214111E-1,9.972112885E0,-2.528392181E0,1.029282702E1
5.490800125E0,9.310638428E-2,9.945767670E0,-2.118843842E0,1.016938850E1
5.500834125E0,1.926493835E-1,9.928703156E0,-2.025138702E0,1.013496161E1
5.510867125E0,-6.301895142E-2,1.019978943E1,-2.386786652E0,1.047551556E1
5.520901125E0,-2.098635864E-1,1.036489609E1,-2.199226685E0,1.059772200E1
5.530934125E0,-1.083746338E-1,1.084704346E1,-2.035317535E0,1.103687520E1
5.540968125E0,1.129401398E0,1.065858536E1,-2.405048676E0,1.098477348E1
5.551001125E0,1.051563263E0,1.019215530E1,-2.593955841E0,1.056950434E1
5.561035125E0,4.047583008E-1,9.659413147E0,-2.580334167E0,1.000630881E1
5.571068125E0,-3.574566650E-1,9.512119446E0,-2.672392731E0,9.886853621E0
5.581102125E0,3.321592712E-1,9.335037689E0,-1.869163055E0,9.526123502E0
5.591135125E0,1.293310547E0,8.673712921E0,5.538482666E-3,8.769605389E0
5.601169125E0,1.422192535E0,8.084538116E0,1.801503754E0,8.404034980E0
5.611202125E0,5.340893555E-1,7.051087189E0,3.666475525E0,7.965307575E0
5.621236125E0,-8.244854736E-1,7.429649963E0,-1.032253418E0,7.546192549E0
5.631269125E0,1.056053925E0,9.595645752E0,-7.138954468E0,1.200651232E1
5.641303125E0,5.167254639E-1,1.051922516E1,-6.217919769E0,1.223043864E1
5.651336125E0,6.692582703E-1,1.005668701E1,-3.267106018E0,1.059522732E1
5.661370125E0,1.420096893E0,9.749825134E0,-1.368753662E0,9.947323857E0
5.671403125E0,1.871109009E0,9.932295685E0,-1.214873657E0,1.017975759E1
5.681437125E0,1.375639343E0,1.026879593E1,-1.880988464E0,1.052989416E1
5.691470125E0,3.471281433E-1,1.061248123E1,-2.664459229E0,1.094735579E1
5.701504125E0,1.178050232E-1,1.080153809E1,-3.098406830E0,1.123775903E1
5.711537125E0,5.379812622E-1,1.059242294E1,-3.584296417E0,1.119535745E1
5.721571125E0,8.265811157E-1,1.021685394E1,-4.020189972E0,1.101041635E1
5.731605125E0,1.277892609E0,9.477990417E0,-7.927514648E-1,9.596549732E0
5.741638125E0,1.639091492E0,9.412426758E0,1.546583862E0,9.678446158E0
5.751671125E0,1.657353516E0,9.785600739E0,1.250200195E0,1.000338958E1
5.761705125E0,1.175655212E0,9.897867279E0,-1.092278595E0,1.002711396E1
5.771739125E0,7.499404907E-1,1.001148102E1,-2.889441376E0,1.044705865E1
5.781772125E0,3.121009827E-1,9.772128754E0,-2.074086914E0,9.994685784E0
5.791806125E0,6.472540283E-1,9.828561401E0,-1.492246857E0,9.962246618E0
5.801839125E0,1.662442932E0,9.661359100E0,-1.583706665E0,9.930443241E0
5.811873125E0,1.576970673E0,9.747879181E0,-2.034120026E0,1.008194571E1
5.821906125E0,1.222358093E0,9.530531158E0,-2.210004272E0,9.859477793E0
5.831940125E0,9.704319763E-1,9.123826904E0,-1.819316711E0,9.353922648E0
5.841973125E0,9.108558655E-1,9.120234375E0,-1.376836853E0,9.268441788E0
5.852007125E0,9.409432983E-1,9.931996307E0,-3.009491730E0,1.042050697E1
5.862040125E0,1.190324707E0,9.073381805E0,-1.635948029E0,9.296206551E0
5.872074125E0,1.681453400E0,8.288414154E0,-3.495231628E-1,8.464470519E0
5.882107125E0,1.189276886E0,8.222102051E0,4.456233215E-1,8.319610675E0
5.892141125E0,1.049916687E0,8.731492767E0,9.804611206E-2,8.794936272E0
5.902174125E0,7.975415039E-1,9.195677490E0,-3.480262756E-1,9.236756966E0
5.912208125E0,1.219064941E0,9.678573303E0,-9.237290955E-1,9.798682358E0
5.922241125E0,1.313219147E0,9.923164673E0,-9.800120544E-1,1.005754271E1
5.932275125E0,9.455836487E-1,9.448801117E0,-1.060694275E0,9.555053288E0
5.942308125E0,9.978250122E-1,8.948691101E0,-1.749711456E0,9.172579646E0
5.952342125E0,8.562194824E-1,9.771080933E0,-2.545456696E0,1.013343398E1
5.962375125E0,1.056802368E0,9.790241089E0,-2.239642639E0,1.009859649E1
5.972409125E0,8.913963318E-1,9.674232330E0,-1.700912933E0,9.862984508E0
5.982442125E0,8.122109985E-1,9.646240540E0,-8.972341919E-1,9.721865688E0
5.992476125E0,5.658233643E-1,8.948541412E0,9.687854004E-1,9.018597155E0
6.002509125E0,3.452270966E0,1.078447357E1,-4.669689331E0,1.224863435E1
6.012543125E0,1.634002075E0,1.169038971E1,-3.184477844E0,1.222604079E1
6.022576125E0,-1.004411316E0,1.198512680E1,-5.282514954E-1,1.203873565E1
6.032610125E0,5.221142578E-1,1.008033783E1,-4.908293152E-1,1.010577694E1
6.042643125E0,1.111438751E0,9.464668121E0,-1.071022797E0,9.589699087E0
6.052677125E0,6.987469482E-1,9.537117462E0,-1.439406738E0,9.670405811E0
6.062710125E0,6.855743408E-1,9.533524933E0,-1.428180084E0,9.664254145E0
6.072744125E0,7.228468323E-1,9.498946838E0,-1.332528992E0,9.619154438E0
6.082777125E0,7.313790894E-1,9.686057739E0,-1.614243164E0,9.846847764E0
6.092811125E0,8.455915833E-1,9.664203186E0,-1.576072540E0,9.828318930E0
6.102844125E0,8.897497559E-1,9.658365326E0,-1.579066315E0,9.826959134E0
6.112878125E0,9.818083191E-1,9.669142914E0,-1.621428223E0,9.853187390E0
6.122911125E0,1.066681824E0,9.585915985E0,-1.551074524E0,9.769003407E0
6.132945125E0,1.168769531E0,9.500743103E0,-1.513203278E0,9.691229328E0
6.142978125E0,1.260977783E0,9.475146332E0,-1.522034912E0,9.679103949E0
6.153012125E0,1.312171326E0,9.468859406E0,-1.521436157E0,9.679662185E0
6.163045125E0,1.335073700E0,9.475595398E0,-1.484313354E0,9.683621020E0
6.173079125E0,2.039209442E0,8.619675293E0,-1.235680389E0,8.943382097E0
6.183113500E0,4.037254486E0,4.953948212E0,-1.286275177E0,6.518859601E0
6.193146500E0,2.107018433E0,5.108726349E0,-1.402134247E0,5.701279859E0
6.203180500E0,-1.987117767E0,1.061248123E1,-1.640139313E0,1.092078074E1
6.213213500E0,-7.854167175E-1,1.152857620E1,-1.912273407E0,1.171246081E1
6.223247500E0,8.030799866E-1,1.078911392E1,-2.575993195E0,1.112140538E1
6.233280500E0,4.638853455E-1,1.124970612E1,-2.436782684E0,1.151993868E1
6.243314500E0,6.713539124E-1,1.097951797E1,-1.677561493E0,1.112720736E1
6.253347500E0,6.339317322E-1,9.915530548E0,-4.900808716E-1,9.947853776E0
6.263381500E0,4.110452271E-1,8.092321930E0,-9.003776550E-1,8.152626099E0
6.273414500E0,-5.492079163E-1,7.532785492E0,-4.222419434E0,8.652936639E0
6.283448500E0,1.486109619E0,1.146151566E1,2.411784668E0,1.180642063E1
6.293481500E0,3.638334045E0,1.098700241E1,-7.638615417E-1,1.159893017E1
6.303515500E0,1.065035248E0,1.020802231E1,-2.031275940E0,1.046250933E1
6.313548500E0,1.348695374E-1,1.012704071E1,-2.146536255E0,1.035291076E1
6.323582500E0,3.525169373E-1,9.770482178E0,-2.045047302E0,9.988433743E0
6.333615500E0,8.436456299E-1,8.989855499E0,-9.282197571E-1,9.076939559E0
6.343649500E0,7.370672607E-1,8.996591492E0,-1.403481445E0,9.135189477E0
6.353682500E0,4.569996643E-1,9.462273102E0,-2.093995514E0,9.701972900E0
6.363716500E0,5.462141418E-1,9.886191559E0,-1.820663910E0,1.006727125E1
6.373749500E0,8.128097534E-1,1.016176849E1,-1.539997559E0,1.030988803E1
6.383783500E0,9.430389404E-1,1.010353958E1,-1.418450317E0,1.024611321E1
6.393816500E0,7.506889343E-1,9.843829651E0,-1.350940704E0,9.964414527E0
6.403850500E0,4.156855774E-1,1.004156845E1,-1.557660828E0,1.017016218E1
6.413883500E0,4.559518433E-1,1.031460068E1,-1.765578461E0,1.047454756E1
6.423917500E0,6.932084656E-1,1.007869125E1,-1.559606781E0,1.022217827E1
6.433950500E0,9.848020935E-1,9.480984192E0,-1.151854706E0,9.601336661E0
6.443984500E0,1.059496765E0,9.205407257E0,-7.309300232E-1,9.294961800E0
6.454017500E0,1.128652954E0,8.946296082E0,-4.879852295E-1,9.030404235E0
6.464051500E0,1.035696259E0,8.869954834E0,-5.131329346E-1,8.944946669E0
6.474084500E0,7.268884277E-1,9.206904144E0,-9.048683167E-1,9.279775718E0
6.484118500E0,6.646179199E-1,9.412726135E0,-9.571096802E-1,9.484576386E0
6.494151500E0,3.444337463E-1,1.005548950E1,-1.116228790E0,1.012311565E1
6.504185500E0,3.838018799E-1,1.078716797E1,-1.480122070E0,1.089500152E1
6.514218500E0,4.125421143E-1,1.108864105E1,-1.577569427E0,1.120789350E1
6.524252500E0,5.013075256E-1,1.098355957E1,-1.387764130E0,1.108222809E1
6.534285500E0,5.215155029E-1,1.066038162E1,-7.200027466E-1,1.069738841E1
6.544319500E0,5.421725464E-1,9.946216736E0,-3.257226562E-1,9.966306923E0
6.554352500E0,4.951702881E-1,9.759255524E0,-4.388873291E-1,9.781660599E0
6.564386500E0,5.054988098E-1,1.003902374E1,-8.264314270E-1,1.008565891E1
6.574419500E0,5.430706787E-1,1.023182281E1,-9.499246216E-1,1.029016427E1
6.584453500E0,4.921765137E-1,1.044213547E1,8.138575745E-1,1.048536099E1
6.594486500E0,1.072819061E0,9.822274475E0,-4.924758911E-1,9.892954519E0
6.604520500E0,4.415817261E-1,9.477541351E0,-1.641486511E0,9.628772635E0
6.614554500E0,1.841171265E-1,9.626182251E0,-7.096742249E-1,9.654062427E0
6.624587500E0,3.324586487E-1,9.728719025E0,-5.513035583E-1,9.749996832E0
6.634621500E0,3.049159241E-1,9.678273926E0,-7.240443420E-1,9.710108141E0
6.644654500E0,-3.143463135E-3,9.555379486E0,-7.126679993E-1,9.581919572E0
6.654688500E0,-2.582130432E-1,9.456135864E0,-7.182064819E-1,9.486885685E0
6.664721500E0,-3.855981445E-1,9.463320923E0,-8.270301819E-1,9.507213458E0
6.674755500E0,-4.035607910E-1,9.521699524E0,-8.220904541E-1,9.565639333E0
6.684788500E0,-3.833528137E-1,9.637408905E0,-7.349716187E-1,9.672992973E0
6.694822500E0,-2.402503967E-1,9.791288910E0,-6.885681152E-1,9.818410504E0
6.704855500E0,-3.622467041E-2,9.992769928E0,-6.610253906E-1,1.001467511E1
6.714889500E0,2.056723022E-1,1.017299515E1,-6.215075684E-1,1.019403762E1
6.724922500E0,4.053570557E-1,1.033525772E1,-6.256988525E-1,1.036211202E1
6.734956500E0,5.330415344E-1,1.044198578E1,-6.884184265E-1,1.047822123E1
6.744989500E0,5.872288513E-1,1.046593597E1,-7.273374939E-1,1.050760074E1
6.755023500E0,5.528004456E-1,1.034887939E1,-7.436535645E-1,1.039027977E1
6.765056500E0,4.978646851E-1,1.014664993E1,-7.744894409E-1,1.018833686E1
6.775090500E0,4.784051514E-1,9.950707397E0,-8.391549683E-1,9.997481196E0
6.785123500E0,4.531077576E-1,9.794582062E0,-8.261320496E-1,9.839798706E0
6.795157500E0,4.466711426E-1,9.734107819E0,-7.897576904E-1,9.776302335E0
6.805190500E0,4.996609497E-1,9.739646301E0,-7.840695190E-1,9.783922329E0
6.815224500E0,5.716612244E-1,9.756261749E0,-8.005352783E-1,9.805727745E0
6.825257500E0,6.556365967E-1,9.850116577E0,-7.963439941E-1,9.903979992E0
6.835291500E0,7.161108398E-1,9.968220978E0,-7.861651611E-1,1.002478428E1
6.845324500E0,8.024812317E-1,1.004501129E1,-7.168592834E-1,1.010248065E1
6.855358500E0,9.151968384E-1,1.012793884E1,-6.523434448E-1,1.019010709E1
6.865391500E0,1.105600891E0,1.016581009E1,-6.520440674E-1,1.024652183E1
6.875425500E0,1.268911285E0,1.016760635E1,-6.815327454E-1,1.026912079E1
6.885458500E0,1.354383545E0,1.010788055E1,-7.095245361E-1,1.022286795E1
6.895492500E0,1.324595490E0,9.887239380E0,-7.036866760E-1,1.000036153E1
6.905525500E0,1.233884125E0,9.700128479E0,-7.104226685E-1,9.804063592E0
6.915559500E0,1.006506958E0,9.457033997E0,-6.887178040E-1,9.535348996E0
6.925592500E0,5.990542603E-1,9.052575073E0,-6.262976074E-1,9.093966690E0
6.935626500E0,2.906954956E-1,8.746311951E0,-6.165678406E-1,8.772834919E0
6.945659500E0,1.426533508E-1,8.609047394E0,-6.843768311E-1,8.637384943E0
6.955693500E0,8.322692871E-2,8.751700745E0,-7.096742249E-1,8.780821724E0
6.965726500E0,1.085243225E-1,9.181756439E0,-6.069877625E-1,9.202437883E0
6.975760500E0,1.784289551E-1,9.629026337E0,-5.782475281E-1,9.648023388E0
6.985793500E0,9.430389404E-3,1.000264938E1,-5.604345703E-1,1.001834171E1
6.995827500E0,-2.028282166E-1,1.044288391E1,-5.090913391E-1,1.045725287E1
7.005860500E0,-1.336720276E-1,1.068313431E1,-5.924679565E-1,1.070038528E1
7.015894500E0,1.106199646E-1,9.546847229E0,-6.176156616E-1,9.567443645E0
7.025927500E0,-1.764830017E-1,1.036519547E1,-1.484463043E0,1.047244259E1
7.035961500E0,6.855743408E-2,1.082099762E1,-2.914439392E-1,1.082513876E1
7.045995500E0,3.538641357E-1,1.059077637E1,-7.942483521E-1,1.062641023E1
7.056028500E0,7.158114624E-1,9.710007935E0,-7.252418518E-1,9.763330164E0
7.066062500E0,1.319655762E0,8.851992188E0,-7.691006470E-1,8.982804285E0
7.076095500E0,1.200054474E0,8.112829285E0,-3.888912964E-1,8.210320711E0
7.086129500E0,1.188528442E0,7.793094177E0,-3.640429688E-1,7.891605920E0
7.096162500E0,9.229806519E-1,8.206983490E0,-3.124003601E-1,8.264627352E0
7.106196500E0,-2.799179077E-2,9.279353485E0,-4.263134766E-1,9.289183378E0
7.116229500E0,-6.137237549E-1,1.053314621E1,-8.629554749E-1,1.058624192E1
7.126263500E0,-2.974314880E-1,1.105226669E1,-8.973838806E-1,1.109262649E1
7.136296500E0,7.110214233E-2,1.039692947E1,-7.352709961E-1,1.042313875E1
7.146330500E0,-2.965333557E-1,9.741442566E0,-6.078858948E-1,9.764894293E0
7.156363500E0,-4.805007935E-1,9.272916870E0,-4.501139832E-1,9.296261124E0
7.166397500E0,-6.574328613E-1,9.251062317E0,-1.263372803E-1,9.275253801E0
7.176430500E0,-1.251846771E0,1.009904892E1,3.682342529E-2,1.017640729E1
7.186464208E0,-1.771715698E0,1.114701965E1,-2.640509033E-1,1.129002863E1
7.196497208E0,-1.127305756E0,1.062939606E1,-4.055067444E-1,1.069669643E1
7.206531208E0,-1.146016846E0,1.027747787E1,-3.968247986E-1,1.034878621E1
7.216564208E0,-1.378483429E0,1.047117508E1,-3.302133179E-1,1.056668183E1
7.226598208E0,-1.326242065E0,1.055440201E1,-5.545967102E-1,1.065184948E1
7.236631208E0,-1.331630859E0,1.022927811E1,-9.389973450E-1,1.035823766E1
7.246665208E0,-1.408870239E0,9.663454742E0,-1.519190826E0,9.883077136E0
7.256698208E0,-1.222358093E0,9.277257843E0,-5.614823914E-1,9.374269831E0
7.266732208E0,-8.412506104E-1,8.925938416E0,3.788621521E-1,8.973495178E0
7.276765208E0,-5.605842590E-1,8.657845917E0,4.935237122E-1,8.690000937E0
7.286799208E0,-8.237370300E-1,8.767567749E0,-7.409591675E-2,8.806490625E0
7.296832208E0,-9.407936096E-1,8.924291840E0,-6.915618896E-2,8.974010254E0
7.306866208E0,-1.009051666E0,9.030570831E0,3.547622681E-2,9.086839570E0
7.316899208E0,-1.064586182E0,9.015152893E0,-9.475296021E-2,9.078287479E0
7.326933208E0,-1.085243225E0,8.965605927E0,-3.600013733E-1,9.038221256E0
7.336966208E0,-1.170865173E0,8.992400208E0,-3.908372498E-1,9.076725208E0
7.347000208E0,-1.105451202E0,9.036408691E0,-3.811074829E-1,9.111747764E0
7.357033208E0,-9.792636108E-1,8.985065460E0,-3.941304016E-1,9.046861186E0
7.367067208E0,-7.876620483E-1,8.915160828E0,-3.421884155E-1,8.956427692E0
7.377100208E0,-6.083349609E-1,8.821755066E0,-2.618055725E-1,8.846579906E0
7.387134208E0,-4.607418823E-1,8.757987671E0,-2.026785278E-1,8.772440351E0
7.397167208E0,-3.547622681E-1,8.832382965E0,-1.125659180E-1,8.840221501E0
7.407201208E0,-3.279679871E-1,9.119934998E0,-1.023870850E-1,9.126404575E0
7.417234208E0,-3.685336304E-1,9.570797424E0,-1.514849854E-1,9.579088061E0
7.427268208E0,-4.815486145E-1,1.010758118E1,-2.335144043E-1,1.012173974E1
7.437301208E0,-6.219566345E-1,1.064196991E1,-3.459306335E-1,1.066574056E1
7.447335208E0,-7.951464844E-1,1.106424179E1,-3.680845642E-1,1.109888240E1
7.457368208E0,-9.407936096E-1,1.138008499E1,-3.595523071E-1,1.142456585E1
7.467402208E0,-8.400531006E-1,1.118504059E1,-6.099815369E-1,1.123311620E1
7.477435208E0,-1.402583313E0,1.060349991E1,-1.658551025E0,1.082368892E1
7.487469208E0,-1.297501831E0,1.100451599E1,3.528163147E-1,1.108635930E1
7.497502208E0,-1.347048798E0,1.064765808E1,-6.122268677E-2,1.073270289E1
7.507536208E0,-1.426084442E0,1.029723679E1,-2.704875183E-1,1.039903677E1
7.517570208E0,-1.342408447E0,1.009366013E1,1.616638184E-2,1.018254863E1
7.527603208E0,-1.108894043E0,9.862241364E0,-1.243913269E-1,9.925166191E0
7.537637208E0,-1.115779724E0,9.601333923E0,-2.002835083E-1,9.668024151E0
7.547670208E0,-1.392254791E0,9.435029755E0,7.080276489E-2,9.537461555E0
7.557704208E0,-1.591191101E0,9.504485321E0,9.220825195E-2,9.637200460E0
7.567737208E0,-1.616937561E0,9.613009644E0,2.918930054E-2,9.748091788E0
7.577771208E0,-1.571282501E0,9.698631592E0,-5.209167480E-2,9.825227580E0
7.587804208E0,-1.414708099E0,9.723030853E0,-3.637435913E-1,9.832143072E0
7.597838208E0,-1.203497314E0,9.608668671E0,-6.502478027E-1,9.705552102E0
7.607871208E0,-1.091230774E0,9.428742828E0,-8.475375366E-1,9.529443625E0
7.617905208E0,-1.109941864E0,9.328301697E0,-1.114582214E0,9.459993499E0
7.627938208E0,-8.719367981E-1,8.691226501E0,-8.854087830E-1,8.779615059E0
7.637972208E0,-1.030307465E0,9.179960175E0,-9.785151672E-1,9.289278455E0
7.648005208E0,-4.216731262E-1,8.601263580E0,-9.699829102E-1,8.666049287E0
7.658039208E0,2.110610962E-1,6.141428833E0,-6.069877625E-1,6.174959841E0
7.668072208E0,-4.730163574E-1,6.828649750E0,-6.673123169E-1,6.877463748E0
7.678106208E0,-6.032455444E-1,7.060667267E0,-4.659809875E-1,7.101694567E0
7.688139208E0,-1.148561554E0,6.480773163E0,-2.366578674E-1,6.586017110E0
7.698173208E0,-1.937421112E0,7.376809845E0,-3.773652649E-1,7.636316429E0
7.708206208E0,-2.401755524E0,9.099876709E0,-4.700225830E-1,9.423221686E0
7.718240208E0,-1.609602814E0,9.576635284E0,-1.016386414E0,9.764005629E0
7.728273208E0,-1.578168182E0,1.057984909E1,-9.431886292E-1,1.073840893E1
7.738307208E0,-2.340682526E0,1.207868225E1,-1.579216003E0,1.240432516E1
7.748340208E0,-2.183659058E0,1.333876190E1,-2.033670959E0,1.366845834E1
7.758374208E0,-1.738035736E0,1.386401962E1,-2.171234894E0,1.414022876E1
7.768407208E0,-1.689237213E0,1.389320892E1,-2.188748474E0,1.416564141E1
7.778441208E0,-1.747466125E0,1.302980438E1,-1.792821808E0,1.326814419E1
7.788474208E0,-1.500330048E0,1.053134995E1,-1.100361786E0,1.069444332E1
7.798508208E0,-1.572480011E0,9.827214203E0,-7.003935242E-1,9.976842359E0
7.808541208E0,-1.440753937E0,9.921218719E0,-7.867639160E-1,1.005611010E1
7.818575208E0,-1.379680939E0,9.674382019E0,-7.890092468E-1,9.804066633E0
7.828608208E0,-1.246158600E0,9.303303680E0,-7.153623962E-1,9.413613227E0
7.838642208E0,-1.174308014E0,9.070088654E0,-8.141569519E-1,9.181958344E0
7.848675208E0,-1.115480347E0,8.844657440E0,-1.012793884E0,8.972068496E0
7.858709208E0,-9.433383179E-1,8.487949219E0,-1.382075958E0,8.651317996E0
7.868742208E0,-1.234782257E0,8.196505280E0,-1.850152588E0,8.492964772E0
7.878776208E0,-1.138532410E0,7.861352234E0,-1.314566345E0,8.051409794E0
7.888809208E0,-1.037642212E0,7.740703125E0,-1.369502106E0,7.929106018E0
7.898843208E0,-1.092577972E0,7.733667755E0,-1.446292419E0,7.943242747E0
7.908876208E0,-1.215771790E0,7.741900635E0,-1.370699615E0,7.955749111E0
7.918910208E0,-1.420096893E0,7.751480713E0,-1.216370544E0,7.973812497E0
7.928943208E0,-1.620081024E0,7.986492004E0,-1.517394562E0,8.289222118E0
7.938977208E0,-2.115700378E0,8.132588196E0,-1.510059814E0,8.537883783E0
7.949010208E0,-2.408641205E0,8.987310791E0,-1.585652618E0,9.438622883E0
7.959044208E0,-2.634521484E0,1.019200562E1,-1.468446350E0,1.062892359E1
7.969077208E0,-2.956801300E0,1.066771637E1,-1.694027252E0,1.119877559E1
7.979111208E0,-3.308420105E0,1.100571350E1,-2.027084656E0,1.166963776E1
7.989144208E0,-3.412453766E0,1.125449615E1,-2.189347229E0,1.196251502E1
7.999178208E0,-3.609893188E0,1.085213287E1,-2.210303650E0,1.164841444E1
8.009211208E0,-3.920796661E0,1.009051666E1,-2.720442810E0,1.116207786E1
8.019245208E0,-4.856650543E0,9.484576721E0,-7.362739105E0,1.295199511E1
8.029278208E0,-4.043691101E0,1.083970871E1,1.911524963E0,1.172623769E1
8.039312208E0,-2.780168610E0,9.519005127E0,3.162922668E-1,9.921735579E0
8.049346208E0,-4.237687683E0,9.469757538E0,-3.310964813E0,1.089021546E1
8.059379208E0,-3.215912476E0,9.904004517E0,-2.304906921E0,1.066508295E1
8.069413208E0,-2.622845764E0,1.032178574E1,-1.980381775E0,1.083238167E1
8.079446208E0,-2.353705444E0,1.006342300E1,-2.242486725E0,1.057549803E1
8.089480208E0,-1.776505737E0,9.568552094E0,-2.190245361E0,9.975486782E0
8.099513208E0,-1.393751678E0,9.328002319E0,-2.125430145E0,9.668072420E0
8.109547208E0,-1.068927155E0,9.111103363E0,-2.226170654E0,9.439843512E0
8.119580208E0,-1.032702484E0,8.821156311E0,-2.322270813E0,9.179989914E0
8.129614208E0,-1.219364319E0,8.504265289E0,-2.465073853E0,8.937894973E0
8.139647208E0,-1.574425964E0,8.486302643E0,-2.698438568E0,9.043103470E0
8.149681208E0,-1.974094849E0,8.674461365E0,-2.736609192E0,9.307650633E0
8.159714208E0,-2.170486450E0,8.762927399E0,-2.877765656E0,9.475307024E0
8.169748208E0,-2.197280731E0,9.214837646E0,-2.701432343E0,9.850838145E0
8.179781208E0,-2.160008240E0,9.491462402E0,-2.874472504E0,1.014968405E1
8.189815458E0,-2.099833374E0,9.596693573E0,-2.924468536E0,1.024979726E1
8.199848458E0,-2.126178589E0,9.609267426E0,-2.755469971E0,1.022014044E1
8.209882458E0,-1.714983673E0,9.571396179E0,-2.885549469E0,1.014293792E1
8.219915458E0,-1.270258484E0,9.549242249E0,-3.094365234E0,1.011813621E1
8.229949458E0,-1.083297272E0,9.359586639E0,-3.091521149E0,9.916294573E0
8.239982458E0,-6.679110718E-1,9.132957916E0,-3.220103760E0,9.707012606E0
8.250016458E0,-4.323010254E-1,9.142987061E0,-3.273542633E0,9.720965895E0
8.260049458E0,-5.637277222E-1,9.009315033E0,-3.323388977E0,9.619275472E0
8.270083458E0,-7.869136047E-1,8.766968994E0,-3.425326996E0,9.445202136E0
8.280116458E0,-9.791139221E-1,8.457263031E0,-3.533851318E0,9.218029463E0
8.290150458E0,-1.133592682E0,8.217012634E0,-3.602558441E0,9.043381907E0
8.300183458E0,-1.350641327E0,8.042176208E0,-3.613186340E0,8.919413977E0
8.310217458E0,-1.580413513E0,7.984995117E0,-3.611539764E0,8.905115011E0
8.320250458E0,-1.739832001E0,8.039781189E0,-3.548969879E0,8.958810421E0
8.330284458E0,-1.892065430E0,8.207881622E0,-3.484753418E0,9.115521856E0
8.340317458E0,-2.079176331E0,8.440797272E0,-3.481160889E0,9.364214539E0
8.350351458E0,-2.228266296E0,8.749156036E0,-3.575764160E0,9.710766775E0
8.360384458E0,-2.323618011E0,9.096882935E0,-3.732338562E0,1.010360485E1
8.370418458E0,-2.373015289E0,9.467512207E0,-3.975882111E0,1.053909994E1
8.380451458E0,-2.409988403E0,9.858050079E0,-4.176764374E0,1.097426791E1
8.390485458E0,-2.594255219E0,1.006312363E1,-4.364623718E0,1.127149313E1
8.400518458E0,-2.862048340E0,1.009231293E1,-4.420756989E0,1.138372493E1
8.410552458E0,-3.092269592E0,9.943672028E0,-4.400698700E0,1.130508265E1
8.420585458E0,-3.240461426E0,9.748777313E0,-4.406536560E0,1.117840838E1
8.430619458E0,-3.282374268E0,9.534872131E0,-4.387975159E0,1.099736757E1
8.440652458E0,-3.179089050E0,9.429191895E0,-4.319866791E0,1.084792681E1
8.450686458E0,-2.959944763E0,9.524094543E0,-4.320615234E0,1.086910143E1
8.460719458E0,-2.996319122E0,9.034163361E0,-4.136198730E0,1.037796588E1
8.470753458E0,-2.479294281E0,8.933123474E0,-4.559817810E0,1.033148264E1
8.480786458E0,-1.967658234E0,8.838669891E0,-4.797523499E0,1.024743851E1
8.490820458E0,-1.506467285E0,8.687035217E0,-5.197192383E0,1.023449233E1
8.500853458E0,-1.490300903E0,8.462053070E0,-4.963528290E0,9.922900384E0
8.510887458E0,-1.691332855E0,7.895032196E0,-4.232448578E0,9.116236129E0
8.520920458E0,-1.391656036E0,7.890541534E0,-3.373534698E0,8.693565931E0
8.530954458E0,-3.607498169E-1,9.414223022E0,-1.786834259E0,9.589082971E0
8.540987458E0,7.303312683E-1,1.190354645E1,-1.275347900E-1,1.192661171E1
8.551021458E0,1.224154358E0,1.423644516E1,4.102967834E-1,1.429486859E1
8.561054458E0,4.155358887E-1,1.476978607E1,-4.480183411E-1,1.478242102E1
8.571088458E0,-1.010997620E0,1.341600128E1,-1.109193420E0,1.349968580E1
8.581122458E0,-1.535955963E0,1.072235275E1,-8.785231018E-1,1.086737375E1
8.591155458E0,-1.666634216E0,8.505313110E0,3.915856934E-1,8.675906873E0
8.601189458E0,-1.962419128E0,7.509284363E0,4.324507141E-1,7.773509767E0
8.611222458E0,-1.324146423E0,6.953041077E0,-4.052073669E-1,7.089593569E0
8.621256458E0,-2.799179077E-1,6.644382935E0,-6.227050781E-1,6.679366754E0
8.631289458E0,5.375321960E-1,6.431974640E0,-3.658392334E-1,6.464756529E0
8.641323458E0,1.208736420E0,7.592361603E0,-8.577163696E-1,7.735675524E0
8.651356458E0,1.924697571E0,9.599238281E0,-2.096689911E0,1.001228969E1
8.661390458E0,2.281405792E0,1.169742508E1,-2.558778992E0,1.218941819E1
8.671423458E0,2.063009949E0,1.354218887E1,-2.659669189E0,1.395423698E1
8.681457458E0,1.748813324E0,1.464030533E1,-2.761008453E0,1.500066851E1
8.691490458E0,1.504521332E0,1.436817123E1,-2.635419617E0,1.468514098E1
8.701524458E0,8.099656677E-1,1.237521561E1,-2.490970001E0,1.264938486E1
8.711557458E0,7.098239136E-1,1.014874557E1,-1.901046753E0,1.034963118E1
8.721591458E0,1.033151550E0,8.650211792E0,-1.136436768E0,8.785502530E0
8.731624458E0,1.144819336E0,7.627837830E0,-1.020577698E0,7.780494850E0
8.741658458E0,1.155896301E0,6.725214844E0,-9.307644653E-1,6.887011939E0
8.751691458E0,1.053060150E0,6.076763306E0,-6.789880371E-1,6.204596095E0
8.761725458E0,8.069718933E-1,6.153254242E0,-7.450007629E-1,6.250501383E0
8.771758458E0,5.026547241E-1,6.869514771E0,-1.007255402E0,6.961139160E0
8.781792458E0,-1.504371643E-1,7.694149933E0,-8.470884705E-1,7.742101356E0
8.791825458E0,-8.336164856E-1,8.636590118E0,-7.445516968E-1,8.708614273E0
8.801859458E0,-1.136287079E0,9.524094543E0,-1.006956024E0,9.644349933E0
8.811892458E0,-1.422342224E0,1.037971527E1,-1.629062347E0,1.060261244E1
8.821926458E0,-1.322948914E0,1.107516907E1,-2.152972870E0,1.135979119E1
8.831959458E0,-7.855664063E-1,1.111199249E1,-2.333796844E0,1.138156841E1
8.841993458E0,-5.679190063E-1,1.091485245E1,-2.229763184E0,1.115474696E1
8.852026458E0,-2.526745605E-1,1.100062408E1,-2.536175995E0,1.129202211E1
8.862060458E0,1.261875916E-1,1.066367477E1,-2.541564789E0,1.096309421E1
8.872093458E0,-1.445993042E-1,1.002839584E1,-2.252515869E0,1.027927332E1
8.882127458E0,-5.493576050E-1,9.707612915E0,-2.347418518E0,1.000249549E1
8.892160458E0,-6.676116943E-1,9.453291779E0,-2.395019531E0,9.774791526E0
8.902194458E0,-8.671467590E-1,9.091494141E0,-2.362537079E0,9.433387020E0
8.912227458E0,-1.020877075E0,8.636590118E0,-2.448458405E0,9.034811976E0
8.922261458E0,-1.102158051E0,7.980055389E0,-2.534379730E0,8.445064654E0
8.932294458E0,-1.231040039E0,7.291636963E0,-2.711760864E0,7.876361861E0
8.942328458E0,-1.358125763E0,6.985523529E0,-2.817441101E0,7.653758483E0
8.952361458E0,-1.483265533E0,6.770720215E0,-3.075803833E0,7.583092911E0
8.962395458E0,-1.602717133E0,7.141648865E0,-3.111280060E0,7.953107212E0
8.972428458E0,-1.844614105E0,7.945177917E0,-3.006947021E0,8.693111280E0
8.982462458E0,-2.250420227E0,9.129814453E0,-2.942131805E0,9.852616034E0
8.992495458E0,-2.364183655E0,9.984986115E0,-2.987786865E0,1.068719713E1
9.002529458E0,-2.625689850E0,1.065648972E1,-3.190465393E0,1.142952710E1
9.012562458E0,-2.390828247E0,1.150073410E1,-3.763473816E0,1.233477522E1
9.022596458E0,-2.030377808E0,1.163365768E1,-4.131708069E0,1.251141226E1
9.032629458E0,-1.906884613E0,1.078252762E1,-3.559298401E0,1.151380545E1
9.042663458E0,-2.017953644E0,9.416168976E0,-2.759212189E0,1.001746610E1
9.052696458E0,-1.969155121E0,8.224197693E0,-2.094294891E0,8.712122053E0
9.062730458E0,-1.956581268E0,7.337890778E0,-1.417552185E0,7.725432384E0
9.072763458E0,-2.431693268E0,7.031178589E0,-9.033714294E-1,7.494443571E0
9.082797458E0,-2.748434601E0,7.446564789E0,-8.409512329E-1,7.982005944E0
9.092830458E0,-2.520458679E0,8.435408478E0,-8.592132568E-1,8.845737706E0
9.102864458E0,-1.811233521E0,9.680369568E0,-7.366181946E-1,9.875865947E0
9.112897458E0,-8.608598328E-1,1.061457687E1,-1.001417542E0,1.069640869E1
9.122931458E0,2.571652222E-1,1.136840927E1,-1.452429657E0,1.146369989E1
9.132964458E0,1.110091553E0,1.179562088E1,-1.324595490E0,1.192155730E1
9.142998458E0,1.994901581E0,1.205997116E1,-8.776249695E-1,1.225531568E1
9.153031458E0,2.745889893E0,1.275632309E1,-4.044589233E-1,1.305477986E1
9.163065458E0,2.866239624E0,1.370924149E1,1.606159973E-1,1.400658521E1
9.173098458E0,1.618883514E0,1.447789307E1,6.322851562E-1,1.458183651E1
9.183132375E0,-6.237528992E-1,1.490839783E1,4.860392761E-1,1.492935456E1
9.193165375E0,-2.793939972E0,1.561597641E1,4.899311829E-1,1.587151071E1
9.203199375E0,-4.227508850E0,1.634660706E1,7.216493225E-1,1.689982755E1
9.213233375E0,-5.069807281E0,1.651321060E1,5.062472534E-1,1.728135864E1
9.223266375E0,-5.280868378E0,1.570593933E1,-4.683760071E-1,1.657659426E1
9.233300375E0,-5.099745026E0,1.241847565E1,-3.571572876E-1,1.342957550E1
9.243333375E0,-4.368365936E0,1.026191025E1,-1.082249451E-1,1.115352570E1
9.253367375E0,-2.821183319E0,7.947572937E0,-6.870712280E-1,8.461386280E0
9.263400375E0,-1.836381226E0,6.143225098E0,-7.765850830E-1,6.458683689E0
9.273434375E0,-6.212081909E-2,5.552703094E0,-9.315129089E-1,5.630638237E0
9.283467375E0,8.231382751E-1,6.728208618E0,-1.307381287E0,6.903303098E0
9.293501375E0,1.610351257E0,7.593110046E0,-1.147064667E0,7.846292672E0
9.303534375E0,1.817670135E0,8.044571228E0,-1.167422333E0,8.329581374E0
9.313568375E0,2.208507385E0,7.765701141E0,-1.715432739E0,8.253867492E0
9.323601375E0,1.970801697E0,7.463928680E0,-2.030677185E0,7.982351815E0
9.333635375E0,1.214873657E0,7.568261719E0,-2.309996338E0,8.005659656E0
9.343668375E0,6.831793213E-1,7.784112854E0,-2.390828247E0,8.171609793E0
9.353702375E0,1.202000427E-1,7.548203430E0,-2.033670959E0,7.818288857E0
9.363735375E0,-3.526666260E-1,7.665110321E0,-1.970652008E0,7.922231966E0
9.373769375E0,-3.152444458E-1,8.223898315E0,-1.848805389E0,8.435043801E0
9.383802375E0,-5.001100159E-1,8.570427704E0,-1.725312195E0,8.756657080E0
9.393836375E0,-8.252339172E-1,8.528814240E0,-1.846410370E0,8.765324558E0
9.403869375E0,-9.354048157E-1,8.094267883E0,-2.429447937E0,8.502609718E0
9.413903375E0,-1.120120697E0,7.381001129E0,-3.125650177E0,8.093425546E0
9.423936375E0,-1.347497864E0,6.295458527E0,-3.773802338E0,7.462582170E0
9.433970375E0,-1.742676086E0,5.115911407E0,-4.128414917E0,6.800976342E0
9.444003375E0,-2.335144043E0,4.250560913E0,-3.939956818E0,6.248473854E0
9.454037375E0,-3.033890991E0,3.936513977E0,-3.539090424E0,6.101294770E0
9.464070375E0,-3.392994232E0,4.267326050E0,-3.350183258E0,6.398922514E0
9.474104375E0,-3.319048004E0,5.604196014E0,-3.558849335E0,7.422162839E0
9.484137375E0,-2.796334991E0,7.248825989E0,-4.090393982E0,8.780449335E0
9.494171375E0,-2.484832764E0,8.787476349E0,-5.037324829E0,1.042922700E1
9.504204375E0,-2.404749298E0,1.011985565E1,-5.776188354E0,1.189784222E1
9.514238375E0,-2.693648529E0,1.097682358E1,-5.993087311E0,1.279310337E1
9.524271375E0,-3.694167938E0,1.152902527E1,-5.806874542E0,1.342702843E1
9.534305375E0,-5.047503662E0,1.175655212E1,-5.477110291E0,1.391734702E1
9.544338375E0,-6.344855804E0,1.191477310E1,-5.824537811E0,1.470184526E1
9.554372375E0,-8.052355042E0,1.177062286E1,-5.999673615E0,1.547204149E1
9.564405375E0,-9.242380371E0,1.155073013E1,-5.538183289E0,1.579596264E1
9.574439375E0,-7.666457520E0,1.202584213E1,-4.098926239E0,1.483902444E1
9.584472375E0,-5.001848602E0,1.336630463E1,-1.868115234E0,1.439327771E1
9.594506375E0,-1.848506012E0,1.537033722E1,5.224136353E-2,1.548118115E1
9.604539375E0,7.732919312E-1,1.678369812E1,1.453477478E-1,1.680213168E1
9.614573375E0,2.412383423E0,1.676199326E1,-1.642085266E0,1.701412518E1
9.624606375E0,2.663261719E0,1.408361298E1,-3.305725708E0,1.470948469E1
9.634640375E0,2.467019806E0,1.045680496E1,-2.436333618E0,1.101665458E1
9.644673375E0,1.717079315E0,8.424630890E0,-1.299148407E0,8.695432916E0
9.654707375E0,1.085692291E0,7.635921021E0,-7.472460938E-1,7.748831803E0
9.664740375E0,5.331912231E-1,7.706574097E0,-6.659651184E-1,7.753649897E0
9.674774375E0,9.319619751E-1,7.587870941E0,-9.330097961E-1,7.701613196E0
9.684807375E0,1.311722260E0,7.358697510E0,-1.044228516E0,7.547281465E0
9.694841375E0,1.469643860E0,7.445516968E0,-1.496438141E0,7.735302392E0
9.704874375E0,1.884730682E0,8.017776947E0,-1.863025818E0,8.444395900E0
9.714908375E0,1.469344482E0,9.474846954E0,-1.998643799E0,9.794195988E0
9.724941375E0,1.359472961E0,1.103265747E1,-2.055974579E0,1.130463308E1
9.734975375E0,1.114133148E0,1.276919632E1,-2.342029724E0,1.302991829E1
9.745008375E0,1.346899109E0,1.388916733E1,-2.838696899E0,1.424013014E1
9.755042375E0,1.492097168E0,1.339055420E1,-2.923420715E0,1.378693891E1
9.765075375E0,5.303471375E-1,1.164623154E1,-3.544928284E0,1.218533929E1
9.775109375E0,-2.239343262E-1,1.021326141E1,-3.723656616E0,1.087319980E1
9.785143375E0,-8.083190918E-2,9.052275696E0,-2.882256317E0,9.500401599E0
9.795176375E0,-1.895059204E-1,7.634424133E0,-2.498454437E0,8.035086740E0
9.805210375E0,-3.746708679E-1,6.539451141E0,-2.703078918E0,7.086002761E0
9.815243375E0,-1.838177490E-1,5.964197388E0,-2.556234283E0,6.491515475E0
9.825277375E0,-2.398013306E-1,5.614374847E0,-2.097138977E0,5.998058144E0
9.835310375E0,-6.429130554E-1,5.673801270E0,-1.553319855E0,5.917614436E0
9.845344375E0,-9.481283569E-1,6.274053040E0,-1.095422058E0,6.439148889E0
9.855377375E0,-1.122665405E0,7.153773651E0,-1.009949799E0,7.311419401E0
9.865411375E0,-1.577419739E0,8.337212677E0,-1.005608826E0,8.544508024E0
9.875444375E0,-1.992805939E0,9.262139282E0,-1.256487122E0,9.557052866E0
9.885478375E0,-1.719324646E0,9.912985840E0,-1.579665070E0,1.018423818E1
9.895511375E0,-1.345102844E0,1.043031006E1,-2.063009949E0,1.071712086E1
9.905545375E0,-9.696835327E-1,1.101095261E1,-2.743943939E0,1.138905579E1
9.915578375E0,-5.478607178E-1,1.086560486E1,-3.210673370E0,1.134327747E1
9.925612375E0,-3.306623840E-1,1.090347610E1,-2.980901184E0,1.130844378E1
9.935645375E0,-2.194436646E-1,1.057984909E1,-2.778372345E0,1.094078220E1
9.945679375E0,-5.044509888E-1,9.997559967E0,-2.838846588E0,1.040503369E1
9.955712375E0,-8.217910767E-1,9.562564545E0,-2.673440552E0,9.963195553E0
9.965746375E0,-1.194965057E0,8.854836273E0,-2.741548920E0,9.346237606E0
9.975779375E0,-1.824555817E0,8.254285126E0,-2.789000244E0,8.901727317E0
9.985813375E0,-2.442620544E0,7.610024872E0,-3.006497955E0,8.539198067E0
9.995846375E0,-3.084934845E0,6.708599396E0,-3.207380219E0,8.050429598E0
1.000588037E1,-3.775748291E0,6.005810852E0,-3.246149597E0,7.801507954E0
1.001591337E1,-4.212240601E0,5.616620178E0,-3.199596405E0,7.715361966E0
1.002594737E1,-4.650678864E0,5.656287689E0,-3.056943054E0,7.935194084E0
1.003598037E1,-4.564158783E0,6.310726776E0,-2.798879700E0,8.275901486E0
1.004601437E1,-4.421355743E0,7.530839539E0,-2.503992920E0,9.084707552E0
1.005604737E1,-4.242328033E0,9.179960175E0,-2.349663849E0,1.038219322E1
1.006608138E1,-3.655997314E0,1.100062408E1,-2.721939697E0,1.190751873E1
1.007611437E1,-2.296674042E0,1.217583023E1,-3.196902008E0,1.279631728E1
1.008614837E1,-1.298399963E0,1.275647278E1,-4.007915497E0,1.343416640E1
1.009618138E1,-5.596861267E-1,1.230650848E1,-4.688699799E0,1.318132412E1
1.010621537E1,1.945953369E-1,1.063403641E1,-4.405788116E0,1.151223552E1
1.011624837E1,-2.844085693E-2,9.108408966E0,-3.734733582E0,9.844397275E0
1.012628237E1,-6.489006042E-1,7.894882507E0,-2.816692657E0,8.407377672E0
1.013631537E1,-1.271306305E0,7.000791779E0,-1.920805664E0,7.369993192E0
1.014634937E1,-1.817969513E0,6.984475708E0,-1.486858063E0,7.368762512E0
1.015638237E1,-1.854493561E0,7.951614532E0,-1.157542877E0,8.246649353E0
1.016641637E1,-1.473386078E0,9.380543060E0,-7.267387390E-1,9.523318951E0
1.017644937E1,-7.768844604E-1,1.071876022E1,-5.992039490E-1,1.076356890E1
1.018648371E1,3.562591553E-2,1.160880936E1,-7.735913086E-1,1.163461075E1
1.019651671E1,1.125060425E0,1.190070236E1,-1.035845947E0,1.199856052E1
1.020655071E1,2.159110107E0,1.187705154E1,-7.378157043E-1,1.209423341E1
1.021658371E1,2.706821136E0,1.200189194E1,-4.260140991E-1,1.231071804E1
1.022661771E1,2.142943726E0,1.261681320E1,-8.164022827E-1,1.282352120E1
1.023665071E1,8.220904541E-1,1.346734451E1,-1.237925720E0,1.354908340E1
1.024668471E1,-1.081501007E0,1.435574707E1,-8.638536072E-1,1.442232164E1
1.025671771E1,-3.718866577E0,1.497515900E1,2.335144043E-2,1.543003243E1
1.026675171E1,-5.936654663E0,1.601833969E1,-2.487826538E-1,1.708487541E1
1.027678471E1,-7.327562256E0,1.668655014E1,-1.806144104E0,1.831382758E1
1.028681871E1,-7.051087189E0,1.150747009E1,-8.408913574E0,1.590124291E1
1.029685171E1,-6.903344421E0,1.092203751E1,9.430389404E-3,1.292080324E1
1.030688571E1,-4.946912842E0,1.171508835E1,6.974446564E0,1.450372871E1
1.031691871E1,-4.060905304E0,1.067295547E1,1.114133148E0,1.147363165E1
1.032695271E1,-3.164569244E0,8.660690002E0,-3.998335419E0,1.005031024E1
1.033698571E1,-5.400769043E-1,7.514972534E0,-2.561473389E0,7.957866622E0
1.034701971E1,1.194066925E0,7.288942566E0,-4.911286926E-1,7.402410887E0
1.035705271E1,1.796863403E0,7.376061401E0,-5.783972168E-1,7.613773258E0
1.036708671E1,2.026485901E0,7.552245026E0,-1.396595764E0,7.943143569E0
1.037711971E1,1.951641541E0,7.751181335E0,-1.717678070E0,8.175581615E0
1.038715371E1,1.919907532E0,7.529941406E0,-2.035167847E0,8.032930392E0
1.039718771E1,1.430575104E0,6.712341614E0,-2.348466339E0,7.253783097E0
1.040722071E1,8.918453979E-1,6.355483704E0,-2.225122833E0,6.792549812E0
1.041725371E1,3.733236694E-1,6.290369110E0,-2.393372955E0,6.740648946E0
1.042728771E1,-2.462379456E-1,6.501130829E0,-2.254012756E0,6.885194891E0
1.043732171E1,-5.598358154E-1,7.169191589E0,-2.167193298E0,7.510489397E0
1.044735471E1,-7.994874573E-1,7.710316315E0,-2.226470032E0,8.065068299E0
1.045738771E1,-1.204994202E0,8.068521423E0,-2.529140625E0,8.541053874E0
1.046742171E1,-1.430126038E0,7.963439941E0,-2.914589081E0,8.599794515E0
1.047745571E1,-1.528471527E0,7.523055725E0,-3.568279724E0,8.465530866E0
1.048748871E1,-1.598825226E0,6.745722198E0,-4.077520752E0,8.042834424E0
1.049752271E1,-1.943408661E0,5.822142792E0,-4.313130798E0,7.501818526E0
1.050755571E1,-2.622247009E0,5.008285217E0,-3.866908722E0,6.849239612E0
1.051758971E1,-3.461551666E0,4.560566254E0,-3.235671387E0,6.576524448E0
1.052762271E1,-3.814966736E0,4.829407196E0,-2.853067017E0,6.783593182E0
1.053765671E1,-3.277135162E0,6.160289612E0,-3.216361542E0,7.683343318E0
1.054768971E1,-2.315235443E0,7.937094727E0,-4.041445770E0,9.202775221E0
1.055772371E1,-1.184486847E0,9.758806458E0,-4.855453033E0,1.096415691E1
1.056775671E1,-6.322851562E-1,1.101379669E1,-5.383554840E0,1.227542931E1
1.057779071E1,-1.194515991E0,1.132290390E1,-5.554948425E0,1.266856240E1
1.058782371E1,-2.448159027E0,1.102906494E1,-6.769971771E0,1.317065958E1
1.059785771E1,-4.297862549E0,1.053793625E1,-8.323740692E0,1.409980078E1
1.060789071E1,-6.744075623E0,1.029588959E1,-8.212072906E0,1.479614949E1
1.061792471E1,-7.071594543E0,1.187914719E1,-4.827012177E0,1.464314289E1
1.062795771E1,-4.629123688E0,1.456351501E1,-4.772076416E-1,1.528896605E1
1.063799171E1,-2.187550964E0,1.807655960E1,-3.921844482E-2,1.820848495E1
1.064802471E1,2.839595032E-1,1.955608292E1,-6.589297485E-1,1.956924118E1
1.065805871E1,1.357377319E0,1.718695953E1,-2.300715637E0,1.739331319E1
1.066809171E1,3.341052246E-1,1.340657089E1,-3.511547699E0,1.386285456E1
1.067812571E1,9.160949707E-2,1.055739578E1,-2.458936615E0,1.084035826E1
1.068815871E1,5.134323120E-1,9.256301422E0,-5.745053101E-1,9.288314438E0
1.069819271E1,6.435118103E-1,8.792715454E0,9.503736877E-1,8.867308648E0
1.070822571E1,3.438349915E-1,8.954379272E0,7.444020081E-1,8.991844361E0
1.071825971E1,5.592370605E-1,9.111552429E0,-4.182302856E-1,9.138273925E0
1.072829271E1,8.343649292E-1,9.247918854E0,-9.454339600E-1,9.333488808E0
1.073832671E1,9.180409241E-1,9.740095367E0,-1.334175568E0,9.873817972E0
1.074835971E1,8.699908447E-1,9.912087708E0,-1.539997559E0,1.006866224E1
1.075839371E1,8.159532166E-1,9.381740570E0,-1.382225647E0,9.518055658E0
1.076842671E1,4.230203247E-1,9.119336243E0,-1.467697906E0,9.246371010E0
1.077846071E1,-2.679428101E-2,9.097032623E0,-1.401535492E0,9.204402328E0
1.078849371E1,-1.251397705E-1,9.558223572E0,-1.688937836E0,9.707100948E0
1.079852771E1,3.174897766E-1,9.963880005E0,-2.336940308E0,1.023918915E1
1.080856071E1,5.269042969E-1,1.033256332E1,-2.404599609E0,1.062175090E1
1.081859471E1,4.150868225E-1,1.119985977E1,-2.619402924E0,1.150957982E1
1.082862771E1,2.865042114E-1,1.149594406E1,-2.342628479E0,1.173570291E1
1.083866171E1,1.796264648E-1,8.977581024E0,-2.148482208E0,9.232832854E0
1.084869471E1,-2.730322266E-1,7.067253571E0,-3.044518890E0,7.699981487E0
1.085872871E1,-2.860551453E-1,6.171216888E0,-2.855162659E0,6.805710781E0
1.086876171E1,-3.665876770E-1,5.932463379E0,-2.064207458E0,6.292015631E0
1.087879571E1,-5.164260864E-1,6.315816193E0,-1.485660553E0,6.508718565E0
1.088882871E1,-8.442443848E-1,6.797065430E0,-1.301393738E0,6.971834242E0
1.089886271E1,-1.096918945E0,7.516319733E0,-1.117725677E0,7.677734313E0
1.090889571E1,-1.251846771E0,8.272846527E0,-7.930508423E-1,8.404524950E0
1.091892971E1,-1.522034912E0,9.030421143E0,-7.674540710E-1,9.189890208E0
1.092896271E1,-1.665736084E0,9.845176849E0,-1.143172760E0,1.005032476E1
1.093899671E1,-1.592388611E0,1.044947021E1,-1.782193909E0,1.071929776E1
1.094902971E1,-1.301842804E0,1.077758789E1,-2.484533386E0,1.113661087E1
1.095906371E1,-1.021625519E0,1.051847672E1,-2.782264252E0,1.092808608E1
1.096909671E1,-9.687854004E-1,1.001148102E1,-3.116070099E0,1.052987133E1
1.097913071E1,-1.016536102E0,9.351653137E0,-3.443738708E0,1.001728997E1
1.098916371E1,-1.117276611E0,8.522377625E0,-3.701652374E0,9.358496551E0
1.099919771E1,-1.309925995E0,7.893086243E0,-3.525169373E0,8.743199394E0
1.100923071E1,-1.581012268E0,7.713759155E0,-3.421435089E0,8.585330405E0
1.101926471E1,-1.985321503E0,7.298971710E0,-3.469036102E0,8.321700606E0
1.102929771E1,-2.502196655E0,6.854845276E0,-3.219804382E0,7.976028593E0
1.103933171E1,-2.617606659E0,6.480773163E0,-2.999013519E0,7.605679950E0
1.104936471E1,-2.720742188E0,6.264323273E0,-2.805915070E0,7.383586086E0
1.105939871E1,-3.057092743E0,6.272855530E0,-2.509830780E0,7.415779331E0
1.106943171E1,-3.508853302E0,6.897506561E0,-2.189347229E0,8.042443009E0
1.107946571E1,-3.698508911E0,8.209827576E0,-1.908381500E0,9.204463968E0
1.108949871E1,-3.904630280E0,9.691745911E0,-1.735790405E0,1.059193300E1
1.109953271E1,-3.673061829E0,1.085063599E1,-2.110760651E0,1.164830438E1
1.110956571E1,-2.975362701E0,1.156001083E1,-3.091521149E0,1.233061786E1
1.111959971E1,-2.465971985E0,1.126677063E1,-4.451443176E0,1.236270539E1
1.112963271E1,-1.952090607E0,1.008991791E1,-5.369484100E0,1.159519127E1
1.113966671E1,-1.348994751E0,9.055119781E0,-5.149291992E0,1.050381784E1
1.114970071E1,-1.479373627E0,8.467142487E0,-4.631518707E0,9.763811436E0
1.115973371E1,-1.795366516E0,7.947722626E0,-4.184099121E0,9.159493508E0
1.116976771E1,-2.010319519E0,7.929759979E0,-3.826642456E0,9.031371456E0
1.117980071E1,-1.862576752E0,8.625962219E0,-3.440146179E0,9.471590262E0
1.118983450E1,-1.253643036E0,9.826465759E0,-2.712658997E0,1.027081151E1
1.119986750E1,-1.704954529E-1,1.089060287E1,-1.781146088E0,1.103661094E1
1.120990150E1,1.150208130E0,1.099897751E1,-9.116043091E-1,1.109646373E1
1.121993450E1,2.116448822E0,1.069525909E1,-5.728587341E-1,1.091769618E1
1.122996850E1,2.510429535E0,1.070019882E1,-6.289920044E-1,1.100873027E1
1.124000150E1,2.334395599E0,1.166584076E1,-4.652325439E-1,1.190620362E1
1.125003550E1,1.636846161E0,1.317245773E1,-3.682342529E-1,1.327887437E1
1.126006850E1,3.706292725E-1,1.374142456E1,-5.878276062E-1,1.375898457E1
1.127010250E1,-1.472188568E0,1.327394669E1,-9.177415466E-1,1.338683119E1
1.128013550E1,-3.728147278E0,1.328337708E1,-9.683363342E-1,1.383057714E1
1.129016950E1,-5.771847382E0,1.436308182E1,-6.587800598E-1,1.549342869E1
1.130020250E1,-7.378157043E0,1.663326096E1,-2.646496582E-1,1.819814855E1
1.131023650E1,-7.860753479E0,1.841171265E1,-3.680845642E-1,2.002293920E1
1.132026950E1,-7.350913696E0,1.607821518E1,-1.480421448E-1,1.767956029E1
1.133030350E1,-6.377937012E0,1.036938675E1,-7.876620483E-1,1.219928988E1
1.134033650E1,-5.416186981E0,6.854246521E0,-2.036964111E0,8.970228513E0
1.135037050E1,-2.681523743E0,5.832770691E0,-2.356699219E0,6.838553555E0
1.136040350E1,-3.101550293E-1,6.370901642E0,-2.292931824E0,6.778061686E0
1.137043750E1,1.067879333E0,6.968908081E0,-2.184856567E0,7.381032742E0
1.138047050E1,1.648072815E0,7.068750458E0,-1.812880096E0,7.481304116E0
1.139050450E1,1.401834869E0,6.523733826E0,-1.792073364E0,6.909107828E0
1.140053750E1,1.282233582E0,6.301446075E0,-2.305655365E0,6.831426810E0
1.141057150E1,1.028062134E0,6.314768372E0,-2.540067902E0,6.883687695E0
1.142060450E1,9.907896423E-1,6.490502930E0,-2.938688965E0,7.193343119E0
1.143063850E1,7.438032532E-1,6.560557251E0,-3.399281158E0,7.426255255E0
1.144067150E1,4.417314148E-1,6.723119202E0,-3.339555359E0,7.519846304E0
1.145070550E1,-1.369651794E-1,6.978787537E0,-3.010689240E0,7.601742211E0
1.146073850E1,-7.213499451E-1,7.373965759E0,-2.748883667E0,7.902662727E0
1.147077250E1,-1.181193695E0,7.904911652E0,-2.501597900E0,8.375012765E0
1.148080550E1,-1.438957672E0,8.257877655E0,-2.702031097E0,8.807049143E0
1.149083950E1,-1.403331757E0,8.468639374E0,-3.171155548E0,9.151143118E0
1.150087250E1,-1.218316498E0,8.253686371E0,-3.421135712E0,9.017305770E0
1.151090650E1,-1.074914703E0,7.773634644E0,-3.251089325E0,8.494375727E0
1.152093950E1,-1.025966492E0,7.260501709E0,-3.193459167E0,7.997854322E0
1.153097350E1,-1.024619293E0,6.481222229E0,-3.161276093E0,7.283526125E0
1.154100650E1,-1.478176117E0,5.564378815E0,-3.222798157E0,6.598010623E0
1.155104050E1,-2.261946259E0,5.081033936E0,-3.807482300E0,6.740194967E0
1.156107350E1,-2.610571289E0,5.303621063E0,-4.780458984E0,7.602385608E0
1.157110750E1,-2.533182220E0,6.126310272E0,-5.888604584E0,8.867037479E0
1.158114050E1,-1.946252747E0,7.525600433E0,-6.559659119E0,1.017112036E1
1.159117450E1,-1.347348175E0,9.235794067E0,-6.646179199E0,1.145805119E1
1.160120750E1,-1.168619843E0,1.049587372E1,-6.307433624E0,1.230092502E1
1.161124150E1,-1.215472412E0,1.113145203E1,-6.093827820E0,1.274838558E1
1.162127450E1,-1.143023071E0,1.068927155E1,-6.195915527E0,1.240791671E1
1.163130850E1,-1.318158875E0,9.526938629E0,-7.304061127E0,1.207681297E1
1.164134150E1,-2.455194397E0,8.557105408E0,-8.360564117E0,1.221274191E1
1.165137550E1,-4.708458710E0,7.992479553E0,-7.734715576E0,1.207787804E1
1.166140850E1,-5.696703644E0,8.633596344E0,-5.777236176E0,1.184769497E1
1.167144250E1,-3.589834900E0,1.173843979E1,-2.438129883E0,1.251488556E1
1.168147550E1,-1.580263824E0,1.661724426E1,-1.172062683E-1,1.669262645E1
1.169150950E1,2.996768188E-1,2.043116318E1,8.198451233E-1,2.044980149E1
1.170154250E1,1.298699341E0,1.981309845E1,9.879455566E-3,1.985561854E1
1.171157650E1,6.500981140E-1,1.547856216E1,-2.622845764E0,1.571266477E1
1.172160950E1,-1.227447510E-1,1.231983078E1,-2.669099579E0,1.260624406E1
1.173164350E1,-7.298822021E-1,1.157018967E1,-1.236129456E0,1.165890359E1
1.174167650E1,-1.214125214E0,1.127859604E1,-1.126557312E0,1.139955964E1
1.175171050E1,-8.840615845E-1,1.101634140E1,-9.268725586E-1,1.109055614E1
1.176174350E1,-3.365002441E-1,1.095975906E1,-7.631130981E-1,1.099144634E1
1.177177750E1,3.927832031E-1,1.101978424E1,-1.201102295E0,1.109200478E1
1.178181050E1,9.666897583E-1,1.096514786E1,-1.823358307E0,1.115766966E1
1.179184450E1,1.146914978E0,1.059826080E1,-2.166145477E0,1.087799302E1
1.180187750E1,1.335223389E0,1.036190231E1,-2.119292908E0,1.066035851E1
1.181191150E1,1.731449432E0,1.041174866E1,-1.773062897E0,1.070262488E1
1.182194550E1,1.672322388E0,1.063343765E1,-1.762434998E0,1.090746697E1
1.183197850E1,1.456171875E0,1.043809387E1,-2.283651123E0,1.078375179E1
1.184201250E1,1.173110504E0,9.791737976E0,-2.697390747E0,1.022400302E1
1.185204550E1,1.154848480E0,9.127569122E0,-2.862497406E0,9.635355961E0
1.186207950E1,8.985813904E-1,8.542585602E0,-2.678380280E0,8.997607360E0
1.187211250E1,1.233435059E-1,8.107290802E0,-2.521955566E0,8.491386085E0
1.188214650E1,-5.528004456E-1,7.855514374E0,-2.645149384E0,8.307316635E0
1.189217950E1,-1.081650696E0,7.585625610E0,-2.525697784E0,8.067889032E0
1.190221350E1,-1.367256775E0,7.292834473E0,-2.005529480E0,7.686154710E0
1.191224650E1,-1.884281616E0,7.415130157E0,-1.332528992E0,7.765971026E0
1.192228050E1,-1.907932434E0,7.244634705E0,-4.531077576E-1,7.505347748E0
1.193231350E1,-1.524280243E0,7.725883942E0,-8.457412720E-2,7.875269248E0
1.194234750E1,-1.696571960E0,7.835456085E0,2.993774414E-2,8.017083307E0
1.195238050E1,-1.716779938E0,7.945926361E0,-1.219963074E-1,8.130188324E0
1.196241450E1,-1.437610474E0,8.113128662E0,-6.752458191E-1,8.267135990E0
1.197244750E1,-1.354383545E0,8.153394928E0,-1.404379578E0,8.383584295E0
1.198248150E1,-1.362466736E0,8.440048828E0,-2.038311310E0,8.788939232E0
1.199251450E1,-1.378184052E0,8.619076538E0,-2.821632385E0,9.173302620E0
1.200254850E1,-1.302291870E0,8.733139343E0,-3.519780579E0,9.505395427E0
1.201258150E1,-9.590556335E-1,8.651109924E0,-3.387156372E0,9.339931419E0
1.202261550E1,-6.647676086E-1,8.384514313E0,-3.508853302E0,9.113399351E0
1.203264850E1,-3.408412170E-1,8.004005585E0,-3.533102875E0,8.755746345E0
1.204268250E1,-2.025288391E-1,7.855963440E0,-3.709885254E0,8.690249024E0
1.205271550E1,-1.633103943E-1,7.802973633E0,-3.601959686E0,8.595765317E0
1.206274950E1,-5.734574890E-1,7.447013855E0,-3.454815674E0,8.229375443E0
1.207278250E1,-1.023870850E0,7.088060303E0,-3.446582794E0,7.947820036E0
1.208281650E1,-1.107846222E0,6.682703247E0,-3.642375641E0,7.691082255E0
1.209284950E1,-1.328936462E0,6.398893433E0,-3.945644989E0,7.634135423E0
1.210288350E1,-1.516197052E0,6.516997833E0,-3.890709229E0,7.740008563E0
1.211291650E1,-1.573078766E0,7.588469696E0,-3.605103149E0,8.547293013E0
1.212295050E1,-1.601519623E0,9.171278229E0,-3.469784546E0,9.935623496E0
1.213298350E1,-1.719474335E0,1.094089828E1,-3.664828949E0,1.166579695E1
1.214301750E1,-1.537602539E0,1.244347366E1,-3.939358063E0,1.314240466E1
1.215305050E1,-1.213975525E0,1.271306305E1,-4.829556885E0,1.365358299E1
1.216308450E1,-5.547463989E-1,1.175759995E1,-5.711073761E0,1.308301431E1
1.217311750E1,-4.281097412E-1,1.040156982E1,-6.357878723E0,1.219830130E1
1.218315150E1,-4.917274475E-1,8.705147552E0,-6.190526733E0,1.069317591E1
1.219318446E1,-2.177970886E-1,7.078629913E0,-5.102738800E0,8.728824679E0
1.220321846E1,-2.806663513E-1,6.124963074E0,-3.989503784E0,7.315058899E0
1.221325146E1,-8.422984314E-1,5.800587616E0,-2.845283203E0,6.515513782E0
1.222328546E1,-1.684147797E0,6.165678406E0,-2.051483917E0,6.712714076E0
1.223331846E1,-2.448308716E0,7.202721863E0,-1.749412079E0,7.806014375E0
1.224335246E1,-2.713856506E0,8.414601746E0,-1.441352692E0,8.958126883E0
1.225338546E1,-2.632425842E0,9.818981323E0,-1.026565247E0,1.021743100E1
1.226341946E1,-2.326013031E0,1.129775620E1,-1.012045441E0,1.157902706E1
1.227345246E1,-1.638792114E0,1.236428833E1,-1.159488831E0,1.252619974E1
1.228348646E1,-6.149212646E-1,1.295016998E1,-1.181792450E0,1.301851236E1
1.229351946E1,4.773573303E-1,1.343396393E1,-1.119671631E0,1.348899260E1
1.230355346E1,1.243763580E0,1.439810898E1,-8.922944641E-1,1.447924996E1
1.231358646E1,1.211580505E0,1.566417618E1,-3.577560425E-1,1.571503522E1
1.232362046E1,9.738748169E-1,1.669717804E1,-8.337661743E-2,1.672576271E1
1.233365346E1,7.484436035E-3,1.734293518E1,-3.150947571E-1,1.734579896E1
1.234368746E1,-2.131866760E0,1.751073624E1,-2.782713318E-1,1.764222702E1
1.235372046E1,-3.886218567E0,1.659643753E1,4.424798584E-1,1.705110618E1
1.236375446E1,-4.696184235E0,1.477337860E1,1.156045990E0,1.554488031E1
1.237378746E1,-5.797893219E0,1.271979904E1,1.007255402E0,1.401511387E1
1.238382146E1,-5.878575439E0,1.019215530E1,2.809657288E-1,1.176930842E1
1.239385446E1,-5.009033661E0,8.368198242E0,-4.465214539E-1,9.763019074E0
1.240388846E1,-3.693120117E0,7.277117157E0,-1.303639069E0,8.264081627E0
1.241392146E1,-2.963237915E0,6.743177490E0,-1.252595215E0,7.471292818E0
1.242395546E1,-2.106569366E0,6.076164551E0,-1.085093536E0,6.521873820E0
1.243398846E1,-1.268312531E0,5.700296173E0,-1.130449219E0,5.948101258E0
1.244402246E1,-1.010249176E0,6.295159149E0,-1.778302002E0,6.619062632E0
1.245405546E1,-5.177732849E-1,6.624324646E0,-2.537074127E0,7.112419512E0
1.246408946E1,-1.318757629E-1,6.054010620E0,-3.126997375E0,6.815170459E0
1.247412246E1,-4.626878357E-1,5.624403992E0,-2.997816010E0,6.390219176E0
1.248415646E1,-5.388793945E-1,5.804928589E0,-2.509681091E0,6.347132116E0
1.249418946E1,-2.903961182E-1,6.404880981E0,-2.136357422E0,6.758021406E0
1.250422346E1,-3.353027344E-2,6.899452515E0,-1.704804840E0,7.107033757E0
1.251425646E1,1.832189941E-1,7.203470306E0,-1.470541992E0,7.354321682E0
1.252429046E1,1.833686829E-1,7.598199463E0,-1.618434448E0,7.770816509E0
1.253432346E1,-6.137237549E-2,8.014932861E0,-1.739233246E0,8.201697850E0
1.254435746E1,-5.623805237E-1,8.055498505E0,-1.806892548E0,8.274792365E0
1.255439046E1,-9.240284729E-1,7.817493439E0,-2.125729523E0,8.153879953E0
1.256442446E1,-1.067430267E0,7.364685059E0,-2.467468872E0,7.840050767E0
1.257445746E1,-1.219663696E0,6.745273132E0,-2.789000244E0,7.400325096E0
1.258449146E1,-1.394500122E0,6.090983734E0,-2.958298187E0,6.913482596E0
1.259452446E1,-1.697470093E0,5.562432861E0,-3.303929443E0,6.688648131E0
1.260455846E1,-2.060315552E0,5.308860168E0,-3.861819305E0,6.880591894E0
1.261459146E1,-2.371518402E0,5.679339752E0,-4.546794891E0,7.651950296E0
1.262462546E1,-2.650837555E0,6.756350098E0,-5.359454956E0,9.022137430E0
1.263465946E1,-2.861299896E0,8.117170258E0,-5.878276062E0,1.042255341E1
1.264469246E1,-3.098855896E0,9.466015320E0,-6.272556152E0,1.177086720E1
1.265472646E1,-3.219055939E0,1.042222687E1,-6.391408997E0,1.264259637E1
1.266475946E1,-3.293451233E0,1.072684341E1,-6.300248566E0,1.286876539E1
1.267479346E1,-3.771407318E0,1.036908737E1,-6.643634491E0,1.287941634E1
1.268482646E1,-5.022655334E0,9.643995209E0,-7.439978485E0,1.317524156E1
1.269486046E1,-6.384074249E0,9.422455902E0,-7.191345520E0,1.346308024E1
1.270489346E1,-6.257138214E0,1.047312103E1,-4.273762665E0,1.292683604E1
1.271492746E1,-5.318440247E0,1.371013962E1,-2.327659607E-1,1.470741021E1
1.272496046E1,-3.315006409E0,1.865765121E1,2.111509094E0,1.906713631E1
1.273499446E1,-9.849517822E-2,2.228700394E1,1.316811676E0,2.232608875E1
1.274502746E1,8.743318176E-1,1.967523514E1,-2.350262604E0,1.983439105E1
1.275506146E1,2.188449097E-1,1.382135834E1,-4.099524994E0,1.441818104E1
1.276509446E1,5.656736755E-1,9.836195526E0,-2.608475647E0,1.019190239E1
1.277512846E1,9.461824036E-1,7.869136047E0,-7.896080017E-1,7.965051417E0
1.278516146E1,2.093247070E0,7.518565063E0,5.432203674E-1,7.823400302E0
1.279519546E1,3.195255432E0,8.113128662E0,8.128097534E-2,8.720041316E0
1.280522846E1,3.735931091E0,9.240434418E0,-1.869612122E0,1.014092002E1
1.281526246E1,3.814817047E0,1.037327866E1,-2.630479889E0,1.136121312E1
1.282529546E1,3.250191193E0,1.168080963E1,-2.481090546E0,1.237581782E1
1.283532946E1,2.082619171E0,1.277084290E1,-2.160008240E0,1.311858859E1
1.284536246E1,4.492158508E-1,1.353500381E1,-2.003583527E0,1.368986742E1
1.285539646E1,-5.420228577E-1,1.328996338E1,-1.728305969E0,1.341282807E1
1.286542946E1,-9.614506531E-1,1.227312790E1,-1.938169556E0,1.246236563E1
1.287546346E1,-6.971003723E-1,1.085737198E1,-2.414329376E0,1.114439148E1
1.288549646E1,-1.199006653E-1,9.904453583E0,-2.146835632E0,1.013516059E1
1.289553046E1,4.902305603E-1,8.972341919E0,-2.025138702E0,9.211103749E0
1.290556346E1,5.066963196E-1,8.461005249E0,-2.862647095E0,8.946513252E0
1.291559746E1,5.292993164E-1,8.462352448E0,-3.114124146E0,9.032681546E0
1.292563046E1,4.511618042E-1,8.718320160E0,-2.626288605E0,9.116471095E0
1.293566446E1,2.561174011E-1,7.901618500E0,-2.257006531E0,8.221633020E0
1.294569746E1,2.109114075E-1,7.115453339E0,-2.572999420E0,7.569312112E0
1.295573146E1,-1.353186035E-1,6.913373566E0,-2.955154724E0,7.519706419E0
1.296576446E1,-8.913963318E-1,6.900949402E0,-2.912792816E0,7.543344885E0
1.297579846E1,-1.604962463E0,7.206913147E0,-2.825075226E0,7.905476055E0
1.298583146E1,-2.196532288E0,7.843988342E0,-2.488275604E0,8.517301374E0
1.299586546E1,-2.330803070E0,8.553363190E0,-1.891466675E0,9.064784112E0
1.300589846E1,-2.434088287E0,8.778345337E0,-1.678010559E0,9.262820957E0
1.301593246E1,-2.241887970E0,9.121731262E0,-2.325713654E0,9.676827315E0
1.302596546E1,-1.667831726E0,9.180708618E0,-2.756068726E0,9.729490645E0
1.303599946E1,-1.194515991E0,9.151369629E0,-2.981799316E0,9.698740212E0
1.304603246E1,-7.568261719E-1,8.987909546E0,-3.294798431E0,9.602655912E0
1.305606646E1,-4.119433594E-1,8.661139069E0,-3.275189209E0,9.268866794E0
1.306609946E1,-4.113446045E-1,8.422984314E0,-3.163072357E0,9.006713933E0
1.307613346E1,-7.435038757E-1,8.154442749E0,-3.181035004E0,8.784458905E0
1.308616646E1,-1.250200195E0,7.874524841E0,-3.210823059E0,8.595378219E0
1.309620046E1,-1.588496704E0,7.440277863E0,-3.281476135E0,8.285477782E0
1.310623346E1,-1.738933868E0,7.020999756E0,-3.732338562E0,8.139329193E0
1.311626746E1,-1.932032318E0,6.895261230E0,-4.028722229E0,8.216323942E0
1.312630046E1,-2.309397583E0,6.718628540E0,-4.039948883E0,8.172788608E0
1.313633446E1,-2.995570679E0,6.275100861E0,-3.992497559E0,8.018127665E0
1.314636746E1,-4.450395355E0,6.178551636E0,-3.892655182E0,8.551800015E0
1.315640146E1,-5.750441895E0,6.262976074E0,-3.638334045E0,9.248239071E0
1.316643446E1,-6.100264435E0,6.479425964E0,-3.011437683E0,9.394942465E0
1.317646846E1,-5.979016571E0,7.055877228E0,-2.305056610E0,9.531386499E0
1.318650433E1,-6.066584473E0,7.951165466E0,-1.578317871E0,1.012499712E1
1.319653833E1,-6.126909027E0,9.014703827E0,-1.514550476E0,1.100444285E1
1.320657133E1,-5.266498260E0,1.022897873E1,-2.213596802E0,1.171614359E1
1.321660533E1,-4.220024414E0,1.075139236E1,-3.241958313E0,1.199630516E1
1.322663833E1,-3.702101440E0,9.593999176E0,-4.191284180E0,1.110482951E1
1.323667233E1,-3.046165466E0,7.814200287E0,-4.857997742E0,9.692316144E0
1.324670533E1,-2.301314392E0,6.621480560E0,-4.934638367E0,8.572672194E0
1.325673933E1,-1.262175293E0,6.606212311E0,-4.354594574E0,8.012341822E0
1.326677233E1,4.028123474E-1,7.406897278E0,-3.722758484E0,8.299597328E0
1.327680633E1,1.660347290E0,8.644972687E0,-2.818488922E0,9.243169677E0
1.328683933E1,2.410437469E0,1.025352768E1,-1.874851227E0,1.069860298E1
1.329687333E1,3.035986633E0,1.190100174E1,-9.916877747E-1,1.232211434E1
1.330690633E1,3.912713470E0,1.294493088E1,-2.140548706E-2,1.352335093E1
1.331694033E1,4.600533142E0,1.357302475E1,1.173260193E0,1.437944524E1
1.332697333E1,3.729045410E0,1.436607559E1,2.230511627E0,1.500883372E1
1.333700733E1,1.841021576E0,1.452938599E1,2.118245087E0,1.479795188E1
1.334704033E1,-8.780740356E-1,1.478280899E1,1.379830627E0,1.487300871E1
1.335707433E1,-3.821702728E0,1.598286346E1,3.932322693E-1,1.643812544E1
1.336710733E1,-6.280339966E0,1.839824066E1,-2.950364685E-1,1.944286440E1
1.337714133E1,-7.197183380E0,2.092169312E1,-5.254074097E-1,2.213126170E1
1.338717433E1,-6.693929901E0,2.048011139E1,-7.996371460E-1,2.156114746E1
1.339720833E1,-6.409820709E0,1.696796494E1,-1.450633392E0,1.819620765E1
1.340724133E1,-6.196514282E0,1.160357025E1,-9.880952454E-1,1.319151106E1
1.341727533E1,-5.591622162E0,8.331973572E0,-1.395098877E0,1.013085993E1
1.342730933E1,-4.375251617E0,6.831044769E0,-2.205513611E0,8.406562296E0
1.343734233E1,-2.706821136E0,6.819069672E0,-2.732567596E0,7.829017660E0
1.344737633E1,-9.309141541E-1,7.118297424E0,-2.734064484E0,7.681918249E0
1.345740933E1,4.604425049E-1,6.967411194E0,-2.709665222E0,7.489934022E0
1.346744233E1,8.568182373E-1,6.965465240E0,-2.895728302E0,7.591909240E0
1.347747633E1,1.273551636E0,7.231013031E0,-3.512445831E0,8.139211199E0
1.348750933E1,1.722019043E0,7.464228058E0,-3.723506927E0,8.517309078E0
1.349754333E1,1.908980255E0,7.594307556E0,-3.672912140E0,8.649161604E0
1.350757733E1,1.551373901E0,7.198081512E0,-3.416944427E0,8.117551827E0
1.351761033E1,1.038390656E0,6.757248230E0,-3.198997650E0,7.547996076E0
1.352764433E1,6.321354675E-1,6.397246857E0,-2.963088226E0,7.078435875E0
1.353767733E1,1.483415222E-1,6.129453735E0,-2.812501373E0,6.745544624E0
1.354771133E1,-1.824705505E-1,6.201154633E0,-2.725532227E0,6.776144936E0
1.355774433E1,-4.926255798E-1,6.414760437E0,-3.056643677E0,7.122843673E0
1.356777833E1,-5.876779175E-1,6.392307129E0,-3.346441040E0,7.239172839E0
1.357781133E1,-6.313870239E-1,6.245163116E0,-3.256328430E0,7.071377997E0
1.358784533E1,-8.873547363E-1,5.947881317E0,-2.938688965E0,6.693323795E0
1.359787833E1,-1.094673615E0,5.199138336E0,-2.572250977E0,5.903035223E0
1.360791233E1,-1.496887207E0,4.185296631E0,-2.390528870E0,5.046980035E0
1.361794533E1,-2.155667267E0,3.087180176E0,-2.926863556E0,4.769078850E0
1.362797933E1,-2.677482147E0,2.858455811E0,-4.155658264E0,5.710444455E0
1.363801233E1,-2.608325958E0,3.979474640E0,-5.227429504E0,7.068635083E0
1.364804633E1,-2.236349487E0,5.960455170E0,-5.904471588E0,8.682803095E0
1.365807933E1,-1.657054138E0,8.330925751E0,-6.175408173E0,1.050170550E1
1.366811333E1,-1.330882416E0,1.071067703E1,-6.104306030E0,1.239969365E1
1.367814633E1,-1.695075073E0,1.256487122E1,-5.565726013E0,1.384653654E1
1.368818033E1,-2.434986420E0,1.321901093E1,-5.076992340E0,1.436827268E1
1.369821333E1,-2.989882507E0,1.244182709E1,-5.435347137E0,1.390257016E1
1.370824733E1,-3.647764435E0,1.098834961E1,-6.264772339E0,1.316424646E1
1.371828033E1,-4.286336517E0,9.829160156E0,-6.670279083E0,1.262844777E1
1.372831433E1,-4.387077026E0,8.719367981E0,-6.518195343E0,1.173715014E1
1.373834733E1,-4.057013397E0,7.756719818E0,-6.850653992E0,1.111564304E1
1.374838133E1,-4.331392822E0,7.368127899E0,-7.824977875E0,1.158794854E1
1.375841433E1,-4.296665039E0,8.181835785E0,-6.432573395E0,1.125974102E1
1.376844833E1,-2.797682190E0,1.111019623E1,-2.426753540E0,1.171121764E1
1.377848133E1,-5.429209900E-1,1.617775818E1,3.724255371E-1,1.619114955E1
1.378851533E1,1.848056946E0,2.229987717E1,-1.160536652E0,2.240639823E1
1.379854833E1,1.673070831E0,2.268936722E1,-3.079096985E0,2.295838385E1
1.380858233E1,-6.652166748E-1,1.656081161E1,-2.793341217E0,1.680790736E1
1.381861533E1,-1.256936188E0,1.229692841E1,-2.606230316E0,1.263276586E1
1.382864933E1,-6.146218872E-1,1.025682083E1,-1.774110718E0,1.042725287E1
1.383868233E1,4.698728943E-1,8.226443024E0,-2.856060791E-1,8.244799342E0
1.384871633E1,1.077609100E0,6.810238037E0,7.920030212E-1,6.940306354E0
1.385874933E1,1.416504364E0,6.543492737E0,5.075944519E-1,6.714270916E0
1.386878333E1,1.316811676E0,7.045099640E0,-1.159039764E0,7.260220045E0
1.387881633E1,9.057664490E-1,7.813002777E0,-2.540966034E0,8.265587314E0
1.388885033E1,4.854405212E-1,9.137298889E0,-2.889890442E0,9.595694360E0
1.389888333E1,4.656816101E-1,1.067579956E1,-3.003504181E0,1.110002671E1
1.390891733E1,1.411564636E-1,1.226998444E1,-3.525169373E0,1.276711644E1
1.391895033E1,-7.664062500E-2,1.339863739E1,-4.415517883E0,1.410766302E1
1.392898433E1,-3.481759644E-1,1.346584763E1,-4.764292603E0,1.428806365E1
1.393901733E1,-7.155120850E-1,1.173529633E1,-4.704267426E0,1.266330405E1
1.394905133E1,-7.310797119E-1,9.030271454E0,-3.992347870E0,9.900460676E0
1.395908433E1,-5.930667114E-1,7.161258087E0,-3.061433716E0,7.810744005E0
1.396911833E1,-1.097817078E0,6.650220795E0,-2.117796021E0,7.065104312E0
1.397915133E1,-1.494941254E0,6.637048187E0,-1.403331757E0,6.946552959E0
1.398918533E1,-1.342408447E0,6.406078491E0,-9.734257507E-1,6.617209364E0
1.399921833E1,-1.374142456E0,6.483317871E0,-5.093907166E-1,6.646890778E0
1.400925233E1,-1.380579071E0,6.546187134E0,2.230361938E-1,6.693900933E0
1.401928533E1,-1.761087799E0,6.791077881E0,5.032534790E-1,7.033735358E0
1.402931933E1,-2.039808197E0,7.555538177E0,-1.047821045E-3,7.826044705E0
1.403935233E1,-1.969454498E0,8.102949829E0,-6.438111877E-1,8.363673822E0
1.404938633E1,-2.182611237E0,8.595425720E0,-1.320404205E0,8.965969127E0
1.405941933E1,-2.076332245E0,9.067993011E0,-2.301464081E0,9.583130478E0
1.406945333E1,-1.792821808E0,9.291178894E0,-2.953358459E0,9.912746414E0
1.407948633E1,-1.540446625E0,9.176217957E0,-3.374582520E0,9.897664319E0
1.408952033E1,-1.269360352E0,9.101972351E0,-3.670367432E0,9.895896799E0
1.409955333E1,-1.162781982E0,9.098828888E0,-3.813170471E0,9.933831995E0
1.410958733E1,-9.627978516E-1,9.122479706E0,-3.534001007E0,9.830349882E0
1.411962033E1,-6.366261292E-1,9.192084961E0,-3.384761353E0,9.816125925E0
1.412965433E1,-5.195695496E-1,8.966054993E0,-3.456013184E0,9.623103542E0
1.413968733E1,-7.322772217E-1,8.878786469E0,-3.534001007E0,9.584270562E0
1.414972133E1,-9.014254761E-1,8.677305450E0,-3.554059296E0,9.420166413E0
1.415975433E1,-9.831555176E-1,8.471932526E0,-3.580554199E0,9.249897506E0
1.416978833E1,-1.136736145E0,8.387957153E0,-3.560944977E0,9.183154327E0
1.417982133E1,-1.288520508E0,8.160729675E0,-3.373235321E0,8.923929093E0
1.418985262E1,-9.831555176E-1,7.458390198E0,-3.232827301E0,8.188122585E0
1.419988562E1,-8.500822449E-1,7.207511902E0,-3.328628082E0,7.984399323E0
1.420991962E1,-6.926097107E-1,7.209757233E0,-3.325634308E0,7.969953018E0
1.421995262E1,-7.170089722E-1,7.790699158E0,-3.176993408E0,8.444073800E0
1.422998662E1,-1.068328400E0,8.483907623E0,-3.172053680E0,9.120303651E0
1.424001962E1,-1.658251648E0,9.009315033E0,-3.906725922E0,9.958918783E0
1.425005362E1,-1.910177765E0,9.122479706E0,-4.818629608E0,1.049226412E1
1.426008662E1,-1.713037720E0,8.823850708E0,-6.055956573E0,1.083833242E1
1.427012062E1,-9.392967224E-1,7.919581146E0,-6.542444916E0,1.031531043E1
1.428015362E1,-5.254074097E-2,7.082521820E0,-6.088289337E0,9.339814929E0
1.429018762E1,2.221380615E-1,6.912325745E0,-5.312153320E0,8.720582860E0
1.430022062E1,1.838177490E-1,7.131470032E0,-4.813390503E0,8.605834179E0
1.431025462E1,6.526428223E-2,7.858508148E0,-4.835694122E0,9.227369473E0
1.432028762E1,1.823208618E-1,8.831634521E0,-4.809648285E0,1.005801799E1
1.433032162E1,-6.017486572E-2,1.020697449E1,-4.265679474E0,1.106263850E1
1.434035462E1,-3.751199341E-1,1.177496384E1,-3.373983765E0,1.225456057E1
1.435038863E1,-4.647834778E-1,1.276485535E1,-2.647843781E0,1.304486996E1
1.436042162E1,3.517684937E-2,1.289433609E1,-2.401007080E0,1.311601981E1
1.437045562E1,1.260379028E-1,1.276725037E1,-1.810485077E0,1.289559707E1
1.438048862E1,-3.055146790E-1,1.243943207E1,-1.164578247E0,1.249756184E1
1.439052262E1,-1.007255402E0,1.236563553E1,-6.146218872E-1,1.242180605E1
1.440055562E1,-2.952460327E0,1.379411499E1,2.079176331E-1,1.410807783E1
1.441058962E1,-4.240831146E0,1.522977951E1,3.420387268E-1,1.581290053E1
1.442062262E1,-5.114713898E0,1.645707733E1,-6.334826660E-1,1.724520202E1
1.443065662E1,-6.002068634E0,1.730970428E1,-1.247505798E0,1.836319583E1
1.444068962E1,-5.905968475E0,1.718935455E1,-1.019529877E0,1.820422519E1
1.445072362E1,-5.503605194E0,1.485151611E1,-3.091072083E-1,1.584148820E1
1.446075662E1,-5.522915039E0,1.183349213E1,-9.523196411E-1,1.309354952E1
1.447079062E1,-4.358037415E0,8.820108490E0,-2.162852325E0,1.007297047E1
1.448082362E1,-3.036435699E0,7.576494598E0,-2.910846863E0,8.665808769E0
1.449085762E1,-1.409169617E0,7.205116882E0,-3.224145355E0,8.018390211E0
1.450089162E1,2.221380615E-1,6.875352631E0,-3.283871155E0,7.622573639E0
1.451092462E1,8.054750061E-1,6.984475708E0,-3.175795898E0,7.714750190E0
1.452095762E1,8.601113892E-1,7.321724396E0,-3.455414429E0,8.141703053E0
1.453099162E1,1.404379578E0,7.385641479E0,-3.972588959E0,8.503025644E0
1.454102462E1,1.350192261E0,7.483986969E0,-3.950435028E0,8.569656761E0
1.455105862E1,8.018824768E-1,8.048313446E0,-3.384461975E0,8.767721922E0
1.456109162E1,4.164340210E-1,8.229436798E0,-2.694696350E0,8.669396503E0
1.457112562E1,7.035369873E-2,7.934100952E0,-2.316432953E0,8.265637857E0
1.458115962E1,-2.489323425E-1,7.521708527E0,-2.237846375E0,7.851498129E0
1.459119262E1,-5.071453857E-1,7.213649139E0,-2.281106415E0,7.582702475E0
1.460122662E1,-6.542893982E-1,7.145540771E0,-2.281106415E0,7.529295718E0
1.461125962E1,-4.842430115E-1,7.365283813E0,-2.732567596E0,7.870757436E0
1.462129362E1,-1.890568542E-1,7.317084045E0,-3.318149872E0,8.036515414E0
1.463132662E1,1.505868530E-1,7.313192139E0,-3.789070587E0,8.237870573E0
1.464136062E1,2.546205139E-1,7.250921631E0,-3.916006622E0,8.244744021E0
1.465139362E1,2.980302429E-1,7.159611511E0,-3.565735016E0,8.003956848E0
1.466142762E1,2.041754150E-1,6.689738617E0,-3.387904816E0,7.501479148E0
1.467146062E1,-1.854643250E-1,5.795049133E0,-3.202739868E0,6.623785484E0
1.468149462E1,-9.979747009E-1,4.552183685E0,-3.515140228E0,5.837340202E0
1.469152762E1,-1.635199585E0,3.903432770E0,-4.697980499E0,6.323107293E0
1.470156162E1,-2.224524078E0,4.677024078E0,-6.400090942E0,8.233117616E0
1.471159462E1,-2.586621094E0,5.974226532E0,-7.541916504E0,9.963056554E0
1.472162862E1,-2.428100739E0,7.079228668E0,-7.794291687E0,1.080565290E1
1.473166162E1,-2.527344360E0,8.166717224E0,-7.423512726E0,1.132215885E1
1.474169562E1,-2.863245850E0,9.501042480E0,-6.712491302E0,1.198021388E1
1.475172862E1,-3.183430023E0,1.018751495E1,-6.237978058E0,1.236252636E1
1.476176262E1,-3.750600586E0,9.955647125E0,-6.371350708E0,1.240064612E1
1.477179562E1,-4.411027222E0,9.267378387E0,-6.614295502E0,1.221025668E1
1.478182962E1,-4.949158173E0,8.850495300E0,-6.532415771E0,1.206225060E1
1.479186262E1,-4.810546417E0,9.519753571E0,-6.520889740E0,1.250156262E1
1.480189662E1,-4.793332214E0,1.092338470E1,-7.432943115E0,1.405507063E1
1.481192962E1,-4.079915771E0,1.251098328E1,-7.484735413E0,1.513907789E1
1.482196362E1,-2.367925873E0,1.526450729E1,-4.629572754E0,1.612591702E1
1.483199662E1,1.673519897E-1,1.968541397E1,-3.240760803E-1,1.968879263E1
1.484203062E1,2.629282379E0,2.197011292E1,7.846682739E-1,2.214079248E1
1.485206362E1,2.135309601E0,1.666783905E1,-2.296674042E0,1.696028058E1
1.486209762E1,1.554966431E0,1.095841187E1,-2.520458679E0,1.135153836E1
1.487213062E1,1.992656250E0,9.153016205E0,-7.164102173E-1,9.394765999E0
1.488216462E1,1.313817902E0,8.681646423E0,4.555027771E-1,8.792302593E0
1.489219762E1,7.566764832E-1,8.404572601E0,6.719526672E-1,8.465277331E0
1.490223162E1,5.093907166E-1,8.400081940E0,-6.286926270E-2,8.415747622E0
1.491226462E1,6.159690857E-1,8.529712372E0,-1.285526733E0,8.648004975E0
1.492229862E1,3.739224243E-1,8.415948944E0,-2.651436310E0,8.831654948E0
1.493233162E1,-1.851649475E-1,8.911418610E0,-3.785927124E0,9.684054517E0
1.494236563E1,-3.634442139E-1,9.789043579E0,-3.992647247E0,1.057821809E1
1.495239862E1,-3.318598938E-1,1.052775742E1,-3.741768951E0,1.117786393E1
1.496243262E1,-3.637435913E-2,1.113788864E1,-3.633843384E0,1.171574599E1
1.497246563E1,-4.790039062E-3,1.193947174E1,-3.559747467E0,1.245884467E1
1.498249962E1,7.933502197E-3,1.230755630E1,-3.285667419E0,1.273858766E1
1.499253262E1,3.517684937E-2,1.150208130E1,-2.846331024E0,1.184908064E1
1.500256662E1,-3.233276367E-2,9.951455841E0,-2.752925262E0,1.032526592E1
1.501259962E1,1.516346741E-1,8.344697113E0,-2.642754364E0,8.754491054E0
1.502263362E1,2.779719543E-1,7.433242493E0,-2.480042725E0,7.840980441E0
1.503266662E1,1.975891113E-1,7.156168671E0,-2.511926422E0,7.586802083E0
1.504270062E1,-1.978884888E-1,7.220684509E0,-2.377805328E0,7.604696103E0
1.505273362E1,-3.760180664E-1,7.374115448E0,-1.817819824E0,7.604172351E0
1.506276762E1,-4.336482239E-1,7.392527161E0,-1.501078491E0,7.555841796E0
1.507280062E1,-2.098635864E-1,7.729326782E0,-1.633403320E0,7.902818588E0
1.508283462E1,-1.016386414E-1,8.374036102E0,-1.567839661E0,8.520148605E0
1.509286762E1,-4.011657715E-1,8.869206390E0,-1.606159973E0,9.022389142E0
1.510290162E1,-4.008663940E-1,9.614656219E0,-1.999990997E0,9.828645485E0
1.511293462E1,-4.290078735E-1,1.001207977E1,-2.259401550E0,1.027281288E1
1.512296862E1,-5.843847656E-1,9.937085724E0,-2.625839539E0,1.029476622E1
1.513300162E1,-9.488768005E-1,9.671987000E0,-3.256328430E0,1.024945728E1
1.514303562E1,-1.200503540E0,9.247769165E0,-3.693120117E0,1.003003387E1
1.515306862E1,-1.348246307E0,8.647068329E0,-3.940854950E0,9.597911050E0
1.516310262E1,-1.616488495E0,8.066126404E0,-4.131109314E0,9.205514346E0
1.517313562E1,-1.858834534E0,7.542664948E0,-4.064797211E0,8.767533102E0
1.518316962E1,-1.904339905E0,7.006180573E0,-3.936214600E0,8.258744581E0
1.519320296E1,-1.932930450E0,6.469097443E0,-3.803440704E0,7.749296938E0
1.520323696E1,-2.201172638E0,6.008954315E0,-3.464545441E0,7.277071393E0
1.521326996E1,-2.157762909E0,5.403313751E0,-3.221151581E0,6.650380273E0
1.522330396E1,-2.103276215E0,4.881798248E0,-3.133134613E0,6.170272075E0
1.523333696E1,-2.350412292E0,5.247338104E0,-2.688259735E0,6.347104500E0
1.524337096E1,-2.533930664E0,6.673272858E0,-2.357597351E0,7.517422465E0
1.525340396E1,-2.868784332E0,8.715775452E0,-2.519560547E0,9.515400707E0
1.526343796E1,-3.596121826E0,1.005025040E1,-3.148103485E0,1.112879961E1
1.527347096E1,-4.126768341E0,1.041968216E1,-4.660408630E0,1.213752042E1
1.528350496E1,-3.660038910E0,9.968969421E0,-6.560108185E0,1.248243788E1
1.529353796E1,-2.946772156E0,9.104367371E0,-8.073910217E0,1.252042322E1
1.530357196E1,-1.907333679E0,8.264763336E0,-8.294102325E0,1.186323599E1
1.531360496E1,-7.194039917E-1,7.699089661E0,-6.605613556E0,1.016993875E1
1.532363896E1,-3.881428528E-1,7.672594757E0,-4.899611206E0,9.111835992E0
1.533367196E1,-4.760101318E-2,8.126900024E0,-3.960164795E0,9.040557232E0
1.534370596E1,2.246827698E-1,9.096134491E0,-3.206332397E0,9.647316335E0
1.535373896E1,3.341052246E-1,1.040950333E1,-1.964215393E0,1.059846819E1
1.536377296E1,7.664062500E-2,1.218556000E1,-9.372010803E-1,1.222178760E1
1.537380596E1,2.598596191E-1,1.344578934E1,-5.309458923E-1,1.345877712E1
1.538383996E1,5.108876038E-1,1.368693787E1,-3.065625000E-1,1.369989981E1
1.539387296E1,5.128335571E-1,1.361583572E1,-4.778063965E-1,1.363386518E1
1.540390696E1,8.589138794E-1,1.355371490E1,-1.065184937E0,1.362261134E1
1.541393996E1,9.729766846E-1,1.314686096E1,-1.403631134E0,1.325733069E1
1.542397396E1,3.068618774E-2,1.338606354E1,-1.748963013E0,1.349987075E1
1.543400696E1,-1.281784515E0,1.401670212E1,-2.162702637E0,1.424037192E1
1.544404096E1,-2.635419617E0,1.435065765E1,-2.393372955E0,1.478563647E1
1.545407396E1,-4.431833954E0,1.430649948E1,-2.083217926E0,1.512140458E1
1.546410796E1,-5.958060150E0,1.414438660E1,-1.368603973E0,1.540893344E1
1.547414096E1,-6.464756470E0,1.324610458E1,-2.398013306E-1,1.474143370E1
1.548417496E1,-6.969955902E0,1.192525131E1,6.400689697E-1,1.382756640E1
1.549420796E1,-5.917045441E0,9.814041595E0,4.043092346E-1,1.146692222E1
1.550424196E1,-4.382885742E0,8.427924042E0,-4.993615723E-1,9.512568163E0
1.551427496E1,-3.288661194E0,7.620203705E0,-1.182690582E0,8.383409448E0
1.552430896E1,-1.685944061E0,7.098837891E0,-1.595382385E0,7.468678044E0
1.553434196E1,-3.327580261E-1,6.866221619E0,-1.788480835E0,7.103125433E0
1.554437596E1,1.736389160E-2,6.668183441E0,-2.293680267E0,7.051662292E0
1.555440896E1,4.564009094E-1,6.483168182E0,-3.285817108E0,7.282607056E0
1.556444296E1,8.276289368E-1,6.529122620E0,-4.030219116E0,7.717323238E0
1.557447696E1,9.809101868E-1,6.593638458E0,-4.140839081E0,7.847598436E0
1.558450996E1,1.122665405E0,6.735693054E0,-3.938310242E0,7.882907211E0
1.559454296E1,1.183738403E0,6.677015076E0,-3.511098633E0,7.636201971E0
1.560457696E1,1.137783966E0,6.448440399E0,-2.853366394E0,7.142733070E0
1.561460996E1,1.169967041E0,6.365213470E0,-2.487527161E0,6.933437587E0
1.562464396E1,1.074016571E0,6.706503754E0,-2.346071320E0,7.185732727E0
1.563467796E1,8.939410400E-1,7.398365021E0,-2.330354004E0,7.808039789E0
1.564471096E1,5.297483826E-1,8.103099518E0,-2.480940857E0,8.490931791E0
1.565474496E1,4.296066284E-2,8.443042603E0,-2.868185577E0,8.917023187E0
1.566477796E1,-4.475692749E-1,8.463549957E0,-3.358266449E0,9.116465855E0
1.567481196E1,-7.265890503E-1,8.294102325E0,-3.508404236E0,9.034874947E0
1.568484496E1,-8.896000671E-1,7.830965424E0,-3.489693146E0,8.619359953E0
1.569487896E1,-1.043779449E0,7.195087738E0,-3.317700806E0,7.991614463E0
1.570491196E1,-1.393751678E0,6.318211212E0,-3.183579712E0,7.210930345E0
1.571494596E1,-2.114951935E0,5.627697144E0,-3.471880188E0,6.942474261E0
1.572497896E1,-2.811154175E0,5.694608002E0,-4.407434692E0,7.730241177E0
1.573501296E1,-3.433410187E0,6.848708038E0,-5.800886993E0,9.609547191E0
1.574504596E1,-3.578608246E0,8.448880463E0,-6.789880371E0,1.141457373E1
1.575507996E1,-2.981200562E0,1.008033783E1,-6.881639557E0,1.256414464E1
1.576511296E1,-2.423909454E0,1.170236481E1,-6.621031494E0,1.366231083E1
1.577514696E1,-2.352507935E0,1.284089722E1,-6.063740387E0,1.439416140E1
1.578517996E1,-2.600691833E0,1.277787827E1,-5.503754883E0,1.415376589E1
1.579521396E1,-2.835703125E0,1.135089569E1,-5.742358704E0,1.303298618E1
1.580524696E1,-3.023412781E0,9.574389954E0,-7.202272797E0,1.235648418E1
1.581528096E1,-4.175566864E0,8.481512604E0,-8.909173279E0,1.299018026E1
1.582531396E1,-5.695057068E0,7.988437958E0,-8.431815948E0,1.293616389E1
1.583534796E1,-5.728737030E0,8.884175262E0,-6.086343384E0,1.219797417E1
1.584538096E1,-4.789589996E0,1.128847549E1,-2.459984436E0,1.250685311E1
1.585541496E1,-3.131038971E0,1.486962845E1,-4.653822327E-1,1.520282329E1
1.586544796E1,-8.967851257E-1,1.747930161E1,-1.100212097E-1,1.750263731E1
1.587548196E1,-1.791773987E-1,1.722348358E1,-1.191821594E0,1.726559961E1
1.588551496E1,-2.999761963E-1,1.468835541E1,-2.005379791E0,1.482765384E1
1.589554896E1,-9.116043091E-2,1.219469101E1,-1.044677582E0,1.223969568E1
1.590558196E1,1.689985657E-1,1.043495041E1,2.171983337E-1,1.043857872E1
1.591561596E1,1.348695374E-1,9.003327484E0,7.432044983E-1,9.034957028E0
1.592564896E1,2.441423035E-1,8.059240723E0,1.306782532E-1,8.063996732E0
1.593568296E1,4.885839844E-1,7.649243317E0,-5.324427795E-1,7.683302216E0
1.594571596E1,7.268884277E-1,7.711064758E0,-1.305585022E0,7.854517092E0
1.595574996E1,9.942324829E-1,8.112679596E0,-2.219584351E0,8.469393316E0
1.596578296E1,1.438807983E0,8.563691711E0,-2.728076935E0,9.102163913E0
1.597581696E1,1.157692566E0,9.642198944E0,-2.613565063E0,1.005698637E1
1.598584996E1,6.403683472E-1,1.079001205E1,-2.343526611E0,1.106013331E1
1.599588396E1,5.643264771E-1,1.145388153E1,-2.310146027E0,1.169814691E1
1.600591696E1,4.564009094E-1,1.166628983E1,-2.348765717E0,1.190912761E1
1.601595096E1,-1.146615601E-1,1.135598511E1,-2.555485840E0,1.164053491E1
1.602598396E1,-8.123606873E-1,1.059137512E1,-2.803370361E0,1.098617505E1
1.603601796E1,-9.957293701E-1,9.646988983E0,-2.622396698E0,1.004653362E1
1.604605096E1,-5.990542603E-1,8.666378174E0,-2.327958984E0,8.993573800E0
1.605608496E1,-3.591032410E-1,7.786358185E0,-2.309547272E0,8.129596393E0
1.606611796E1,-4.266128540E-1,7.010371857E0,-2.277364197E0,7.383339338E0
1.607615196E1,-3.489244080E-1,6.505172424E0,-2.248474274E0,6.891636458E0
1.608618496E1,-6.002517700E-1,6.433471527E0,-2.104922791E0,6.795627861E0
1.609621896E1,-2.948867798E-1,6.505771179E0,-1.317859497E0,6.644454116E0
1.610625196E1,-2.727328491E-1,6.796316986E0,-5.289999390E-1,6.822327222E0
1.611628596E1,-9.304650879E-1,7.487579498E0,-5.683680725E-1,7.566548374E0
1.612631896E1,-4.378395081E-1,8.304730225E0,-1.204694824E0,8.403067128E0
1.613635296E1,1.736389160E-2,9.136849823E0,-1.552122345E0,9.267761864E0
1.614638596E1,-9.654922485E-2,9.674531708E0,-1.738185425E0,9.829912212E0
1.615641996E1,-1.071771240E-1,1.001746857E1,-2.312241669E0,1.028142135E1
1.616645296E1,-1.106199646E-1,1.037627243E1,-2.925965424E0,1.078149062E1
1.617648696E1,-3.733236694E-1,1.024559418E1,-3.279679871E0,1.076419392E1
1.618651996E1,-8.481362915E-1,1.007345215E1,-3.511697388E0,1.070167239E1
1.619655346E1,-1.264270935E0,9.746531982E0,-3.630550232E0,1.047731653E1
1.620658646E1,-1.690584412E0,9.220076752E0,-3.648063812E0,1.005864109E1
1.621662046E1,-2.046244812E0,8.393495636E0,-3.521726532E0,9.329546859E0
1.622665346E1,-2.542013855E0,7.553442535E0,-3.464395752E0,8.690130408E0
1.623668746E1,-2.639461212E0,6.515351257E0,-3.428470459E0,7.821187070E0
1.624672046E1,-2.827769623E0,5.561983795E0,-3.870800629E0,7.342686313E0
1.625675446E1,-3.298390961E0,5.182971954E0,-4.228706360E0,7.458186019E0
1.626678746E1,-3.940405884E0,5.746250610E0,-3.942501526E0,8.005592601E0
1.627682146E1,-4.439767456E0,7.555687866E0,-3.270099792E0,9.353796387E0
1.628685446E1,-4.620890808E0,1.024125320E1,-2.478994904E0,1.150570792E1
1.629688846E1,-4.588408356E0,1.208796295E1,-2.404150543E0,1.315113225E1
1.630692146E1,-3.914060669E0,1.286454803E1,-3.449426880E0,1.388218329E1
1.631695546E1,-2.746937714E0,1.228899490E1,-4.944517822E0,1.352824154E1
1.632698846E1,-1.630110168E0,1.102262833E1,-6.133345642E0,1.271902210E1
1.633702246E1,-2.661465454E-1,9.227112122E0,-5.967340851E0,1.099179644E1
1.634705546E1,-4.296066284E-2,8.271798706E0,-5.417384491E0,9.888000515E0
1.635708946E1,-2.775228882E-1,7.908504181E0,-4.276756439E0,8.995115506E0
1.636712246E1,-7.752378845E-1,8.047565002E0,-3.508703613E0,8.813359024E0
1.637715646E1,-1.226399689E0,8.609496460E0,-3.014281769E0,9.203987183E0
1.638718946E1,-1.394500122E0,9.425599365E0,-2.239343262E0,9.787809368E0
1.639722346E1,-1.598076782E0,1.027119095E1,-1.429377594E0,1.049258468E1
1.640725646E1,-1.408720551E0,1.098894836E1,-9.151968384E-1,1.111661212E1
1.641729046E1,-9.595046997E-1,1.111094467E1,-7.613168335E-1,1.117825318E1
1.642732346E1,-5.887257385E-1,1.074809921E1,-7.545808411E-1,1.079062681E1
1.643735746E1,-2.324665833E-1,1.021805145E1,-8.265811157E-1,1.025406517E1
1.644739046E1,-2.194436646E-1,9.782606964E0,-8.851094055E-1,9.825017720E0
1.645742446E1,-3.231779480E-1,9.702523499E0,-1.008452911E0,9.760142596E0
1.646745746E1,-4.587959290E-1,1.038809784E1,-1.531315613E0,1.051037573E1
1.647749146E1,-5.733078003E-1,1.156255554E1,-1.982926483E0,1.174535525E1
1.648752446E1,-1.100661163E0,1.310614563E1,-2.336491241E0,1.335820720E1
1.649755846E1,-1.836680603E0,1.442400513E1,-2.115251312E0,1.469352264E1
1.650759146E1,-2.660567322E0,1.472353226E1,-1.512454834E0,1.503823594E1
1.651762546E1,-3.536545715E0,1.491094254E1,-8.656498718E-1,1.534902970E1
1.652765846E1,-4.111949158E0,1.395772476E1,-4.819976807E-2,1.455089446E1
1.653769246E1,-4.547693024E0,1.149205215E1,5.075944519E-1,1.236957666E1
1.654772546E1,-4.719385986E0,9.874366150E0,-9.595046997E-2,1.094462962E1
1.655775946E1,-3.504212952E0,8.330626373E0,-1.047521667E0,9.098139690E0
1.656779246E1,-2.301763458E0,7.101831665E0,-1.567689972E0,7.628353680E0
1.657782646E1,-1.620380402E0,7.170239410E0,-1.722019043E0,7.550054002E0
1.658785946E1,-7.616162109E-1,7.127727814E0,-2.024240570E0,7.448631614E0
1.659789346E1,-2.710862732E-1,7.078180847E0,-2.704875183E0,7.582247795E0
1.660792646E1,-2.606080627E-1,7.083419952E0,-3.259621582E0,7.801787465E0
1.661796046E1,-2.357597351E-1,7.054679718E0,-3.498674469E0,7.878122341E0
1.662799346E1,-2.668949890E-1,7.032675476E0,-3.619772644E0,7.914070462E0
1.663802746E1,-1.808239746E-1,7.089557190E0,-3.657045135E0,7.979254200E0
1.664806046E1,-2.499801636E-2,7.364235992E0,-3.438798981E0,8.127603280E0
