"Time (s)","Acceleration x (m/s^2)","Acceleration y (m/s^2)","Acceleration z (m/s^2)","Absolute acceleration (m/s^2)"
-1.253333336E-3,-4.153712311E0,5.147346039E0,6.436165924E0,9.228907249E0
8.780666663E-3,-3.977229309E0,5.040468292E0,6.784341888E0,9.340876214E0
1.881466667E-2,-3.692072296E0,5.170996857E0,6.839277649E0,9.335219606E0
2.884866666E-2,-3.683540039E0,5.285209351E0,6.941215668E0,9.470078144E0
3.888166666E-2,-3.740870819E0,5.167853394E0,7.000941467E0,9.471747706E0
4.891566667E-2,-3.693120117E0,4.989723816E0,7.175628204E0,9.488209530E0
5.894966667E-2,-3.211421814E0,4.844376068E0,7.390730896E0,9.402346129E0
6.898366666E-2,-2.305954742E0,4.725373535E0,7.789052582E0,9.397655157E0
7.901766666E-2,-1.471739502E0,4.510121155E0,8.341853027E0,9.596547396E0
8.905166667E-2,-7.912545776E-1,4.962330780E0,8.919202423E0,1.023733278E1
9.908566666E-2,1.758842468E-1,5.747897186E0,9.167236633E0,1.082162117E1
1.091196667E-1,1.005309448E0,5.711522827E0,9.109157410E0,1.079855957E1
1.191526667E-1,1.172960815E0,5.143304443E0,8.726852417E0,1.019741981E1
1.291866667E-1,8.828640747E-1,4.806953888E0,8.059240723E0,9.425370851E0
1.392206667E-1,5.448669434E-1,4.652624817E0,7.634723511E0,8.957276414E0
1.492546667E-1,5.638774109E-1,4.531526642E0,7.706274719E0,8.957642630E0
1.592886667E-1,1.292562103E0,4.622836761E0,7.692802734E0,9.067554821E0
1.693226667E-1,2.255210266E0,4.880301361E0,7.510930939E0,9.236741757E0
1.793566667E-1,2.773881683E0,5.042414246E0,7.375462646E0,9.355095417E0
1.893906667E-1,2.780767365E0,5.194947052E0,7.278614044E0,9.364740488E0
1.994236667E-1,2.650837555E0,5.448968811E0,7.433691559E0,9.590514639E0
2.094576667E-1,2.774929504E0,5.447471924E0,7.948022003E0,1.002727470E1
2.194916667E-1,2.794239349E0,5.231770477E0,8.460107117E0,1.033211538E1
2.295256667E-1,2.514321442E0,4.756508789E0,8.671168213E0,1.020467277E1
2.395596667E-1,2.219734039E0,4.098177795E0,8.796457672E0,9.954895681E0
2.495940000E-1,1.468596039E0,4.031117249E0,8.601562958E0,9.612157194E0
2.596280000E-1,1.388662262E0,4.530778198E0,8.145910492E0,9.424022055E0
2.696620000E-1,1.647174683E0,4.459676056E0,8.315058746E0,9.578209484E0
2.796950000E-1,1.884131927E0,4.618346100E0,8.201295319E0,9.598974879E0
2.897290000E-1,2.255509644E0,4.788841553E0,8.005203094E0,9.597062246E0
2.997630000E-1,2.339335327E0,4.522994385E0,8.068222046E0,9.540763856E0
3.097970000E-1,2.526446228E0,4.167184296E0,8.184081116E0,9.525100483E0
3.198310000E-1,2.928360443E0,3.889811096E0,8.438551941E0,9.742437278E0
3.298650000E-1,3.029250641E0,4.080364838E0,8.637039185E0,1.002118668E1
3.398990000E-1,2.925666046E0,4.130061493E0,8.611741791E0,9.988945211E0
3.499330000E-1,3.279230804E0,3.562890930E0,7.990982666E0,9.343626192E0
3.599660000E-1,3.377875671E0,3.255729675E0,7.726482697E0,9.039267372E0
3.700000000E-1,2.180216217E0,3.804937592E0,8.207282867E0,9.305395472E0
3.800340000E-1,1.483714600E0,3.802692261E0,8.630901947E0,9.547478508E0
3.900680000E-1,6.761439514E-1,4.203708344E0,9.223519592E0,1.015882120E1
4.001020000E-1,4.742138672E-1,4.876708832E0,9.301956482E0,1.051349429E1
4.101360000E-1,9.770182800E-1,4.981790314E0,8.855135651E0,1.020716547E1
4.201700000E-1,1.715283051E0,4.916825409E0,9.737251282E0,1.104225659E1
4.302040000E-1,3.022065582E0,5.565276947E0,1.030831375E1,1.209820318E1
4.402370000E-1,4.237238617E0,4.949607239E0,1.112202164E1,1.289000265E1
4.502710000E-1,6.566844177E-1,2.990331573E0,9.203610992E0,9.699472802E0
4.603050000E-1,-4.474195862E0,1.810634766E0,6.218817902E0,7.872135857E0
4.703390000E-1,-9.326056366E0,7.530839539E-1,4.468807068E0,1.036883308E1
4.803730000E-1,-9.572893066E0,-3.287164307E-1,4.665198669E0,1.065422051E1
4.904070000E-1,-5.190157013E0,7.643106079E-1,7.018455048E0,8.762454666E0
5.004410000E-1,-2.200424194E0,1.352587280E0,8.718020782E0,9.092592884E0
5.104750000E-1,-8.789721680E-1,1.390757904E0,9.389225006E0,9.532279152E0
5.205080000E-1,-4.572990417E-1,7.077282715E-1,1.001716919E1,1.005254596E1
5.305420000E-1,3.924838257E-1,-4.740641785E-1,1.051862640E1,1.053661624E1
5.405760000E-1,1.221759338E0,-1.125509491E0,9.719887390E0,9.860815300E0
5.506100000E-1,1.159937897E0,-1.688488770E0,8.525521088E0,8.768178834E0
5.606440000E-1,-2.098635864E-1,-2.075733490E0,7.699987793E0,7.977626480E0
5.706780000E-1,-2.078427887E0,-2.176923065E0,7.258705444E0,7.857968010E0
5.807120000E-1,-1.896705780E0,-2.653382263E0,6.305038605E0,7.098692982E0
5.907460000E-1,1.168919220E0,-3.884871368E0,5.940995636E0,7.194027164E0
6.007790000E-1,4.708309021E0,-5.738167419E0,5.620661774E0,9.310562708E0
6.108130000E-1,7.021897888E0,-7.399562531E0,4.798571320E0,1.127328090E1
6.208470000E-1,9.595645752E0,-7.700287170E0,5.199587402E0,1.335689144E1
6.308810000E-1,1.122949814E1,-7.376959534E0,6.846163330E0,1.507949312E1
6.409150000E-1,1.118264557E1,-7.191495209E0,8.112679596E0,1.557513196E1
6.509490000E-1,1.128892456E1,-7.162006531E0,8.394842834E0,1.578630867E1
6.609830000E-1,1.143966110E1,-6.576424255E0,8.469836884E0,1.567971106E1
6.710170000E-1,1.304177948E1,-6.096821594E0,9.029672699E0,1.699394700E1
6.810500000E-1,1.608989090E1,-6.066135406E0,9.895322571E0,1.983935475E1
6.910840000E-1,1.818822739E1,-5.160818024E0,1.120150635E1,2.197542724E1
7.011180000E-1,1.926164520E1,-3.403622131E0,1.283086807E1,2.339287915E1
7.111520000E-1,1.858699814E1,-1.211730194E0,1.416339706E1,2.339971381E1
7.211860000E-1,1.699445984E1,1.219663696E0,1.555759781E1,2.307245315E1
7.312200000E-1,1.567046310E1,3.283571777E0,1.652593414E1,2.300981870E1
7.412540000E-1,1.443223801E1,4.604874115E0,1.711121704E1,2.285362352E1
7.512880000E-1,1.273401947E1,6.087391205E0,1.719653961E1,2.224707977E1
7.613210000E-1,1.080138840E1,7.631580048E0,1.666873718E1,2.127810623E1
7.713550000E-1,9.091494141E0,8.488248596E0,1.566372711E1,2.000144937E1
7.813890000E-1,7.398664398E0,8.491841125E0,1.477577362E1,1.857888820E1
7.914230000E-1,5.620063019E0,7.993976440E0,1.472038879E1,1.766857702E1
8.014570000E-1,4.951553192E0,7.195985870E0,1.405816589E1,1.655089484E1
8.114910000E-1,4.692891083E0,5.984105988E0,1.236353989E1,1.451516000E1
8.215250000E-1,4.303251343E0,4.846022644E0,1.150103348E1,1.320135139E1
8.315590000E-1,3.814218292E0,4.101321259E0,1.074854828E1,1.212024700E1
8.415920000E-1,3.038980408E0,3.626957703E0,9.933493195E0,1.100293193E1
8.516260000E-1,2.797981567E0,2.933300171E0,9.092242584E0,9.954990003E0
8.616600000E-1,2.871778107E0,2.295626221E0,8.282426605E0,9.061765816E0
8.716940000E-1,3.272494812E0,1.422342224E0,7.141199799E0,7.983045425E0
8.817280000E-1,3.977828064E0,7.903564453E-2,5.477559357E0,6.770008807E0
8.917620000E-1,4.536616058E0,-9.544152832E-1,3.854484558E0,6.029000332E0
9.017960000E-1,5.561834106E0,-1.861977997E0,2.604883118E0,6.417661314E0
9.118300000E-1,6.348598022E0,-3.222349091E0,1.583556976E0,7.293550796E0
9.218630000E-1,6.510710907E0,-4.646337891E0,8.280780029E-1,8.041363410E0
9.318970000E-1,6.533313904E0,-6.259982300E0,3.305126953E-1,9.054325353E0
9.419310000E-1,6.776408386E0,-7.655230865E0,5.328918457E-2,1.022375224E1
9.519650000E-1,6.791077881E0,-9.218430176E0,1.098565521E0,1.150239279E1
9.619990000E-1,6.502178650E0,-1.027598099E1,3.334915009E0,1.260935250E1
9.720330000E-1,6.075116730E0,-9.512119446E0,6.029910736E0,1.279637773E1
9.820670000E-1,6.858437805E0,-8.037386169E0,5.981411591E0,1.214145915E1
9.921000000E-1,6.985074463E0,-7.395071869E0,4.633913727E0,1.117817112E1
1.002134000E0,7.803722076E0,-7.069049835E0,3.410507812E0,1.106802184E1
1.012168000E0,9.488468628E0,-6.732699280E0,3.014880524E0,1.201872627E1
1.022202000E0,1.077564194E1,-5.833818512E0,3.346441040E0,1.270222678E1
1.032236000E0,1.099852844E1,-4.943769379E0,3.181334381E0,1.247114157E1
1.042270000E0,1.118069962E1,-4.121828613E0,2.715353394E0,1.222172897E1
1.052304000E0,1.118683685E1,-2.748584290E0,2.381996613E0,1.176324540E1
1.062338000E0,1.087144272E1,-9.813592529E-1,2.421065369E0,1.118091634E1
1.072371000E0,9.911638641E0,8.809181213E-1,3.395838318E0,1.051419589E1
1.082405000E0,9.070986786E0,2.424957275E0,5.025649109E0,1.064989991E1
1.092439000E0,8.509055328E0,3.027454376E0,6.231242065E0,1.097259679E1
1.102473000E0,8.717272339E0,2.381248169E0,6.630162506E0,1.120804331E1
1.112507000E0,8.896000671E0,1.839075623E0,7.053182831E0,1.150080063E1
1.122541000E0,9.192983093E0,1.156794434E0,7.835156708E0,1.213419928E1
1.132575000E0,1.008288254E1,1.211730194E0,6.786736908E0,1.221444261E1
1.142609000E0,1.048943710E1,8.207432556E-1,6.173162842E0,1.219876427E1
1.152642000E0,9.846673737E0,-3.115022278E-1,6.595434723E0,1.185553780E1
1.162676000E0,9.126970367E0,-1.218615875E0,6.320007477E0,1.116821862E1
1.172710000E0,8.497978363E0,-1.730102234E0,4.649331665E0,9.839978401E0
1.182744000E0,7.697293396E0,-1.899100800E0,3.041824493E0,8.491619735E0
1.192778000E0,6.755451965E0,-1.921404419E0,2.001787262E0,7.303086912E0
1.202812000E0,6.087540894E0,-2.068847809E0,1.908082123E0,6.706643182E0
1.212846000E0,5.629343719E0,-2.386337585E0,1.983974304E0,6.428084615E0
1.222880000E0,5.132377167E0,-2.291584625E0,1.615889740E0,5.848397655E0
1.232913000E0,4.618944855E0,-2.102677460E0,1.499282227E0,5.291857072E0
1.242947000E0,4.292324066E0,-2.009720764E0,1.550176392E0,4.986589043E0
1.252980667E0,4.459825745E0,-1.819466400E0,2.014361115E0,5.220934241E0
1.263014667E0,4.673431549E0,-1.323098602E0,3.191213837E0,5.811660529E0
1.273048667E0,4.784650269E0,-1.502725067E0,4.923860779E0,7.028190791E0
1.283082667E0,4.986730042E0,-1.902393951E0,6.276448059E0,8.238955000E0
1.293116667E0,5.085075531E0,-1.553619232E0,6.489006042E0,8.389214820E0
1.303150667E0,5.586383057E0,-8.791218567E-1,5.504802704E0,7.891982242E0
1.313183667E0,5.807323608E0,-3.412902832E-1,4.304299164E0,7.236606791E0
1.323217667E0,6.454577637E0,-4.076023865E-1,4.004921722E0,7.607043458E0
1.333251667E0,6.893914032E0,-7.918533325E-1,4.326004028E0,8.177248512E0
1.343285667E0,8.215216370E0,-1.406924286E0,4.516707458E0,9.479971636E0
1.353319667E0,1.020218445E1,-2.512824554E0,2.021695862E0,1.069981817E1
1.363353667E0,1.130404312E1,-3.373834076E0,-3.619473267E-1,1.180233677E1
1.373387667E0,1.209559708E1,-3.310815125E0,1.715283051E0,1.265729676E1
1.383420667E0,1.358844269E1,-4.015399933E0,2.898722076E0,1.446277294E1
1.393454667E0,1.434332291E1,-5.204676819E0,3.971541138E0,1.576682314E1
1.403488667E0,1.426219162E1,-5.608536987E0,4.124373322E0,1.587060970E1
1.413522667E0,1.458986023E1,-4.970563660E0,3.140768738E0,1.573006525E1
1.423556667E0,1.522334290E1,-3.597019958E0,2.415676575E0,1.582795675E1
1.433590667E0,1.509146713E1,-2.772085419E0,3.089275818E0,1.565185174E1
1.443624667E0,1.500359985E1,-2.813100128E0,4.610711975E0,1.594616587E1
1.453658667E0,1.472862167E1,-2.909349976E0,5.450765076E0,1.597208357E1
1.463691667E0,1.444136902E1,-2.959046631E0,5.236261139E0,1.564376958E1
1.473725667E0,1.388916733E1,-2.746488647E0,4.486170959E0,1.485186516E1
1.483759667E0,1.311377975E1,-2.338886261E0,3.914958801E0,1.388411001E1
1.493793667E0,1.206146805E1,-2.102677460E0,3.800746307E0,1.281974791E1
1.503827667E0,1.065589096E1,-2.240391083E0,3.798650665E0,1.153243735E1
1.513861667E0,9.684860229E0,-2.450404358E0,3.450923767E0,1.056928919E1
1.523895667E0,8.637039185E0,-2.760858765E0,2.965183868E0,9.540078740E0
1.533929667E0,7.590415649E0,-3.148253174E0,2.366279297E0,8.551326534E0
1.543962667E0,6.414461060E0,-3.705544281E0,2.043400726E0,7.684520521E0
1.553996667E0,5.825435944E0,-4.620591431E0,1.864373016E0,7.665602119E0
1.564030667E0,5.530100098E0,-4.949906616E0,1.364113312E0,7.546150524E0
1.574064667E0,5.826932831E0,-5.115761719E0,9.903405762E-1,7.816964797E0
1.584098667E0,6.015091553E0,-5.867797852E0,1.427581329E0,8.523518432E0
1.594132667E0,5.989644470E0,-6.457721100E0,2.234403534E0,9.086834533E0
1.604166667E0,6.335425415E0,-6.463558960E0,2.700085144E0,9.444875298E0
1.614199667E0,8.152796173E0,-6.283333740E0,3.338956604E0,1.082113670E1
1.624233667E0,9.148974609E0,-5.890550537E0,3.792663116E0,1.152330749E1
1.634267667E0,8.714428253E0,-5.182971954E0,3.865561523E0,1.085113008E1
1.644301667E0,8.483608246E0,-4.720882874E0,4.067940674E0,1.052646595E1
1.654335667E0,8.294551392E0,-4.709656219E0,4.220174103E0,1.043025953E1
1.664369667E0,7.816595306E0,-4.720433807E0,4.330943756E0,1.010637083E1
1.674403667E0,7.554939423E0,-4.520150299E0,4.379143524E0,9.832892067E0
1.684437667E0,7.672894135E0,-3.987408142E0,4.485721893E0,9.741377161E0
1.694470667E0,7.664661255E0,-3.261417847E0,4.206103363E0,9.331408469E0
1.704504667E0,7.384593658E0,-3.284170532E0,3.492836609E0,8.804425431E0
1.714538667E0,7.086713104E0,-3.000809784E0,4.311484222E0,8.821295720E0
1.724572667E0,6.609954529E0,-2.982697449E0,5.392835541E0,9.037181979E0
1.734606667E0,5.999673615E0,-2.834655304E0,5.026996307E0,8.324785045E0
1.744640667E0,5.764362946E0,-2.489922180E0,5.175038452E0,8.136867678E0
1.754674667E0,5.718109131E0,-2.239193573E0,5.048850861E0,7.949946849E0
1.764707667E0,6.096222839E0,-1.889221344E0,4.377047882E0,7.738968817E0
1.774741667E0,6.804100800E0,-2.086660767E0,3.831731873E0,8.082828093E0
1.784775667E0,8.242010651E0,-2.948119354E0,4.338278503E0,9.769483490E0
1.794809667E0,9.051227875E0,-3.323089600E0,4.737348633E0,1.074291034E1
1.804843667E0,8.976084137E0,-3.080144806E0,5.156177673E0,1.080016420E1
1.814877667E0,8.485703888E0,-2.548450470E0,6.083499298E0,1.074759201E1
1.824911667E0,8.506510620E0,-2.152823181E0,6.440506897E0,1.088464513E1
1.834945667E0,8.441845093E0,-1.867815857E0,6.014792175E0,1.053238860E1
1.844978667E0,7.370672607E0,-1.237776031E0,5.061724091E0,9.026624782E0
1.855012667E0,7.589517517E0,-2.171534271E0,5.880820770E0,9.843799580E0
1.865046667E0,7.510182495E0,-3.540287933E0,6.271957397E0,1.040547593E1
1.875080667E0,7.104675751E0,-3.985013123E0,5.429808655E0,9.789768595E0
1.885114667E0,7.001091156E0,-4.317920837E0,5.083578644E0,9.669668534E0
1.895148667E0,6.911427612E0,-4.505630493E0,5.152435455E0,9.727082240E0
1.905182667E0,7.387587433E0,-4.365970917E0,5.457351379E0,1.016960344E1
1.915216667E0,7.708669739E0,-3.960164795E0,5.618865509E0,1.032851122E1
1.925249667E0,7.878267059E0,-3.629801788E0,6.076314240E0,1.059075765E1
1.935283667E0,8.089178467E0,-3.461102600E0,6.128555603E0,1.072255722E1
1.945317667E0,8.904383240E0,-3.751798096E0,5.921536102E0,1.133263516E1
1.955351667E0,1.024469604E1,-4.505181427E0,5.701044617E0,1.255995089E1
1.965385667E0,1.134610565E1,-4.853357391E0,5.012775879E0,1.331980155E1
1.975419667E0,1.172676407E1,-5.456752625E0,4.407883759E0,1.366464723E1
1.985453667E0,1.158934982E1,-6.306236115E0,3.631598053E0,1.368466834E1
1.995486667E0,1.158381134E1,-6.589147797E0,3.453767853E0,1.376699191E1
2.005520667E0,1.141990219E1,-6.176755371E0,4.007167053E0,1.358763632E1
2.015554667E0,1.080737595E1,-5.449717255E0,5.037175140E0,1.310999338E1
2.025588667E0,1.040456360E1,-5.431604919E0,4.989574127E0,1.275355345E1
2.035622667E0,1.055994049E1,-6.579418030E0,4.007466431E0,1.307137605E1
2.045656667E0,9.679471436E0,-5.675148468E0,3.942800903E0,1.189307178E1
2.055690667E0,8.429869995E0,-4.098477173E0,5.116210785E0,1.067875630E1
2.065724667E0,7.957901459E0,-4.367916870E0,5.878425751E0,1.081493332E1
2.075757667E0,8.193361816E0,-4.923711090E0,5.942492523E0,1.125554646E1
2.085791667E0,8.226443024E0,-4.603975983E0,5.211861877E0,1.077192944E1
2.095825667E0,7.511380005E0,-3.719016266E0,4.972359924E0,9.745577191E0
2.105859667E0,6.494694214E0,-3.130589905E0,4.906197510E0,8.720803867E0
2.115893667E0,5.428311768E0,-2.853067017E0,4.218228149E0,7.443118215E0
2.125927667E0,5.388793945E0,-2.877316589E0,4.307742004E0,7.474937600E0
2.135961667E0,6.426585846E0,-2.258503418E0,4.850363617E0,8.362288595E0
2.145994667E0,7.035220184E0,-1.427132263E0,5.343288574E0,8.948841396E0
2.156028667E0,6.325096893E0,-1.654359741E0,5.299429779E0,8.415920202E0
2.166062667E0,5.749244385E0,-2.306254120E0,5.363047485E0,8.193588798E0
2.176096667E0,5.484295349E0,-2.392923889E0,5.591322784E0,8.189412109E0
2.186130667E0,5.373226318E0,-2.164648590E0,5.772895203E0,8.178238417E0
2.196164667E0,5.444178772E0,-2.179767151E0,5.707032166E0,8.182950780E0
2.206198667E0,5.870941315E0,-2.229164429E0,5.379962311E0,8.269287783E0
2.216232667E0,6.315816193E0,-2.188149719E0,4.970713348E0,8.329797390E0
2.226265667E0,6.566395111E0,-2.309996338E0,4.872667236E0,8.496853172E0
2.236299667E0,6.198460236E0,-2.249522095E0,5.386548615E0,8.514467977E0
2.246333667E0,5.451812897E0,-2.192490692E0,6.040388947E0,8.427074102E0
2.256367625E0,4.553830261E0,-2.296374664E0,6.300398254E0,8.105906785E0
2.266401625E0,3.675756226E0,-2.581980743E0,6.430926819E0,7.844401069E0
2.276435625E0,3.082689514E0,-2.840792542E0,6.661297760E0,7.870575884E0
2.286469625E0,2.717598724E0,-2.873424683E0,7.347770233E0,8.344557486E0
2.296503625E0,2.210004272E0,-3.105591888E0,7.872728577E0,8.746923751E0
2.306536625E0,1.929337921E0,-2.973566437E0,8.053103485E0,8.798688420E0
2.316570625E0,1.886227570E0,-2.939587097E0,7.759713593E0,8.509534757E0
2.326604625E0,2.310595093E0,-2.954555969E0,7.393724670E0,8.290682430E0
2.336638625E0,2.606679382E0,-3.147355042E0,6.841822357E0,7.969388579E0
2.346672625E0,2.775528259E0,-3.452570343E0,6.169420624E0,7.595100389E0
2.356706625E0,2.839295654E0,-3.788920898E0,5.811514893E0,7.496080758E0
2.366740625E0,3.057242432E0,-4.129313049E0,5.670957184E0,7.652301152E0
2.376773625E0,3.430266724E0,-4.283193054E0,5.623356171E0,7.857137339E0
2.386807625E0,3.754043427E0,-3.923341370E0,5.858816528E0,7.988190074E0
2.396841625E0,3.917054443E0,-3.116070099E0,6.467450867E0,8.178088352E0
2.406875625E0,3.587589569E0,-2.754122772E0,7.314539337E0,8.599911446E0
2.416909625E0,3.148702240E0,-2.882705383E0,8.162675629E0,9.211600813E0
2.426943625E0,2.754122772E0,-3.042872314E0,8.876990204E0,9.779837383E0
2.436977625E0,2.332749023E0,-2.949466553E0,9.949360199E0,1.063629820E1
2.447011625E0,2.337089996E0,-2.752925262E0,1.117022141E1,1.173943923E1
2.457044625E0,2.533481598E0,-2.439477081E0,1.195084808E1,1.245762206E1
2.467078625E0,2.683769073E0,-2.288291473E0,1.260169464E1,1.308593146E1
2.477112625E0,2.887645111E0,-2.388283539E0,1.282024017E1,1.335668187E1
2.487146625E0,2.774031372E0,-2.593656464E0,1.280317566E1,1.335453522E1
2.497180625E0,2.626737671E0,-2.861150208E0,1.267638931E1,1.325808347E1
2.507214625E0,2.306104431E0,-3.103795624E0,1.256232651E1,1.314396105E1
2.517248625E0,2.102078705E0,-3.132835236E0,1.222208405E1,1.279111918E1
2.527282625E0,2.057471466E0,-2.701881409E0,1.167467239E1,1.215859069E1
2.537315625E0,2.164498901E0,-2.415975952E0,1.082039886E1,1.129615098E1
2.547349625E0,2.515219574E0,-2.443967743E0,9.854756927E0,1.046018843E1
2.557383625E0,3.145558777E0,-2.912643127E0,8.644373932E0,9.649001538E0
2.567417625E0,3.844904480E0,-3.811074829E0,7.712411957E0,9.422785151E0
2.577451625E0,3.682641907E0,-5.371430054E0,7.321425018E0,9.798845674E0
2.587485625E0,3.238665161E0,-7.247478790E0,7.078929291E0,1.063607732E1
2.597519625E0,3.547772369E0,-8.069868622E0,7.148235168E0,1.134930546E1
2.607553625E0,4.168082428E0,-7.669151917E0,7.052434387E0,1.122165910E1
2.617586625E0,4.544399872E0,-6.944957886E0,7.017257538E0,1.086857459E1
2.627620625E0,4.909640350E0,-6.268963623E0,7.166347504E0,1.071265652E1
2.637654625E0,5.190157013E0,-5.304968262E0,6.569688263E0,9.911670997E0
2.647688625E0,5.479355621E0,-4.415368195E0,6.220464478E0,9.392177204E0
2.657722625E0,5.674998779E0,-3.901786194E0,6.314768372E0,9.343759748E0
2.667756625E0,5.132077789E0,-3.761078796E0,5.948480072E0,8.710244045E0
2.677790625E0,4.195026398E0,-4.068389740E0,5.604495392E0,8.096938320E0
2.687824625E0,3.550766144E0,-4.218826904E0,5.338049469E0,7.674712554E0
2.697857625E0,3.264710999E0,-4.006867676E0,4.772226105E0,7.034733006E0
2.707891625E0,2.995420990E0,-3.761827240E0,4.058659973E0,6.292583879E0
2.717925625E0,3.179987183E0,-3.816912689E0,3.754193115E0,6.226966108E0
2.727959625E0,3.521876221E0,-4.188739471E0,3.164569244E0,6.321680866E0
2.737993625E0,3.852388916E0,-4.836741943E0,2.467917938E0,6.657746761E0
2.748027625E0,4.281995544E0,-5.671855316E0,2.161505127E0,7.428158115E0
2.758061625E0,4.971761169E0,-6.840475159E0,2.589016113E0,8.843840453E0
2.768094625E0,5.681435394E0,-7.710615692E0,2.862048340E0,9.996180430E0
2.778128625E0,6.169570312E0,-8.934620361E0,3.576063538E0,1.143150337E1
2.788162625E0,5.822292480E0,-1.128218857E1,6.041287079E0,1.406001487E1
2.798196625E0,4.697830811E0,-1.362616425E1,6.876250763E0,1.596949564E1
2.808230625E0,3.060685272E0,-1.499342102E1,6.706803131E0,1.670783279E1
2.818264625E0,2.190844116E0,-1.563229248E1,7.028933258E0,1.727930175E1
2.828298625E0,2.201621704E0,-1.490510468E1,6.760840759E0,1.651418334E1
2.838332625E0,2.671644287E0,-1.196282318E1,5.642965393E0,1.349406833E1
2.848365625E0,2.474204865E0,-8.617579651E0,4.253704376E0,9.923626841E0
2.858399625E0,1.873653717E0,-6.503525848E0,3.922443237E0,7.822530771E0
2.868433625E0,1.453178101E0,-5.333259430E0,3.899241486E0,6.764574407E0
2.878467625E0,1.024918671E0,-4.848717041E0,4.020639038E0,6.381696757E0
2.888501625E0,5.364843750E-1,-5.030289459E0,4.106260986E0,6.515597196E0
2.898535625E0,1.396595764E-1,-5.992039490E0,4.278103638E0,7.363844972E0
2.908569625E0,3.480262756E-1,-6.932683411E0,4.433929596E0,8.236683387E0
2.918602625E0,5.674699402E-1,-7.581584015E0,4.712200928E0,8.944678635E0
2.928636625E0,8.711883545E-1,-8.306526489E0,5.265450439E0,9.873313517E0
2.938670625E0,1.500030670E0,-8.449329529E0,5.256169739E0,1.006322919E1
2.948704625E0,1.833836517E0,-8.793014832E0,5.621709595E0,1.059639962E1
2.958738625E0,2.255809021E0,-9.273665314E0,5.615422668E0,1.107350507E1
2.968772625E0,2.315085754E0,-9.631571045E0,5.581293640E0,1.137003173E1
2.978806625E0,2.252815247E0,-9.963430939E0,5.741610260E0,1.171798707E1
2.988840625E0,2.337988129E0,-9.931547241E0,5.694608002E0,1.168462149E1
2.998873625E0,2.579735413E0,-9.837542725E0,6.253096619E0,1.193873942E1
3.008907625E0,3.312162323E0,-1.011925690E1,6.944508820E0,1.271204083E1
3.018941625E0,3.674259338E0,-1.004201752E1,6.945556641E0,1.275080604E1
3.028975625E0,4.212539978E0,-9.738897858E0,6.745722198E0,1.257363879E1
3.039009625E0,5.395380249E0,-9.360484772E0,6.365812225E0,1.254003064E1
3.049043625E0,6.265820160E0,-9.097182312E0,5.970783691E0,1.255665107E1
3.059077625E0,6.898105316E0,-8.911268921E0,5.999374237E0,1.276663863E1
3.069110625E0,6.784192200E0,-9.064250793E0,6.202651520E0,1.290963950E1
3.079144625E0,6.280489655E0,-8.814270630E0,5.851930847E0,1.230369911E1
3.089178625E0,5.267246704E0,-8.666078796E0,5.712720337E0,1.163958690E1
3.099212625E0,4.737648010E0,-8.593479767E0,4.902155914E0,1.096924500E1
3.109246625E0,4.533322906E0,-8.555009766E0,4.475093994E0,1.066609933E1
3.119280625E0,4.279301147E0,-8.706494751E0,4.613556061E0,1.074245636E1
3.129314625E0,4.538861389E0,-8.681646423E0,4.747377777E0,1.088622263E1
3.139347625E0,5.151088257E0,-8.667725372E0,5.062472534E0,1.128236684E1
3.149381625E0,6.290369110E0,-8.557255096E0,5.607788544E0,1.201010619E1
3.159415625E0,6.928941193E0,-8.612190857E0,5.755980377E0,1.246239814E1
3.169449625E0,7.025340729E0,-8.663534088E0,5.626200256E0,1.249265242E1
3.179483625E0,6.774462433E0,-8.569379883E0,5.648204498E0,1.229755370E1
3.189517625E0,6.981631622E0,-8.343649292E0,5.908662872E0,1.238030535E1
3.199551625E0,7.537874908E0,-7.786807251E0,6.220165100E0,1.249577445E1
3.209585625E0,7.422464905E0,-7.111262054E0,6.809040527E0,1.232988508E1
3.219618625E0,6.706204376E0,-6.665189667E0,7.130422211E0,1.184233302E1
3.229652625E0,5.863606567E0,-5.815706177E0,6.287225647E0,1.037947622E1
3.239686625E0,5.250182190E0,-4.820874939E0,5.529800720E0,9.021305017E0
3.249721000E0,4.800816650E0,-4.015699310E0,5.326673126E0,8.218705984E0
3.259755000E0,4.391118622E0,-3.251837769E0,5.533842316E0,7.776874848E0
3.269789000E0,3.906725922E0,-2.689307556E0,5.663772125E0,7.387367410E0
3.279823000E0,3.416944427E0,-2.320324860E0,5.617218933E0,6.972271166E0
3.289856000E0,2.947670288E0,-2.112407227E0,5.464087372E0,6.557993232E0
3.299890000E0,2.818788300E0,-2.046544189E0,5.096751251E0,6.173393225E0
3.309924000E0,2.859353943E0,-2.160457306E0,4.650828552E0,5.871429721E0
3.319958000E0,2.765499115E0,-2.420466614E0,4.406835938E0,5.738191959E0
3.329992000E0,2.642454987E0,-2.919977875E0,4.268224182E0,5.807458723E0
3.340026000E0,2.858904877E0,-3.461102600E0,4.582869873E0,6.415236907E0
3.350060000E0,2.944377136E0,-4.074676666E0,4.856949921E0,6.990158023E0
3.360094000E0,2.811303864E0,-4.698130188E0,4.746180267E0,7.245832168E0
3.370127000E0,2.634671173E0,-5.030139771E0,4.632117462E0,7.328049569E0
3.380161000E0,2.429747314E0,-5.249882812E0,4.484973450E0,7.319831173E0
3.390195000E0,2.250569916E0,-5.439837799E0,4.535119171E0,7.431299087E0
3.400229000E0,1.998344421E0,-5.466033325E0,4.688550110E0,7.473513422E0
3.410263000E0,1.726659393E0,-5.382207642E0,4.963378601E0,7.522276178E0
3.420297000E0,1.664089508E0,-5.184019775E0,5.473817139E0,7.720487613E0
3.430331000E0,1.806144104E0,-4.853806458E0,6.132297821E0,8.026622591E0
3.440364000E0,2.024090881E0,-4.468358002E0,6.802154846E0,8.386446070E0
3.450398000E0,2.260748749E0,-4.152514801E0,7.456743622E0,8.829348193E0
3.460432000E0,2.555485840E0,-3.895798645E0,8.000712433E0,9.258463933E0
3.470466000E0,2.747386780E0,-3.923940125E0,8.692424011E0,9.924901783E0
3.480500000E0,2.902913361E0,-4.134402466E0,9.146878967E0,1.044919062E1
3.490534000E0,3.030597839E0,-4.729564819E0,9.276210022E0,1.084441695E1
3.500568000E0,3.211571503E0,-5.871689758E0,9.032217407E0,1.124152496E1
3.510601000E0,3.482657776E0,-7.044800262E0,8.803942108E0,1.180116573E1
3.520635000E0,3.715423737E0,-8.255782013E0,8.289162598E0,1.227487380E1
3.530669000E0,4.141138458E0,-9.325008545E0,8.252937927E0,1.312310164E1
3.540703000E0,4.545597382E0,-9.747430115E0,9.029523010E0,1.404304579E1
3.550737000E0,4.541705475E0,-9.472751312E0,9.439819794E0,1.412339562E1
3.560771000E0,4.392914886E0,-8.641978912E0,9.834698639E0,1.380951839E1
3.570805000E0,4.279450836E0,-8.087082825E0,1.112217133E1,1.440198955E1
3.580839000E0,4.477638702E0,-7.602989502E0,1.273910889E1,1.549643807E1
3.590872000E0,5.191354523E0,-7.304210815E0,1.320568863E1,1.595906857E1
3.600906000E0,6.202202454E0,-7.717201996E0,1.189366699E1,1.547520069E1
3.610940000E0,6.609655151E0,-8.242609406E0,9.049132233E0,1.391096493E1
3.620974000E0,6.795718231E0,-7.983348541E0,6.485114136E0,1.232770642E1
3.631008000E0,6.975045319E0,-7.564519501E0,4.373455353E0,1.118035439E1
3.641042000E0,6.897955627E0,-7.161407776E0,2.495460663E0,1.025157925E1
3.651076000E0,7.169341278E0,-6.559958496E0,1.652413788E0,9.857128444E0
3.661109000E0,7.201075287E0,-6.175707550E0,1.182391205E0,9.559963284E0
3.671143000E0,7.427704010E0,-6.118975525E0,1.532812500E0,9.744853128E0
3.681177000E0,7.257058868E0,-6.559958496E0,2.320474548E0,1.005398235E1
3.691211000E0,7.229516144E0,-7.197183380E0,3.288810883E0,1.071828481E1
3.701245000E0,7.138954468E0,-7.751181335E0,4.372407532E0,1.140891891E1
3.711279000E0,6.947352905E0,-8.267757111E0,5.250631256E0,1.200794106E1
3.721313000E0,6.705455933E0,-8.172704773E0,5.702990570E0,1.201167532E1
3.731346000E0,6.151457977E0,-8.230185242E0,6.102060699E0,1.195037778E1
3.741380000E0,6.009403381E0,-7.815098419E0,6.280489655E0,1.168902231E1
3.751414000E0,5.760321350E0,-7.504644012E0,6.655759277E0,1.156719998E1
3.761448000E0,5.591322784E0,-6.863976288E0,7.191644897E0,1.140599918E1
3.771482000E0,5.234464874E0,-6.083648987E0,7.301516418E0,1.085000228E1
3.781516000E0,4.672533417E0,-5.128934326E0,7.088060303E0,9.918625646E0
3.791550000E0,4.071084137E0,-4.379143524E0,6.396049347E0,8.755573728E0
3.801583000E0,4.025279388E0,-3.575015717E0,5.513933716E0,7.706301094E0
3.811617000E0,4.863835602E0,-2.591860199E0,4.869823151E0,7.354577729E0
3.821651000E0,6.364015961E0,-1.480122070E0,4.262835388E0,7.801488707E0
3.831685000E0,6.036197662E0,-9.521699524E-1,4.314627686E0,7.480529520E0
3.841719000E0,3.220403137E0,-1.482367401E0,4.457281036E0,5.695240444E0
3.851753000E0,1.498384094E0,-2.674039307E0,4.579876099E0,5.510980510E0
3.861787000E0,1.641636200E0,-4.197122040E0,4.812642059E0,6.593354717E0
3.871820000E0,1.986069946E0,-5.173242188E0,4.743186493E0,7.294157022E0
3.881854000E0,2.355801086E0,-5.347479858E0,4.728666687E0,7.517022564E0
3.891888000E0,3.316802673E0,-4.920268250E0,4.991220703E0,7.753870242E0
3.901922000E0,4.221820679E0,-4.458179169E0,5.218448181E0,8.057998062E0
3.911956000E0,4.424499207E0,-4.394112396E0,5.488037567E0,8.306802834E0
3.921990000E0,4.200564880E0,-4.413571930E0,5.700595551E0,8.343929058E0
3.932024000E0,4.068240051E0,-4.521946564E0,5.948031006E0,8.507505550E0
3.942057000E0,3.844904480E0,-4.558021545E0,6.122867432E0,8.546833124E0
3.952091000E0,3.644920349E0,-4.458179169E0,6.248456268E0,8.497294369E0
3.962125000E0,3.709286499E0,-4.156107330E0,6.528224487E0,8.581943220E0
3.972159000E0,4.035607910E0,-3.805686035E0,6.414311371E0,8.480139608E0
3.982193000E0,4.394711151E0,-3.643573151E0,6.362219696E0,8.547920851E0
3.992227000E0,4.792134705E0,-3.797752533E0,6.284231873E0,8.768069888E0
4.002261000E0,5.137616272E0,-4.094884644E0,6.270759888E0,9.082158927E0
4.012294000E0,5.694907379E0,-4.227059784E0,6.473139038E0,9.602162958E0
4.022328000E0,6.162085876E0,-4.330195312E0,6.544690247E0,9.977718387E0
4.032362000E0,6.669231262E0,-4.483326874E0,6.711892548E0,1.047035659E1
4.042396000E0,7.496710510E0,-4.713548126E0,7.462282104E0,1.158032204E1
4.052430000E0,8.295748901E0,-4.708009644E0,7.914940796E0,1.239480102E1
4.062464000E0,8.648415527E0,-4.771028595E0,7.721692657E0,1.253723823E1
4.072498000E0,8.892557831E0,-5.042713623E0,7.254514160E0,1.253533092E1
4.082532000E0,9.240135040E0,-5.410648499E0,6.517746277E0,1.253539905E1
4.092565000E0,1.034992722E1,-6.416407013E0,6.677913208E0,1.388833313E1
4.102599000E0,1.164129181E1,-7.761210480E0,7.934999084E0,1.608478391E1
4.112633000E0,1.116378479E1,-8.345744934E0,8.407117310E0,1.627762792E1
4.122667000E0,8.627309418E0,-8.819210358E0,8.414901123E0,1.493383742E1
4.132701000E0,6.315965881E0,-9.222771149E0,8.542884979E0,1.406882427E1
4.142735000E0,6.000422058E0,-9.094487915E0,8.165968781E0,1.361608686E1
4.152768000E0,6.498286743E0,-8.756191406E0,7.055428162E0,1.298759736E1
4.162802000E0,6.994205475E0,-8.313112793E0,5.688620453E0,1.226324415E1
4.172836000E0,7.398065643E0,-7.937394104E0,4.231999512E0,1.164660553E1
4.182870000E0,7.671546936E0,-7.790250092E0,3.089575195E0,1.136160657E1
4.192904000E0,8.115673370E0,-7.727231140E0,2.410886536E0,1.146240068E1
4.202938000E0,8.388855286E0,-7.738757172E0,2.253713379E0,1.163359272E1
4.212972000E0,8.449329529E0,-7.958051147E0,2.497705994E0,1.187266957E1
4.223006000E0,8.510552216E0,-8.118667145E0,3.070714417E0,1.215613188E1
4.233039000E0,8.447084198E0,-8.205636292E0,3.638633423E0,1.232580024E1
4.243073000E0,8.174201660E0,-7.958051147E0,4.105961609E0,1.212464728E1
4.253106167E0,7.557633820E0,-7.389234009E0,4.494852905E0,1.148574381E1
4.263140167E0,6.788832550E0,-6.753506012E0,4.619693298E0,1.063201096E1
4.273174167E0,6.285279694E0,-6.146967316E0,4.661007385E0,9.950624998E0
4.283208167E0,6.062842255E0,-5.626948700E0,4.661755829E0,9.494870999E0
4.293242167E0,5.929319916E0,-5.229375458E0,4.668491821E0,9.181395222E0
4.303275167E0,5.783672791E0,-4.858147430E0,4.519850922E0,8.802358761E0
4.313309167E0,5.497767334E0,-4.597539368E0,4.311933289E0,8.363945396E0
4.323343167E0,5.290747833E0,-4.432133331E0,4.227658539E0,8.093757794E0
4.333377167E0,4.938380585E0,-4.172423401E0,4.007915497E0,7.606583101E0
4.343411167E0,4.702620850E0,-3.980522461E0,3.772754517E0,7.224463894E0
4.353445167E0,4.533921661E0,-3.990102539E0,3.380570068E0,6.921388437E0
4.363479167E0,4.395309906E0,-4.089046783E0,2.985242157E0,6.704530073E0
4.373512167E0,4.357887726E0,-4.174968109E0,2.676733704E0,6.602003292E0
4.383546167E0,4.405638428E0,-4.230502625E0,2.424807587E0,6.571643192E0
4.393580167E0,4.557871857E0,-4.314028931E0,2.297721863E0,6.683155485E0
4.403614167E0,4.807103577E0,-4.402644653E0,2.309247894E0,6.915500747E0
4.413648167E0,5.041965179E0,-4.439468079E0,2.433040466E0,7.144926564E0
4.423682167E0,5.189109192E0,-4.480333099E0,2.600392456E0,7.332276578E0
4.433716167E0,5.200485535E0,-4.584067383E0,2.735860748E0,7.452761743E0
4.443749167E0,5.102140045E0,-4.718338165E0,2.961591339E0,7.554175755E0
4.453783167E0,5.015021210E0,-4.837340698E0,3.202290802E0,7.668439812E0
4.463817167E0,4.919519806E0,-4.888683929E0,3.426374817E0,7.735693251E0
4.473851167E0,4.512965240E0,-4.850064240E0,3.680995331E0,7.578898668E0
4.483885167E0,3.889960785E0,-4.803361359E0,4.119583282E0,7.427990419E0
4.493919167E0,3.149001617E0,-4.788542175E0,4.786147156E0,7.466830114E0
4.503953167E0,2.490071869E0,-4.884642334E0,5.716312866E0,7.920632641E0
4.513986167E0,2.091899872E0,-5.052892456E0,6.949598236E0,8.843341161E0
4.524020167E0,2.007924500E0,-5.358257446E0,8.248746643E0,1.003914861E1
4.534054167E0,2.295027466E0,-5.719606018E0,9.071136475E0,1.096661119E1
4.544088167E0,3.262615356E0,-6.310277710E0,9.126371613E0,1.156524632E1
4.554122167E0,5.091512146E0,-6.991511078E0,8.865164795E0,1.238530863E1
4.564156167E0,7.003486176E0,-7.672894135E0,8.321495361E0,1.331049992E1
4.574190167E0,7.793543243E0,-8.245004425E0,7.729925537E0,1.372848000E1
4.584223167E0,7.555987244E0,-8.647816772E0,7.610773315E0,1.377684828E1
4.594257167E0,6.780599670E0,-8.603359222E0,7.435936890E0,1.323961779E1
4.604291167E0,5.200186157E0,-8.004754028E0,7.382947083E0,1.206755695E1
4.614325167E0,4.143982544E0,-7.632927246E0,8.179291077E0,1.193042213E1
4.624359167E0,4.077071686E0,-7.514373779E0,1.006087830E1,1.320263606E1
4.634393167E0,5.784121857E0,-7.301067352E0,1.171179520E1,1.496421722E1
4.644427167E0,8.238567810E0,-6.849456482E0,1.229947311E1,1.631153250E1
4.654460167E0,1.021625519E1,-6.149212646E0,1.078447357E1,1.607761041E1
4.664494167E0,1.179053146E1,-5.951473846E0,7.710765381E0,1.529354687E1
4.674528167E0,1.229962280E1,-6.059100037E0,4.359983368E0,1.438759429E1
4.684562167E0,1.172930878E1,-6.035149841E0,1.775757294E0,1.330988475E1
4.694596167E0,1.077324692E1,-6.047124939E0,4.695735168E-1,1.236329521E1
4.704630167E0,9.483379211E0,-6.092929688E0,-8.966354370E-2,1.127236945E1
4.714664167E0,8.039182434E0,-5.945486298E0,-1.477427673E-1,9.999954472E0
4.724697167E0,6.760990448E0,-5.596112823E0,2.409988403E-2,8.776562617E0
4.734731167E0,5.814658356E0,-5.170098724E0,5.084925842E-1,7.797354508E0
4.744765167E0,5.368885345E0,-4.809648285E0,1.380878448E0,7.339241907E0
4.754799167E0,5.642067261E0,-4.657863922E0,2.392175446E0,7.697475083E0
4.764833167E0,6.748865662E0,-4.508773956E0,3.119512939E0,8.695262577E0
4.774867167E0,7.997119904E0,-4.508324890E0,4.118984528E0,1.006205514E1
4.784901167E0,9.104367371E0,-5.252128143E0,5.597759399E0,1.190836956E1
4.794934167E0,9.634415131E0,-6.366860046E0,6.080056458E0,1.305089837E1
4.804968167E0,9.341174927E0,-7.339088287E0,5.435496826E0,1.306385822E1
4.815002167E0,8.308173065E0,-7.720644836E0,4.569547577E0,1.222762697E1
4.825036167E0,6.831643524E0,-6.965315552E0,3.494782562E0,1.036342024E1
4.835070167E0,5.812862091E0,-5.364993439E0,2.516566772E0,8.300941429E0
4.845104167E0,5.369783478E0,-3.816463623E0,2.383643188E0,7.005834999E0
4.855138167E0,4.636009369E0,-2.699935455E0,2.601739655E0,5.962489712E0
4.865171167E0,4.118685150E0,-2.374512177E0,3.008892975E0,5.626305393E0
4.875205167E0,4.173471222E0,-2.901117096E0,3.764970703E0,6.325294210E0
4.885239167E0,4.254153442E0,-3.507805481E0,3.789369965E0,6.690429398E0
4.895273167E0,4.651277618E0,-3.697161713E0,3.107837219E0,6.705373994E0
4.905307167E0,5.662873993E0,-3.774700470E0,2.250719604E0,7.168140919E0
4.915341167E0,6.568490753E0,-4.076622620E0,1.867965546E0,7.953189174E0
4.925375167E0,6.911577301E0,-4.341871033E0,2.099683685E0,8.427954463E0
4.935408167E0,6.859485626E0,-4.478985901E0,2.576591949E0,8.587938276E0
4.945442167E0,6.765930176E0,-4.422253876E0,3.084186401E0,8.651378286E0
4.955476167E0,6.710994415E0,-4.269421692E0,3.491190033E0,8.686415571E0
4.965510167E0,6.853049011E0,-3.973636780E0,3.887865143E0,8.824373370E0
4.975544167E0,6.799610138E0,-3.590733032E0,4.176464996E0,8.750481221E0
4.985578167E0,6.274202728E0,-3.261567535E0,4.297712860E0,8.274888428E0
4.995612167E0,5.875282288E0,-3.046464844E0,4.570595398E0,8.043023828E0
5.005645167E0,5.948330383E0,-2.838547211E0,5.070106659E0,8.315405351E0
5.015679167E0,6.349196777E0,-2.760709076E0,5.532195740E0,8.862223424E0
5.025713167E0,6.465654602E0,-2.845283203E0,5.715115356E0,9.086411254E0
5.035747167E0,6.139632568E0,-3.144211578E0,5.493426361E0,8.818100006E0
5.045781167E0,5.844895477E0,-3.655099182E0,5.063220978E0,8.553289416E0
5.055815167E0,5.736820221E0,-4.328399048E0,4.739444275E0,8.608628032E0
5.065849167E0,6.014193420E0,-4.825215912E0,4.431983643E0,8.893576901E0
5.075882167E0,6.605014801E0,-4.918022919E0,4.469256134E0,9.369494135E0
5.085916167E0,7.506589966E0,-4.667893066E0,5.062622223E0,1.018667082E1
5.095950167E0,8.986113281E0,-4.649930420E0,5.976920929E0,1.175141135E1
5.105984167E0,1.072893906E1,-4.565505981E0,6.906787262E0,1.355203632E1
5.116018167E0,1.208826233E1,-4.545447693E0,7.824079742E0,1.509978161E1
5.126052167E0,1.241368561E1,-4.939727783E0,8.297545166E0,1.572735695E1
5.136086167E0,1.168200714E1,-5.389841766E0,7.786807251E0,1.503841921E1
5.146119167E0,1.119042938E1,-5.721851349E0,6.818171539E0,1.429869769E1
5.156153167E0,1.166434387E1,-6.485563202E0,6.286327515E0,1.475253746E1
5.166187167E0,1.101289856E1,-7.901019745E0,5.735023956E0,1.471735532E1
5.176221167E0,9.708061981E0,-9.141490173E0,5.770949249E0,1.452987148E1
5.186255167E0,8.748557281E0,-1.025038422E1,6.510860596E0,1.496659403E1
5.196289167E0,8.222401428E0,-1.060080551E1,7.461833038E0,1.535134896E1
5.206323167E0,7.811206512E0,-9.734257507E0,6.384822693E0,1.401915394E1
5.216356167E0,7.607180786E0,-7.732619934E0,3.455115051E0,1.138421849E1
5.226390167E0,7.101532288E0,-6.412664795E0,1.626367950E0,9.705622253E0
5.236424167E0,7.465126190E0,-6.381978607E0,1.605561218E0,9.951662515E0
5.246458167E0,8.351882172E0,-6.839427338E0,2.321073303E0,1.104169749E1
5.256492917E0,8.928034058E0,-7.189848633E0,2.923271027E0,1.183001390E1
5.266526917E0,9.282347260E0,-7.310048676E0,3.312162323E0,1.227066427E1
5.276560917E0,9.358688507E0,-7.332202606E0,3.666026459E0,1.244130201E1
5.286593917E0,9.034762115E0,-7.377707977E0,3.928281097E0,1.230808246E1
5.296627917E0,8.753197632E0,-7.363487549E0,4.240681458E0,1.219929493E1
5.306661917E0,8.343798981E0,-7.044351196E0,4.249213715E0,1.171740937E1
5.316695917E0,7.817343750E0,-6.350394287E0,4.045187988E0,1.085365914E1
5.326729917E0,7.343129883E0,-5.458399200E0,3.702999573E0,9.870556425E0
5.336763917E0,6.924300842E0,-4.604724426E0,3.340154114E0,8.961364779E0
5.346797917E0,6.283932495E0,-3.931424561E0,3.104244690E0,8.036183284E0
5.356830917E0,5.527256012E0,-3.553310852E0,2.868784332E0,7.169832674E0
5.366864917E0,5.354664917E0,-3.646267548E0,2.602188721E0,6.981338664E0
5.376898917E0,5.570665741E0,-3.576811981E0,2.201322327E0,6.976512075E0
5.386932917E0,5.423671417E0,-3.227288818E0,1.905836792E0,6.592709506E0
5.396966917E0,5.246889038E0,-2.897075500E0,1.553768921E0,6.191695155E0
5.407000917E0,5.234464874E0,-2.649340668E0,1.158890076E0,5.980104907E0
5.417034917E0,5.256319427E0,-2.445314941E0,8.812174988E-1,5.863872728E0
5.427067917E0,5.348078613E0,-2.351310425E0,6.744973755E-1,5.880948246E0
5.437101917E0,5.513484650E0,-2.399061127E0,5.836363220E-1,6.041079260E0
5.447135917E0,5.703289948E0,-2.585423584E0,5.969586182E-1,6.290333133E0
5.457169917E0,5.777236176E0,-2.935994568E0,6.518943787E-1,6.513178042E0
5.467203917E0,5.666466522E0,-3.395838318E0,9.557624817E-1,6.674881471E0
5.477237917E0,5.606890411E0,-3.844754791E0,1.589095459E0,6.981732154E0
5.487271917E0,5.362598419E0,-4.245621185E0,2.274819489E0,7.208159596E0
5.497304917E0,5.062622223E0,-4.556824036E0,3.023712158E0,7.452356961E0
5.507338917E0,4.830305328E0,-4.772974548E0,3.691772919E0,7.729315810E0
5.517372917E0,4.650529175E0,-4.882696381E0,4.283791809E0,7.988680605E0
5.527406917E0,4.454287262E0,-4.885839844E0,4.755311279E0,8.144021817E0
5.537440917E0,4.166735229E0,-4.974904633E0,5.248385925E0,8.346071734E0
5.547474917E0,4.130510559E0,-5.059778137E0,5.849386139E0,8.767998088E0
5.557508917E0,4.342020721E0,-5.225782928E0,6.525081024E0,9.420118552E0
5.567541917E0,4.913083191E0,-5.465434570E0,7.273973694E0,1.034021541E1
5.577575917E0,5.343138885E0,-6.065536652E0,8.051606598E0,1.140912954E1
5.587609917E0,5.262456665E0,-7.225923615E0,8.778944092E0,1.252905749E1
5.597643917E0,4.833748169E0,-8.590935059E0,9.414372711E0,1.363083637E1
5.607677917E0,4.568948822E0,-9.884994049E0,1.017524048E1,1.490382231E1
5.617711917E0,4.464166718E0,-1.083042801E1,1.165132095E1,1.652211352E1
5.627745917E0,4.171674957E0,-1.013242950E1,1.260154495E1,1.669933935E1
5.637778917E0,4.214336243E0,-7.929909668E0,1.316856583E1,1.593910986E1
5.647812917E0,5.940995636E0,-5.622308350E0,1.345686630E1,1.574779448E1
5.657846917E0,8.562643890E0,-4.096980286E0,1.349084564E1,1.649566713E1
5.667880917E0,1.116543137E1,-3.793710938E0,1.335223389E1,1.781407449E1
5.677914917E0,1.229318619E1,-3.904779968E0,1.187091431E1,1.752964175E1
5.687948917E0,1.205907303E1,-4.113296356E0,9.342372437E0,1.579937885E1
5.697981917E0,1.111408813E1,-4.342170410E0,6.700965271E0,1.368504054E1
5.708015917E0,9.995015259E0,-4.471800842E0,4.511917419E0,1.184291905E1
5.718049917E0,9.358838196E0,-4.908143463E0,3.281625824E0,1.106556789E1
5.728083917E0,8.862021332E0,-5.486989746E0,2.601140900E0,1.074283075E1
5.738117917E0,8.512947235E0,-5.431455231E0,2.127226410E0,1.031969325E1
5.748151917E0,8.303981781E0,-5.047803040E0,1.904489594E0,9.902702134E0
5.758185917E0,8.412805481E0,-4.974156189E0,1.883982239E0,9.953236405E0
5.768218917E0,8.817713470E0,-5.061424713E0,2.137255554E0,1.038931914E1
5.778252917E0,9.204958191E0,-5.205574951E0,2.395019531E0,1.084275723E1
5.788286917E0,9.645192719E0,-5.467081146E0,2.387984161E0,1.134112813E1
5.798320917E0,9.946965179E0,-5.707481232E0,2.217189331E0,1.168047032E1
5.808354917E0,9.505982208E0,-5.801036682E0,2.180066528E0,1.134761712E1
5.818388917E0,8.664731598E0,-5.857319641E0,2.221380615E0,1.069206710E1
5.828422917E0,7.573800201E0,-5.692961426E0,1.914219360E0,9.666255482E0
5.838455917E0,6.469546509E0,-5.441334686E0,1.379381561E0,8.565386663E0
5.848489917E0,5.647456055E0,-5.189707947E0,1.031954041E0,7.738976522E0
5.858523917E0,5.043611755E0,-4.991669769E0,7.840695190E-1,7.139296298E0
5.868557917E0,4.681065674E0,-4.839436340E0,7.032376099E-1,6.769568898E0
5.878591917E0,4.614454193E0,-4.709356842E0,8.189469910E-1,6.643937352E0
5.888625917E0,4.616549835E0,-4.673880615E0,1.001417542E0,6.645338929E0
5.898659917E0,4.690496063E0,-4.692142639E0,1.291214905E0,6.759008196E0
5.908692917E0,4.920118561E0,-4.723876648E0,1.770069122E0,7.046681626E0
5.918726917E0,5.060376892E0,-4.690496063E0,2.340832214E0,7.286128126E0
5.928760917E0,5.389692078E0,-4.588707733E0,2.957400055E0,7.671455823E0
5.938794917E0,5.724396057E0,-4.449497223E0,3.467988281E0,8.037019253E0
5.948828917E0,5.763913879E0,-4.170327759E0,3.850592651E0,8.089585934E0
5.958862917E0,5.732778625E0,-3.814218292E0,4.259542236E0,8.096709950E0
5.968896917E0,5.813909912E0,-3.319796448E0,4.586312714E0,8.115224041E0
5.978929917E0,5.713019714E0,-2.951262817E0,4.868625641E0,8.065485857E0
5.988963917E0,5.539829865E0,-2.696342926E0,5.089416504E0,7.991379133E0
5.998997917E0,5.599106598E0,-2.630779266E0,5.401068420E0,8.212340368E0
6.009031917E0,5.860762482E0,-2.788850555E0,5.786965942E0,8.695700035E0
6.019065917E0,5.889502716E0,-2.983445892E0,6.309678955E0,9.132318443E0
6.029099917E0,5.679040375E0,-2.971021729E0,6.875202942E0,9.399302377E0
6.039133917E0,5.356760559E0,-3.113824768E0,7.468419342E0,9.704023693E0
6.049166917E0,5.257816315E0,-3.372935944E0,7.978109436E0,1.013269754E1
6.059200917E0,5.106930084E0,-3.683090973E0,8.528814240E0,1.060125305E1
6.069234917E0,4.679269409E0,-4.364324341E0,8.985215149E0,1.103072892E1
6.079268917E0,5.006638641E0,-4.891827393E0,9.508077850E0,1.180677560E1
6.089302917E0,6.635850677E0,-4.717739410E0,1.014620087E1,1.300911109E1
6.099336917E0,8.917406158E0,-4.578379211E0,1.075019485E1,1.469858422E1
6.109369917E0,1.023766068E1,-4.414769440E0,1.048808990E1,1.530685844E1
6.119403917E0,1.031205597E1,-3.846850433E0,9.230704651E0,1.436463243E1
6.129437917E0,1.041893372E1,-3.535348206E0,7.812404022E0,1.349394395E1
6.139471917E0,1.055455170E1,-3.447031860E0,6.434070282E0,1.283268680E1
6.149505917E0,1.144445114E1,-4.208797760E0,5.370082855E0,1.332393449E1
6.159539917E0,1.317560120E1,-5.659281464E0,5.297783203E0,1.528693692E1
6.169573917E0,1.382854340E1,-6.920708313E0,5.793252869E0,1.651322485E1
6.179606917E0,1.283550842E1,-7.315587158E0,5.974825287E0,1.593633048E1
6.189640917E0,1.054362442E1,-6.795867920E0,5.585933990E0,1.373151467E1
6.199674917E0,8.988657990E0,-6.403833160E0,5.169499969E0,1.218723847E1
6.209708917E0,8.671317902E0,-6.355932770E0,4.453987885E0,1.163733834E1
6.219742917E0,8.582552490E0,-6.503525848E0,3.337010651E0,1.127349528E1
6.229776917E0,8.412506104E0,-6.783892822E0,2.490371246E0,1.109023939E1
6.239810917E0,8.465046844E0,-7.104975128E0,2.279010773E0,1.128412955E1
6.249843917E0,8.928333435E0,-7.417076111E0,2.385289764E0,1.184980013E1
6.259877792E0,9.411229248E0,-7.295678558E0,2.590962067E0,1.218651903E1
6.269911792E0,9.730066223E0,-6.943011932E0,2.978955231E0,1.231883832E1
6.279945792E0,9.873767395E0,-6.735094299E0,3.542832642E0,1.246613175E1
6.289979792E0,9.763297119E0,-6.448889465E0,4.199067993E0,1.243150506E1
6.300013792E0,9.473050690E0,-5.883964233E0,4.547543335E0,1.204325018E1
6.310047792E0,9.291328583E0,-5.078040161E0,4.422553253E0,1.147494035E1
6.320080792E0,9.062454529E0,-4.421954498E0,4.229454803E0,1.093480917E1
6.330114792E0,8.619375916E0,-3.770359497E0,3.597319336E0,1.007223701E1
6.340148792E0,8.049960022E0,-3.091072083E0,2.694995728E0,9.034355812E0
6.350182792E0,7.153025208E0,-2.667752380E0,1.863474884E0,7.858448385E0
6.360216792E0,6.337071991E0,-2.438129883E0,1.302740936E0,6.913761110E0
6.370250792E0,5.909860382E0,-2.356250153E0,8.849597168E-1,6.423512919E0
6.380284792E0,5.929170227E0,-2.346370697E0,5.969586182E-1,6.404441788E0
6.390317792E0,6.074517975E0,-2.372117157E0,4.056564331E-1,6.533855338E0
6.400351792E0,5.963898010E0,-2.481988678E0,2.451901245E-1,6.464399854E0
6.410385792E0,5.879024506E0,-2.648442535E0,2.758763123E-1,6.453935601E0
6.420419792E0,5.721402283E0,-2.882406006E0,6.051914978E-1,6.434979814E0
6.430453792E0,5.317392426E0,-3.264561310E0,1.145268402E0,6.343789283E0
6.440487792E0,5.056784363E0,-3.668571167E0,1.749561768E0,6.487715228E0
6.450520792E0,4.692292328E0,-4.173471222E0,2.254761200E0,6.672287269E0
6.460554792E0,4.145030365E0,-4.668940887E0,2.637814636E0,6.777783693E0
6.470588792E0,3.672912140E0,-4.997657318E0,2.972668304E0,6.877762653E0
6.480622792E0,3.404370575E0,-5.211861877E0,3.405119019E0,7.095638010E0
6.490656792E0,3.426225128E0,-5.360502777E0,3.970792694E0,7.499413529E0
6.500690792E0,3.704346771E0,-5.361400909E0,4.603676605E0,7.978761997E0
6.510724792E0,3.992497559E0,-5.144651642E0,5.231770477E0,8.353376539E0
6.520757792E0,4.159849548E0,-4.786895599E0,5.733676758E0,8.549489278E0
6.530791792E0,4.269721069E0,-4.387825470E0,6.082601166E0,8.630270408E0
6.540825792E0,4.591701508E0,-4.095483398E0,6.473139038E0,8.930746666E0
6.550859792E0,5.053341522E0,-4.138294373E0,6.916666718E0,9.513254929E0
6.560893792E0,5.401218109E0,-4.816833344E0,7.237599335E0,1.023512993E1
6.570927792E0,6.055357819E0,-5.921536102E0,7.588469696E0,1.137175538E1
6.580961792E0,6.703959045E0,-7.018005981E0,8.156089325E0,1.267743144E1
6.590994792E0,6.834038544E0,-8.040829010E0,8.928034058E0,1.382276405E1
6.601028792E0,6.501280518E0,-8.827592926E0,1.034498749E1,1.507354674E1
6.611062792E0,5.986501007E0,-8.718769226E0,1.268611908E1,1.651643873E1
6.621096792E0,5.111570435E0,-7.225324860E0,1.514655258E1,1.754284831E1
6.631130792E0,3.474873962E0,-4.692591705E0,1.453133194E1,1.566061218E1
6.641164792E0,3.325185242E0,-3.041824493E0,1.051383636E1,1.143898196E1
6.651198792E0,6.059549103E0,-2.791395264E0,8.555907898E0,1.084958906E1
6.661231792E0,9.722282410E0,-3.314257965E0,8.427025909E0,1.328615244E1
6.671265792E0,1.223016724E1,-4.080065460E0,7.942483521E0,1.514288510E1
6.681299792E0,1.348500778E1,-4.809498596E0,6.789730682E0,1.584541430E1
6.691333792E0,1.404110138E1,-4.914580078E0,5.414839783E0,1.583117542E1
6.701367792E0,1.362436798E1,-4.940625916E0,3.876638489E0,1.500205030E1
6.711401792E0,1.251262985E1,-4.973407745E0,2.560275879E0,1.370604622E1
6.721434792E0,1.168829407E1,-4.624932404E0,1.800156555E0,1.269829837E1
6.731468792E0,1.112905701E1,-3.958967285E0,1.612895966E0,1.192186081E1
6.741502792E0,1.050305878E1,-3.197800140E0,1.864672394E0,1.113629977E1
6.751536792E0,1.022598495E1,-2.866688690E0,2.132465515E0,1.083217806E1
6.761570792E0,1.034872971E1,-2.858455811E0,2.327060852E0,1.098554452E1
6.771604792E0,1.082204544E1,-3.053350525E0,2.386636963E0,1.149502731E1
6.781638792E0,1.115704880E1,-3.420387268E0,2.328108673E0,1.189953263E1
6.791671792E0,1.087353836E1,-3.786525879E0,2.088606720E0,1.170187561E1
6.801705792E0,9.933044128E0,-3.921545105E0,1.797911224E0,1.082942133E1
6.811739792E0,8.583899689E0,-3.939507751E0,1.461860046E0,9.557200949E0
6.821773792E0,7.451055450E0,-3.998036041E0,1.098715210E0,8.526997984E0
6.831807792E0,6.713988190E0,-4.030368805E0,7.673043823E-1,7.868307704E0
6.841841792E0,5.676944733E0,-4.217330017E0,3.564088440E-1,7.081002841E0
6.851875792E0,5.148543549E0,-4.339625702E0,1.047821045E-3,6.733487432E0
6.861908792E0,4.782554626E0,-4.569846954E0,-2.170486450E-1,6.618416733E0
6.871942792E0,4.367318115E0,-4.862039337E0,-3.728746033E-1,6.546138519E0
6.881976792E0,4.632117462E0,-5.167404327E0,-2.818638611E-1,6.945360099E0
6.892010792E0,5.220394135E0,-5.378764801E0,-3.861968994E-2,7.495673231E0
6.902044792E0,5.666466522E0,-5.514981537E0,3.227288818E-1,7.913786586E0
6.912078792E0,6.185736694E0,-5.559139709E0,9.809101868E-1,8.374339231E0
6.922111792E0,6.839277649E0,-5.559738464E0,1.910327454E0,9.018634128E0
6.932145792E0,7.291487274E0,-5.483846283E0,2.813998260E0,9.547614515E0
6.942179792E0,7.663314056E0,-5.308411102E0,3.716172180E0,1.003571355E1
6.952213792E0,7.749834137E0,-4.989873505E0,4.346960449E0,1.019091909E1
6.962247792E0,7.486381989E0,-4.533771973E0,4.649181976E0,9.910393364E0
6.972281792E0,7.064708862E0,-4.136797485E0,4.707410889E0,9.443671003E0
6.982315792E0,6.796466675E0,-3.891757050E0,4.708907776E0,9.138465114E0
6.992348792E0,6.827302551E0,-3.703748016E0,4.926854553E0,9.198027250E0
7.002382792E0,6.772217102E0,-3.693120117E0,5.278922424E0,9.347143020E0
7.012416792E0,6.625073090E0,-3.718118134E0,5.650449829E0,9.468029318E0
7.022450792E0,6.696175232E0,-3.685336304E0,6.082900543E0,9.768425944E0
7.032484792E0,6.922803955E0,-3.757336578E0,6.453829193E0,1.018305966E1
7.042518792E0,7.001689911E0,-3.954476624E0,6.656956787E0,1.043918678E1
7.052552792E0,6.832841034E0,-4.096231842E0,6.770570526E0,1.045502067E1
7.062585792E0,6.627318420E0,-4.198768616E0,6.857539673E0,1.042002196E1
7.072619792E0,6.843768311E0,-4.141437836E0,7.065457306E0,1.067283275E1
7.082653792E0,7.751031647E0,-3.904181213E0,7.423512726E0,1.142058071E1
7.092687792E0,9.065148926E0,-3.397634583E0,7.754474487E0,1.240373816E1
7.102721792E0,1.012150223E1,-2.674188995E0,7.913294220E0,1.312312156E1
7.112755792E0,1.065858536E1,-1.976040802E0,7.737859039E0,1.331858257E1
7.122789792E0,1.125524460E1,-1.733694763E0,7.150181122E0,1.344660993E1
7.132822792E0,1.267698807E1,-2.950664062E0,6.382128296E0,1.449634459E1
7.142856792E0,1.406864410E1,-4.934189301E0,5.979465637E0,1.606321824E1
7.152890792E0,1.398257309E1,-6.484216003E0,6.029761047E0,1.655039050E1
7.162924792E0,1.307201660E1,-7.611072693E0,6.648873596E0,1.652312215E1
7.172958792E0,1.149744095E1,-7.928263092E0,7.192992096E0,1.570947610E1
7.182992792E0,9.103469238E0,-7.632627869E0,6.673721924E0,1.362603114E1
7.193025792E0,7.535928955E0,-7.273075562E0,5.541476440E0,1.184887398E1
7.203059792E0,7.175328827E0,-6.874903564E0,3.972888336E0,1.070203179E1
7.213093792E0,7.088659058E0,-6.499484253E0,2.754122772E0,1.000387800E1
7.223127792E0,6.908134460E0,-6.341412964E0,2.120340729E0,9.614139842E0
7.233161792E0,6.839726715E0,-6.236630859E0,1.827699280E0,9.434930348E0
7.243195792E0,7.120243378E0,-6.211932220E0,2.075434113E0,9.674367908E0
7.253229792E0,7.572902069E0,-6.092630310E0,2.421963501E0,1.001673086E1
7.263262792E0,8.069120178E0,-6.000272369E0,2.743644562E0,1.042312594E1
7.273296792E0,8.430768127E0,-6.033203888E0,2.849773865E0,1.075167947E1
7.283330792E0,8.591384125E0,-6.072122955E0,2.802322540E0,1.088740419E1
7.293364792E0,8.684789886E0,-5.891748047E0,2.876119080E0,1.088165113E1
7.303398792E0,8.904233551E0,-5.502257996E0,2.992277527E0,1.088641093E1
7.313432792E0,8.992400208E0,-5.444328461E0,2.912343750E0,1.090805757E1
7.323466792E0,9.760752411E0,-5.240302734E0,2.651585999E0,1.139139889E1
7.333499792E0,1.011072464E1,-4.762795715E0,1.634750519E0,1.129528154E1
7.343533792E0,9.442214813E0,-4.128863983E0,4.950205994E-1,1.031736322E1
7.353567792E0,8.414002991E0,-3.574267273E0,-3.818559265E-1,9.149680148E0
7.363601792E0,7.515720978E0,-3.236419830E0,-9.015751648E-1,8.232454853E0
7.373635792E0,6.867269440E0,-3.034639435E0,-1.133293304E0,7.592942761E0
7.383669792E0,6.254144440E0,-2.948718109E0,-1.012494507E0,6.988161867E0
7.393702792E0,5.792205048E0,-2.982398071E0,-8.545729065E-1,6.570740630E0
7.403736792E0,5.564528503E0,-3.079546051E0,-6.774911499E-1,6.395824857E0
7.413770792E0,5.381758575E0,-3.295247498E0,-4.866380310E-1,6.329202004E0
7.423804792E0,5.336103516E0,-3.635939026E0,-3.366499329E-1,6.465863168E0
7.433838792E0,5.581742706E0,-3.959566040E0,4.790039062E-3,6.843539860E0
7.443872792E0,5.747597809E0,-4.242777100E0,4.824467468E-1,7.160222968E0
7.453906792E0,5.600453796E0,-4.602329407E0,9.620494080E-1,7.312459077E0
7.463939792E0,5.508544922E0,-4.963827667E0,1.583257599E0,7.582239570E0
7.473973792E0,5.475912781E0,-5.337151337E0,2.407743073E0,8.016734490E0
7.484007792E0,5.156177673E0,-5.612578583E0,3.246299286E0,8.284060937E0
7.494041792E0,4.688849487E0,-5.770500183E0,4.019291840E0,8.452141076E0
7.504075792E0,4.438270569E0,-5.692212982E0,4.650678864E0,8.586521308E0
7.514109792E0,4.373155975E0,-5.585484924E0,5.169050903E0,8.777312930E0
7.524143792E0,4.402944031E0,-5.421426086E0,5.519322510E0,8.901724435E0
7.534176792E0,4.284091187E0,-5.202431488E0,5.755681000E0,8.862651660E0
7.544210792E0,4.220922546E0,-4.980443115E0,6.045029297E0,8.897380512E0
7.554244792E0,4.627776489E0,-4.858147430E0,6.534511414E0,9.365775521E0
7.564278792E0,5.359305267E0,-4.914430389E0,7.203919373E0,1.023573316E1
7.574312792E0,6.199957123E0,-5.116510162E0,7.971373444E0,1.132081884E1
7.584346792E0,6.708300018E0,-5.712121582E0,9.019344177E0,1.260865542E1
7.594379792E0,7.043303375E0,-6.495292969E0,1.008602600E1,1.391132178E1
7.604413792E0,7.247628479E0,-7.100933533E0,1.167003204E1,1.546418519E1
7.614447792E0,7.473957825E0,-7.214247894E0,1.327589264E1,1.685689009E1
7.624481792E0,7.571704559E0,-6.451883240E0,1.381237701E1,1.702172923E1
7.634515792E0,7.420518951E0,-5.436544647E0,1.271890091E1,1.569683279E1
7.644549792E0,6.637497253E0,-4.941524048E0,1.025292892E1,1.317564348E1
7.654583792E0,6.621181183E0,-4.981940002E0,8.631650391E0,1.196516422E1
7.664616792E0,8.159232788E0,-5.375172272E0,8.716972961E0,1.309393655E1
7.674650792E0,9.484876099E0,-5.840255127E0,8.724607086E0,1.414885944E1
7.684684792E0,9.631571045E0,-6.147715759E0,7.895181885E0,1.388868125E1
7.694718792E0,9.445807343E0,-6.509513397E0,6.682403870E0,1.327597689E1
7.704752792E0,9.338031464E0,-7.016658783E0,5.573360138E0,1.294197339E1
7.714786792E0,9.265432434E0,-7.372917938E0,4.462071075E0,1.265378344E1
7.724820792E0,9.013656006E0,-7.666457520E0,3.156186676E0,1.224671710E1
7.734853792E0,9.017398224E0,-7.393724670E0,2.025887146E0,1.183574476E1
7.744887792E0,8.510851593E0,-6.610104218E0,1.044078827E0,1.082673419E1
7.754921792E0,7.683222656E0,-5.742658081E0,3.659889221E-1,9.599165595E0
7.764955792E0,7.376360779E0,-5.298531647E0,3.338058472E-2,9.082194130E0
7.774989792E0,7.707771606E0,-5.320236511E0,-3.847000122E-2,9.365689489E0
7.785023792E0,8.636290741E0,-5.531297607E0,2.134561157E-1,1.025798881E1
7.795056792E0,9.461075592E0,-5.757776642E0,6.080355835E-1,1.109205348E1
7.805090792E0,9.830058289E0,-5.854774933E0,9.728269958E-1,1.148280575E1
7.815124792E0,9.767638092E0,-5.729635162E0,1.091380463E0,1.137658052E1
7.825158792E0,9.029672699E0,-5.271288300E0,9.854008484E-1,1.050202286E1
7.835192792E0,7.952063599E0,-4.647685089E0,8.018824768E-1,9.245502024E0
7.845226792E0,7.086563416E0,-4.118834839E0,6.994953918E-1,8.226388957E0
7.855259792E0,6.519093475E0,-3.762575684E0,7.081773376E-1,7.560229537E0
7.865293792E0,6.007457428E0,-3.636088715E0,8.048762512E-1,7.068133535E0
7.875327792E0,5.620811462E0,-3.740421753E0,9.596543884E-1,6.819473068E0
7.885361792E0,5.543871460E0,-3.871549072E0,1.191222839E0,6.866033414E0
7.895395792E0,5.460045776E0,-3.976780243E0,1.403481445E0,6.899031899E0
7.905429792E0,5.138963470E0,-4.055366821E0,1.625320129E0,6.745117577E0
7.915463792E0,4.918172607E0,-4.030817871E0,1.885479126E0,6.632567078E0
7.925496792E0,4.782854004E0,-3.926933899E0,2.067799988E0,6.524745134E0
7.935530792E0,4.767286377E0,-3.787124634E0,2.290536804E0,6.505066583E0
7.945564792E0,4.975802765E0,-3.646716614E0,2.685565338E0,6.728255079E0
7.955598792E0,5.366041260E0,-3.490441589E0,3.028202820E0,7.081496566E0
7.965632792E0,5.839656372E0,-3.391197968E0,3.283721466E0,7.508970426E0
7.975666792E0,6.170318756E0,-3.276237030E0,3.522624664E0,7.824030110E0
7.985700792E0,6.511758728E0,-3.187920685E0,3.705843658E0,8.142426987E0
7.995733792E0,6.785689087E0,-3.138972473E0,3.833977203E0,8.402267894E0
8.005767792E0,7.104975128E0,-3.119962006E0,4.011657715E0,8.735458323E0
8.015801792E0,7.400161285E0,-3.188968506E0,4.342469788E0,9.153630484E0
8.025835792E0,7.544760590E0,-3.343297577E0,4.787644043E0,9.540575796E0
8.035869792E0,7.480544128E0,-3.606600037E0,5.175487518E0,9.785283610E0
8.045903792E0,7.402855682E0,-3.811972961E0,5.532644806E0,9.997178035E0
8.055936792E0,7.375312958E0,-4.175417175E0,5.696703644E0,1.021184519E1
8.065970792E0,7.486531677E0,-4.680766296E0,5.943839722E0,1.064363473E1
8.076004792E0,7.485633545E0,-5.227878571E0,6.425837402E0,1.116498143E1
8.086038792E0,7.449558563E0,-5.706134033E0,7.186555481E0,1.181957986E1
8.096072792E0,7.750133514E0,-6.044580231E0,8.213270416E0,1.280856474E1
8.106106792E0,8.159532166E0,-6.087989960E0,9.498497772E0,1.392347108E1
8.116140792E0,8.575666809E0,-5.697302399E0,1.049078430E1,1.469890714E1
8.126173792E0,8.700207825E0,-4.848267975E0,1.096814163E1,1.481551381E1
8.136207792E0,8.522677002E0,-3.882027283E0,1.095766342E1,1.441445617E1
8.146241792E0,8.344248047E0,-3.591930542E0,1.005309448E1,1.354965495E1
8.156275792E0,9.526190186E0,-4.583618317E0,7.941136322E0,1.322193263E1
8.166309792E0,1.169817352E1,-6.519243164E0,5.683980103E0,1.454838221E1
8.176343792E0,1.269734573E1,-8.185128937E0,4.633015594E0,1.580138468E1
8.186376792E0,1.237985596E1,-9.304650879E0,4.671335907E0,1.617586908E1
8.196410792E0,1.092967163E1,-9.248218231E0,4.821773071E0,1.510750668E1
8.206444792E0,8.578211517E0,-8.196505280E0,4.294868774E0,1.261801527E1
8.216478792E0,7.228767700E0,-7.394772491E0,3.668271790E0,1.097241817E1
8.226512792E0,6.886279907E0,-7.003785553E0,3.072959747E0,1.029159583E1
8.236546792E0,6.778204651E0,-6.791077881E0,2.528092804E0,9.922401438E0
8.246580792E0,6.964118042E0,-6.657106476E0,2.377356262E0,9.923095763E0
8.256613125E0,7.513325958E0,-6.688690796E0,2.394121399E0,1.034023543E1
8.266647125E0,8.087382202E0,-6.824757843E0,2.318678284E0,1.083325157E1
8.276681125E0,8.787925415E0,-7.063810730E0,2.262844391E0,1.149980521E1
8.286715125E0,9.503886566E0,-7.275171204E0,2.297871552E0,1.218737829E1
8.296749125E0,9.921218719E0,-7.449857941E0,2.289938049E0,1.261644881E1
8.306783125E0,9.906549225E0,-7.413333893E0,2.199376373E0,1.256719911E1
8.316816125E0,9.373657379E0,-7.034022675E0,2.119592285E0,1.190947518E1
8.326850125E0,8.656648407E0,-6.390810242E0,1.981429596E0,1.094102739E1
8.336884125E0,8.146658936E0,-5.745352478E0,1.888921967E0,1.014618909E1
8.346918125E0,7.998616791E0,-5.119054871E0,1.669029236E0,9.642004559E0
8.356952125E0,7.703280945E0,-4.425846405E0,1.228046265E0,8.968653820E0
8.366986125E0,7.126829681E0,-3.789968719E0,7.152127075E-1,8.103523519E0
8.377020125E0,6.600973206E0,-3.238066406E0,3.309617615E-1,7.359854414E0
8.387053125E0,6.009403381E0,-2.788401489E0,1.484912109E-1,6.626474289E0
8.397087125E0,5.500461731E0,-2.429747314E0,1.342707825E-1,6.014713618E0
8.407121125E0,5.137316895E0,-2.168690186E0,1.281335449E-1,5.577782732E0
8.417155125E0,4.996010742E0,-2.005379791E0,1.197509766E-1,5.384794494E0
8.427189125E0,4.949307861E0,-1.949246521E0,1.390608215E-1,5.321141627E0
8.437223125E0,4.891977081E0,-2.111658783E0,2.549198914E-1,5.334372196E0
8.447256125E0,4.931794281E0,-2.427352295E0,5.792953491E-1,5.527225081E0
8.457290125E0,5.159021759E0,-2.820434875E0,1.131347351E0,5.987512441E0
8.467324125E0,5.111121368E0,-3.298241272E0,1.668131104E0,6.307504935E0
8.477358125E0,5.063370667E0,-3.772006073E0,2.295326843E0,6.718204942E0
8.487392125E0,5.083878021E0,-4.201163635E0,2.940335541E0,7.220883929E0
8.497426125E0,4.937781830E0,-4.585713959E0,3.442990265E0,7.567340608E0
8.507460125E0,4.890629883E0,-4.932093658E0,3.939657440E0,7.985280787E0
8.517493125E0,5.088368683E0,-5.096302185E0,4.486320648E0,8.484743059E0
8.527527125E0,5.273533630E0,-5.024451599E0,5.033732300E0,8.854023475E0
8.537561125E0,5.383554840E0,-4.774471436E0,5.464237061E0,9.035271266E0
8.547595125E0,5.476361847E0,-4.453239441E0,5.730682983E0,9.091897935E0
8.557629125E0,5.767207031E0,-4.131408691E0,6.030060425E0,9.310791773E0
8.567663125E0,6.176156616E0,-3.966451721E0,6.444997559E0,9.768093127E0
8.577696125E0,6.479875031E0,-4.111350403E0,6.905589752E0,1.032371795E1
8.587730125E0,6.591243439E0,-4.776267700E0,7.428452454E0,1.101994234E1
8.597764125E0,6.803202667E0,-6.093079376E0,8.070317688E0,1.218766632E1
8.607798125E0,7.182214508E0,-7.848928070E0,9.130413208E0,1.401978325E1
8.617832125E0,7.225624237E0,-9.385033722E0,1.051578232E1,1.583888195E1
8.627866125E0,6.575077057E0,-1.079405365E1,1.180190781E1,1.729243362E1
8.637899125E0,5.669759674E0,-1.156674683E1,1.249227219E1,1.794415424E1
8.647933125E0,5.164560242E0,-1.146600632E1,1.200174225E1,1.738343465E1
8.657967125E0,6.591842194E0,-1.009695328E1,1.122201370E1,1.647223241E1
8.668001125E0,9.047186279E0,-7.641160126E0,1.105915237E1,1.620320212E1
8.678035125E0,1.014051270E1,-5.252128143E0,1.024050476E1,1.533893039E1
8.688069125E0,1.044512924E1,-3.768413544E0,8.638985138E0,1.406889227E1
8.698103125E0,1.132484985E1,-3.201392670E0,7.375163269E0,1.388863465E1
8.708136125E0,1.187076462E1,-3.107687531E0,6.101461945E0,1.370403635E1
8.718170125E0,1.136032608E1,-3.085533600E0,4.621190186E0,1.264645899E1
8.728204125E0,1.045336212E1,-3.030448151E0,3.357967072E0,1.139001047E1
8.738238125E0,9.915081482E0,-3.179538116E0,2.374811554E0,1.067979557E1
8.748272125E0,9.481582947E0,-3.406466217E0,1.708696747E0,1.021880971E1
8.758306125E0,8.988657990E0,-3.416046295E0,1.294957123E0,9.702693373E0
8.768340125E0,8.776998138E0,-3.427871704E0,1.073717194E0,9.483610565E0
8.778373125E0,9.032666473E0,-3.409459991E0,1.243015137E0,9.734401249E0
8.788407125E0,9.288484497E0,-3.464395752E0,1.468446350E0,1.002169232E1
8.798441125E0,9.498348083E0,-3.685785370E0,1.512005768E0,1.029998988E1
8.808475125E0,9.607920227E0,-4.011508026E0,1.504221954E0,1.051983894E1
8.818509125E0,9.414672089E0,-4.344266052E0,1.401834869E0,1.046297468E1
8.828543125E0,8.856931915E0,-4.596940613E0,1.226699066E0,1.005394930E1
8.838576125E0,8.027057648E0,-4.730013885E0,1.087039490E0,9.380210056E0
8.848610125E0,7.100933533E0,-4.724176025E0,9.205856323E-1,8.578378289E0
8.858644125E0,6.190975800E0,-4.883444824E0,7.300318909E-1,7.918911621E0
8.868678125E0,5.840255127E0,-4.835544434E0,7.264393616E-1,7.617006240E0
8.878712125E0,5.362448730E0,-4.863835602E0,5.992039490E-1,7.264420040E0
8.888746125E0,5.119503937E0,-4.851561127E0,4.328997803E-1,7.066425415E0
8.898780125E0,4.929698639E0,-4.729415131E0,4.236190796E-1,6.844614618E0
8.908813125E0,4.837340698E0,-4.594246216E0,5.137316895E-1,6.691104809E0
8.918847125E0,4.615052948E0,-4.575834503E0,8.086184692E-1,6.549109782E0
8.928881125E0,4.961881714E0,-4.626279602E0,1.271605682E0,6.902152861E0
8.938915125E0,5.410349121E0,-4.707261200E0,1.830094299E0,7.401312773E0
8.948949125E0,5.823789368E0,-4.606969757E0,2.340083771E0,7.785671776E0
8.958983125E0,6.287674713E0,-4.380041656E0,2.822530518E0,8.166167812E0
8.969016125E0,6.640491028E0,-4.117188263E0,3.209026794E0,8.446609571E0
8.979050125E0,6.949897614E0,-3.899241486E0,3.439098358E0,8.679433076E0
8.989084125E0,7.091802521E0,-3.700754242E0,3.538192291E0,8.746887998E0
8.999118125E0,7.082521820E0,-3.523373108E0,3.623215485E0,8.700802482E0
9.009152125E0,7.224726105E0,-3.348536682E0,3.791166229E0,8.819427792E0
9.019186125E0,7.448510742E0,-3.167263641E0,4.010011139E0,9.032832368E0
9.029219125E0,7.325316925E0,-3.060834961E0,4.283642120E0,9.021007068E0
9.039253125E0,7.268734589E0,-2.917732544E0,4.655319214E0,9.111512646E0
9.049287125E0,7.490872650E0,-2.823728027E0,5.153932343E0,9.521010011E0
9.059321125E0,7.735763397E0,-2.877316589E0,5.597010956E0,9.972337626E0
9.069355125E0,7.985743561E0,-3.091970215E0,5.998625793E0,1.045542402E1
9.079389125E0,8.135731659E0,-3.295696564E0,6.418802032E0,1.087440872E1
9.089423125E0,8.256680145E0,-3.475173340E0,7.040459290E0,1.139375547E1
9.099456125E0,8.361162872E0,-3.675456848E0,8.066276093E0,1.218535341E1
9.109490125E0,8.083041229E0,-3.533402252E0,9.580676880E0,1.302343490E1
9.119524125E0,7.857610016E0,-2.762655029E0,1.081830322E1,1.365320411E1
9.129558125E0,9.216184845E0,-2.222727814E0,1.074600357E1,1.433021894E1
9.139592125E0,1.128967300E1,-2.581232300E0,9.699080658E0,1.510601345E1
9.149626125E0,1.231758545E1,-2.802472229E0,7.891289978E0,1.489460370E1
9.159659125E0,1.291499313E1,-3.137325897E0,4.956792297E0,1.418483878E1
9.169693125E0,1.430141006E1,-4.599485321E0,2.656226349E0,1.525585571E1
9.179727125E0,1.485915024E1,-6.215973816E0,2.670895844E0,1.632686010E1
9.189761125E0,1.317320618E1,-6.938221893E0,3.138822784E0,1.521592891E1
9.199795125E0,1.049497559E1,-6.776109009E0,3.234024811E0,1.290422730E1
9.209829125E0,8.572673035E0,-6.452631683E0,3.024011536E0,1.114772732E1
9.219863125E0,7.813451843E0,-6.399043121E0,2.720742188E0,1.045945604E1
9.229896125E0,7.786208496E0,-6.514902191E0,2.344873810E0,1.041956940E1
9.239930125E0,7.913443909E0,-6.725813599E0,1.774410095E0,1.053601890E1
9.249964125E0,8.197253723E0,-6.937323761E0,1.301693115E0,1.081738575E1
9.259998625E0,8.670419769E0,-7.192992096E0,1.027463379E0,1.131242659E1
9.270032625E0,9.142687683E0,-7.473808136E0,9.542655945E-1,1.184724309E1
9.280066625E0,9.610764313E0,-7.758815460E0,1.158441010E0,1.240596605E1
9.290099625E0,9.951455841E0,-7.808362427E0,1.527274017E0,1.274105816E1
9.300133625E0,1.011341904E1,-7.599097595E0,1.865570526E0,1.278702007E1
9.310167625E0,1.004261627E1,-7.200326843E0,2.065854034E0,1.252863126E1
9.320201625E0,9.789941711E0,-6.571634216E0,2.045196991E0,1.196712855E1
9.330235625E0,9.282796326E0,-5.793552246E0,1.822460175E0,1.109310220E1
9.340269625E0,8.751251678E0,-5.030888214E0,1.529818726E0,1.020953415E1
9.350302625E0,8.374485168E0,-4.452341309E0,1.366208954E0,9.582372977E0
9.360336625E0,8.223149872E0,-3.972888336E0,1.327888641E0,9.228614403E0
9.370370625E0,8.029302979E0,-3.473676453E0,1.201701050E0,8.830640964E0
9.380404625E0,7.576045532E0,-3.032543793E0,9.822573853E-1,8.219344094E0
9.390438625E0,7.476801910E0,-2.670596466E0,9.538165283E-1,7.996525387E0
9.400472625E0,7.206464081E0,-2.492616577E0,8.155041504E-1,7.668853172E0
9.410506625E0,6.800957336E0,-2.413131866E0,5.827381897E-1,7.239876373E0
9.420539625E0,6.436165924E0,-2.316432953E0,3.094065857E-1,6.847322532E0
9.430573625E0,6.180647278E0,-2.255509644E0,-1.811233521E-2,6.579365667E0
9.440607625E0,5.989943848E0,-2.265838165E0,-2.368075562E-1,6.408551140E0
9.450641625E0,5.850284271E0,-2.346071320E0,-3.435356140E-1,6.312518785E0
9.460675625E0,5.590574341E0,-2.481988678E0,-3.523672485E-1,6.126903944E0
9.470709625E0,5.372627563E0,-2.753524017E0,-2.634521484E-1,6.042882465E0
9.480742625E0,5.371579742E0,-3.129392395E0,-7.304809570E-2,6.217097531E0
9.490776625E0,5.436694336E0,-3.592529297E0,2.776725769E-1,6.522347285E0
9.500810625E0,5.585784302E0,-4.078568573E0,8.035290527E-1,6.962856225E0
9.510844625E0,5.679639130E0,-4.487218781E0,1.430874481E0,7.378403270E0
9.520878625E0,5.638774109E0,-4.775668945E0,2.064955902E0,7.672472235E0
9.530912625E0,5.662574615E0,-4.901108093E0,2.650238800E0,7.944141081E0
9.540945625E0,5.526058502E0,-4.802163849E0,3.088677063E0,7.945944009E0
9.550979625E0,5.216951294E0,-4.558320923E0,3.384761353E0,7.710478575E0
9.561013625E0,5.028792572E0,-4.319866791E0,3.681294708E0,7.583003004E0
9.571047625E0,5.248086548E0,-4.186793518E0,4.064048767E0,7.847811463E0
9.581081625E0,5.835016022E0,-4.198918304E0,4.550836487E0,8.508139610E0
9.591115625E0,6.499933319E0,-4.431684265E0,5.010380859E0,9.326997102E0
9.601149625E0,7.107370148E0,-5.071603546E0,5.417683868E0,1.027556186E1
9.611182625E0,7.912246399E0,-6.073769531E0,5.821544037E0,1.154922917E1
9.621216625E0,8.874595184E0,-7.081923065E0,6.488407288E0,1.307713666E1
9.631250625E0,9.346264343E0,-7.984096985E0,7.203021240E0,1.424717435E1
9.641284625E0,9.245224457E0,-8.494834900E0,8.099656677E0,1.494124605E1
9.651318625E0,8.728049927E0,-8.771759033E0,9.358538818E0,1.551466599E1
9.661352625E0,8.421936493E0,-9.059161377E0,1.133428024E1,1.677686883E1
9.671385625E0,8.008196869E0,-9.095535736E0,1.312470703E1,1.786387198E1
9.681419625E0,8.121810608E0,-7.221582642E0,1.406056091E1,1.777116869E1
9.691453625E0,7.460635529E0,-4.290527802E0,1.276874725E1,1.539839660E1
9.701487625E0,6.797963562E0,-2.047142944E0,1.008333160E1,1.233193736E1
9.711521625E0,7.532186737E0,-1.359472961E0,7.655081177E0,1.082507606E1
9.721555625E0,8.270002441E0,-2.116149445E0,5.955964508E0,1.040886843E1
9.731588625E0,8.561296692E0,-3.448678436E0,4.850213928E0,1.042658905E1
9.741622625E0,8.888366547E0,-4.524940338E0,4.054169312E0,1.076635657E1
9.751656625E0,9.179810486E0,-5.194797363E0,3.397185516E0,1.108132256E1
9.761690625E0,9.428593140E0,-5.420228577E0,2.763553162E0,1.122116182E1
9.771724625E0,9.627828827E0,-5.057832184E0,2.138003998E0,1.108367337E1
9.781758625E0,9.822274475E0,-4.443359985E0,1.685345306E0,1.091150368E1
9.791792625E0,1.007554779E1,-3.801345062E0,1.400637360E0,1.085949688E1
9.801825625E0,1.060185333E1,-3.195554810E0,1.190773773E0,1.113682211E1
9.811859625E0,1.126856689E1,-2.834355927E0,1.055305481E0,1.166738373E1
9.821893625E0,1.169233566E1,-2.699785767E0,9.416917419E-1,1.203687417E1
9.831927625E0,1.192300598E1,-2.629881134E0,8.901988220E-1,1.224200965E1
9.841961625E0,1.184621567E1,-2.586172028E0,8.375083923E-1,1.215411583E1
9.851995625E0,1.138382721E1,-2.636018372E0,6.526428223E-1,1.170324987E1
9.862028625E0,1.059990738E1,-2.601140900E0,3.582051086E-1,1.092026929E1
9.872062625E0,9.652976532E0,-2.549797668E0,8.966354370E-2,9.984461109E0
9.882096625E0,8.651409302E0,-2.646496582E0,-2.207908630E-1,9.049838433E0
9.892130625E0,7.903115387E0,-2.839295654E0,-5.349874878E-1,8.414692166E0
9.902164625E0,7.442373505E0,-3.053200836E0,-7.500901794E-1,8.079207511E0
9.912198625E0,7.215595093E0,-3.439098358E0,-7.045848083E-1,8.024253848E0
9.922231625E0,7.407496033E0,-3.482358398E0,-4.525090027E-1,8.197718090E0
9.932265625E0,7.206763458E0,-3.607348480E0,-3.671864319E-1,8.067541663E0
9.942299625E0,6.862180023E0,-3.667223969E0,-3.004252625E-1,7.786417767E0
9.952333625E0,6.609804840E0,-3.763922882E0,-2.186952209E-1,7.609498215E0
9.962367625E0,6.459667053E0,-3.877985687E0,-9.205856323E-2,7.534888600E0
9.972401625E0,6.292315063E0,-4.010609894E0,5.807922363E-2,7.462010036E0
9.982435625E0,6.241869965E0,-4.166435852E0,2.158511353E-1,7.507777306E0
9.992468625E0,6.208938446E0,-4.372557220E0,3.844006348E-1,7.603810697E0
1.000250262E1,6.238427124E0,-4.534969482E0,5.980064392E-1,7.735730921E0
1.001253662E1,6.317163391E0,-4.605472870E0,8.840615845E-1,7.867559885E0
1.002257062E1,6.380781097E0,-4.679119720E0,1.361867981E0,8.028898627E0
1.003260462E1,6.576274567E0,-4.838687897E0,1.974843292E0,8.400017486E0
1.004263863E1,6.811734924E0,-5.044509888E0,2.629132690E0,8.874635282E0
1.005267162E1,7.095993805E0,-5.277874603E0,3.449576569E0,9.492558502E0
1.006270562E1,7.435038757E0,-5.551355896E0,4.315076752E0,1.023314424E1
1.007273962E1,7.934400330E0,-5.666167145E0,5.173990631E0,1.103767810E1
1.008277362E1,8.149952087E0,-5.534141693E0,5.877228241E0,1.147127958E1
1.009280762E1,7.748187561E0,-5.028193817E0,6.321204987E0,1.119262150E1
1.010284162E1,7.265142059E0,-4.363725586E0,6.306834869E0,1.056411644E1
1.011287462E1,7.685168610E0,-3.766467590E0,6.286028137E0,1.061895684E1
1.012290862E1,8.641080780E0,-3.132685547E0,6.396049347E0,1.119783207E1
1.013294262E1,9.788893890E0,-2.477947083E0,6.179898834E0,1.183865765E1
1.014297662E1,1.082429077E1,-1.815424805E0,5.685177612E0,1.236051303E1
1.015301062E1,1.160117523E1,-1.204545135E0,5.175487518E0,1.276024556E1
1.016304462E1,1.194980026E1,-5.751040649E-1,4.809498596E0,1.289417495E1
1.017307862E1,1.225666214E1,2.384541321E-1,4.722230072E0,1.313705005E1
1.018311162E1,1.231204697E1,8.988807678E-1,4.837191010E0,1.325869164E1
1.019314562E1,1.191791656E1,9.071136475E-1,5.044060822E0,1.297313146E1
1.020317962E1,1.186417831E1,-5.587879944E-1,5.439837799E0,1.306379755E1
1.021321362E1,1.227522354E1,-3.231031036E0,5.554349670E0,1.385537711E1
1.022324762E1,1.230276627E1,-5.948779449E0,5.547164612E0,1.474845992E1
1.023328162E1,1.182466049E1,-8.036038971E0,5.540727997E0,1.533297704E1
1.024331462E1,1.037447617E1,-9.298513641E0,5.229824524E0,1.488096691E1
1.025334862E1,8.840166779E0,-9.587412872E0,4.786895599E0,1.389177468E1
1.026338225E1,8.171956329E0,-9.256002045E0,4.195026398E0,1.304042525E1
1.027341625E1,7.818990326E0,-8.603059845E0,3.352578278E0,1.209913342E1
1.028345025E1,7.403005371E0,-7.944130096E0,2.659070435E0,1.117963985E1
1.029348425E1,6.902446289E0,-7.512577515E0,2.224224701E0,1.044173171E1
1.030351825E1,6.526278534E0,-7.413184204E0,2.027833099E0,1.008264443E1
1.031355125E1,6.237229614E0,-7.520810394E0,2.016606445E0,9.976588786E0
1.032358525E1,6.234984283E0,-7.845784607E0,2.210303650E0,1.026239774E1
1.033361925E1,6.436614990E0,-8.199049988E0,2.538121948E0,1.072830351E1
1.034365325E1,6.939868469E0,-8.679700470E0,2.991678772E0,1.150865398E1
1.035368725E1,7.400310974E0,-9.079519043E0,3.412004700E0,1.220016576E1
1.036372125E1,7.688312073E0,-9.293723602E0,3.607198792E0,1.258949260E1
1.037375425E1,7.676636353E0,-9.432035980E0,3.658991089E0,1.269969544E1
1.038378825E1,7.499105530E0,-8.798403625E0,3.441792755E0,1.206210709E1
1.039382225E1,7.420668640E0,-8.106692047E0,2.992427216E0,1.139032044E1
1.040385625E1,7.410639496E0,-7.528145142E0,1.877395935E0,1.072917343E1
1.041389025E1,6.996001740E0,-6.944658508E0,6.590794373E-1,9.879610713E0
1.042392425E1,6.303541718E0,-6.067931671E0,-3.787124634E-1,8.757731218E0
1.043395725E1,5.661227417E0,-5.257666626E0,-1.326391754E0,7.839124269E0
1.044399125E1,5.396877136E0,-4.398153992E0,-2.366279297E0,7.353184281E0
1.045402525E1,5.190606079E0,-3.682192841E0,-3.432362366E0,7.230632544E0
1.046405925E1,5.089566193E0,-3.116070099E0,-4.161945190E0,7.275669362E0
1.047409325E1,5.046605530E0,-2.660866699E0,-4.599335632E0,7.328187172E0
1.048412725E1,5.131928101E0,-2.336042175E0,-4.605023804E0,7.280111490E0
1.049416025E1,5.191504211E0,-2.307601318E0,-4.006867676E0,6.952102444E0
1.050419425E1,5.809419250E0,-2.630030823E0,-2.894530792E0,7.003193747E0
1.051422825E1,6.650071106E0,-3.168610840E0,-1.739083557E0,7.568880498E0
1.052426225E1,7.154522095E0,-3.709286499E0,-6.322851562E-1,8.083673500E0
1.053429625E1,7.442223816E0,-4.169878693E0,3.638932800E-1,8.538559712E0
1.054433025E1,7.686665497E0,-4.433929596E0,1.219963074E0,8.957280169E0
1.055436425E1,7.966134338E0,-4.516557770E0,1.876647491E0,9.347748188E0
1.056439725E1,7.918533325E0,-4.675377502E0,2.639610901E0,9.567124465E0
1.057443125E1,7.680079193E0,-4.845723267E0,3.393143921E0,9.694229008E0
1.058446525E1,7.441475372E0,-4.644391937E0,3.982318726E0,9.633524517E0
1.059449925E1,6.948101349E0,-4.326153717E0,4.489613800E0,9.335328083E0
1.060453325E1,6.070626068E0,-3.878285065E0,4.540058899E0,8.515029695E0
1.061456725E1,5.050198059E0,-3.447780304E0,4.090094604E0,7.356667951E0
1.062460025E1,4.613855438E0,-3.388353882E0,3.772305450E0,6.855573823E0
1.063463425E1,4.822222137E0,-3.758983154E0,3.982917480E0,7.297082455E0
1.064466825E1,5.073848877E0,-4.524491272E0,4.483626251E0,8.143578332E0
1.065470225E1,5.634283447E0,-5.632636871E0,5.377866669E0,9.612138055E0
1.066473625E1,6.809788971E0,-7.061415710E0,7.046297150E0,1.207837411E1
1.067477025E1,7.999514923E0,-8.364605713E0,9.254505157E0,1.481906655E1
1.068480425E1,8.442443848E0,-8.321495361E0,1.175879745E1,1.669704946E1
1.069483725E1,8.183482361E0,-6.147715759E0,1.377675110E1,1.716282796E1
1.070487125E1,7.072193298E0,-2.996917877E0,1.362915802E1,1.564453205E1
1.071490525E1,5.390739899E0,-1.140178986E0,1.185938828E1,1.307689470E1
1.072493925E1,5.293591919E0,-1.609004059E0,1.022613464E1,1.162690153E1
1.073497325E1,6.864874420E0,-3.694916382E0,9.250912628E0,1.209786313E1
1.074500725E1,8.294401703E0,-5.633684692E0,8.597970428E0,1.320835335E1
1.075504025E1,9.236392822E0,-7.135811005E0,7.420369263E0,1.383085793E1
1.076507425E1,9.305099945E0,-8.156089325E0,5.698499908E0,1.362275961E1
1.077510825E1,8.698112183E0,-8.685089264E0,4.092489624E0,1.295516894E1
1.078514225E1,7.910150757E0,-8.806337128E0,2.866239624E0,1.217938374E1
1.079517625E1,7.546257477E0,-8.699010315E0,1.817221069E0,1.165851941E1
1.080521025E1,7.655829620E0,-8.459059296E0,9.601034546E-1,1.144941964E1
1.081524325E1,7.630083160E0,-7.862699432E0,2.498304749E-1,1.095913439E1
1.082527725E1,7.250173187E0,-7.154372406E0,-1.836680603E-1,1.018743293E1
1.083531125E1,7.079378357E0,-6.305637360E0,-1.435514832E-1,9.481522423E0
1.084534525E1,7.510481873E0,-5.551355896E0,1.347198486E-1,9.340398261E0
1.085537925E1,8.136031036E0,-5.020709381E0,2.339634705E-1,9.563329055E0
1.086541325E1,8.774004364E0,-4.603975983E0,2.077679443E-1,9.910747446E0
1.087544625E1,9.544152832E0,-4.341421967E0,2.041754150E-1,1.048715813E1
1.088548025E1,1.024828857E1,-4.039499817E0,9.610015869E-2,1.101608881E1
1.089551425E1,1.063613205E1,-3.556005249E0,-1.377136230E-2,1.121484141E1
1.090554825E1,1.080138840E1,-3.130589905E0,1.396595764E-1,1.124678128E1
1.091558225E1,1.071501801E1,-2.867137756E0,5.125341797E-1,1.110381831E1
1.092561625E1,1.020008881E1,-2.624492340E0,9.839039612E-1,1.057817748E1
1.093565025E1,9.306746521E0,-2.356699219E0,1.438358917E0,9.707648448E0
1.094568325E1,8.512797546E0,-2.237846375E0,1.858984222E0,8.996193684E0
1.095571725E1,7.979905701E0,-2.336191864E0,2.183659058E0,8.596804889E0
1.096575125E1,7.559879150E0,-2.578986969E0,2.364632721E0,8.330332194E0
1.097578525E1,7.322173462E0,-3.005300446E0,2.513572998E0,8.304462908E0
1.098581925E1,7.068900146E0,-3.554807739E0,2.565814362E0,8.318017233E0
1.099585325E1,7.071744232E0,-4.064946899E0,2.596500549E0,8.560091990E0
1.100588625E1,7.085814972E0,-4.472698975E0,2.655477905E0,8.790072402E0
1.101592025E1,6.928043060E0,-4.814438324E0,2.619402924E0,8.833904499E0
1.102595425E1,6.809339905E0,-5.074148254E0,2.589016113E0,8.877899238E0
1.103598825E1,6.787485352E0,-5.216651917E0,2.580483856E0,8.941046446E0
1.104602225E1,6.788533173E0,-5.284011841E0,2.615061951E0,8.991302062E0
1.105605625E1,6.751110992E0,-5.261708221E0,2.704126740E0,8.976378694E0
1.106608925E1,6.757846985E0,-5.122048645E0,2.972967682E0,8.985678329E0
1.107612325E1,6.755601654E0,-4.852608948E0,3.338806915E0,8.962901256E0
1.108615725E1,6.797664185E0,-4.509223022E0,3.667223969E0,8.943705176E0
1.109619125E1,6.910828857E0,-4.180057526E0,4.018393707E0,9.021082219E0
1.110622525E1,7.127578125E0,-3.995790710E0,4.450694733E0,9.304697573E0
1.111625925E1,7.409292297E0,-4.021537170E0,4.890929260E0,9.746361505E0
1.112629225E1,7.586673431E0,-3.979923706E0,5.339246979E0,1.009479890E1
1.113632625E1,7.458090820E0,-3.992647247E0,5.801785126E0,1.025792676E1
1.114636025E1,7.638316040E0,-4.031566315E0,6.275400238E0,1.067605016E1
1.115639425E1,8.146808624E0,-3.927832031E0,6.734944611E0,1.127642825E1
1.116642825E1,8.777297516E0,-3.587739258E0,7.017556915E0,1.179656432E1
1.117646225E1,9.460327148E0,-3.031196594E0,7.341183929E0,1.235228416E1
1.118649525E1,9.852212219E0,-2.312690735E0,7.939040680E0,1.286246442E1
1.119652925E1,9.541757812E0,-1.802102509E0,8.630303192E0,1.299133745E1
1.120656325E1,8.558153229E0,-1.808239746E0,8.702453156E0,1.233873610E1
1.121659725E1,8.355923767E0,-2.186054077E0,6.874604187E0,1.103904331E1
1.122663125E1,9.337432709E0,-2.664309540E0,4.760999451E0,1.081449540E1
1.123666525E1,1.108055786E1,-3.210074615E0,3.472928009E0,1.204759605E1
1.124669825E1,1.209290268E1,-4.062252502E0,2.811603241E0,1.306312763E1
1.125673225E1,1.169383255E1,-4.827012177E0,2.130519562E0,1.282906387E1
1.126676650E1,1.114327744E1,-5.827082520E0,1.657652893E0,1.268366413E1
1.127680050E1,1.072340057E1,-6.922205200E0,1.559157715E0,1.285842982E1
1.128683450E1,1.041743683E1,-7.942184143E0,1.458716583E0,1.318063478E1
1.129686850E1,1.021116577E1,-8.713380432E0,1.300196228E0,1.348634180E1
1.130690250E1,9.914931793E0,-9.211544495E0,1.096320190E0,1.357793587E1
1.131693550E1,9.820478210E0,-9.452094269E0,9.271719360E-1,1.366175414E1
1.132696950E1,1.001013382E1,-9.623787231E0,9.936337280E-1,1.392147146E1
1.133700350E1,1.031654663E1,-9.806108093E0,1.179547119E0,1.428223448E1
1.134703750E1,1.050455566E1,-9.654174042E0,1.367107086E0,1.433240203E1
1.135707150E1,1.076681030E1,-9.132508850E0,1.519789581E0,1.419988318E1
1.136710550E1,1.104927292E1,-8.444539490E0,1.947150879E0,1.404236717E1
1.137713850E1,1.092128906E1,-7.738757172E0,2.577340393E0,1.363105282E1
1.138717250E1,1.098700241E1,-6.941664734E0,2.739453278E0,1.328177456E1
1.139720650E1,1.114716934E1,-6.273304596E0,2.005978546E0,1.294749724E1
1.140724050E1,1.118399277E1,-5.551954651E0,4.950205994E-1,1.249603697E1
1.141727450E1,1.041219772E1,-4.558769989E0,-1.028960266E0,1.141293146E1
1.142730850E1,9.300459595E0,-3.555855560E0,-2.456391907E0,1.025556038E1
1.143734150E1,8.343649292E0,-2.620600433E0,-3.959116974E0,9.599929028E0
1.144737550E1,7.470215607E0,-1.794618073E0,-4.867727509E0,9.095028660E0
1.145740950E1,6.909032593E0,-1.209634552E0,-5.371130676E0,8.834420856E0
1.146744350E1,6.017636261E0,-8.851094055E-1,-5.337151337E0,8.092005266E0
1.147747750E1,4.843777313E0,-8.140072632E-1,-4.841232605E0,6.896544035E0
1.148751150E1,4.076921997E0,-8.839118958E-1,-4.129911804E0,5.870158833E0
1.149754450E1,4.281995544E0,-1.214274902E0,-3.238515472E0,5.504355716E0
1.150757850E1,4.798721008E0,-1.686542816E0,-2.371668091E0,5.612215206E0
1.151761250E1,4.975204010E0,-2.091750183E0,-1.683698730E0,5.653575434E0
1.152764650E1,5.078040161E0,-2.421813812E0,-9.768685913E-1,5.710161667E0
1.153768050E1,5.040318604E0,-2.764151917E0,-3.623963928E-1,5.759920016E0
1.154771450E1,4.989873505E0,-3.101101227E0,1.041833496E-1,5.875927210E0
1.155774750E1,5.087470551E0,-3.400478668E0,4.346960449E-1,6.134702310E0
1.156778150E1,5.346432037E0,-3.472628632E0,6.125262451E-1,6.404582230E0
1.157781550E1,5.601202240E0,-3.375031586E0,7.548802185E-1,6.582867831E0
1.158784950E1,5.727838898E0,-3.236419830E0,9.484277344E-1,6.646959224E0
1.159788350E1,5.906567230E0,-2.930755463E0,1.222208405E0,6.706016508E0
1.160791750E1,5.963149567E0,-2.703677673E0,1.705104218E0,6.765826343E0
1.161795050E1,5.949078827E0,-2.777923279E0,2.296075287E0,6.955599065E0
1.162798450E1,6.068081360E0,-3.033741302E0,2.958148499E0,7.401070208E0
1.163801850E1,6.378086700E0,-3.471880188E0,3.888014832E0,8.237147645E0
1.164805250E1,6.888974304E0,-4.403093719E0,4.763095093E0,9.462149657E0
1.165808650E1,7.765850830E0,-5.758375397E0,5.352120209E0,1.105045325E1
1.166812050E1,8.886121216E0,-7.085216217E0,6.622378693E0,1.315368156E1
1.167815350E1,9.962981873E0,-8.388256531E0,9.266330566E0,1.598401506E1
1.168818750E1,1.125494522E1,-9.998158722E0,1.434137695E1,2.079211540E1
1.169822150E1,1.092218719E1,-9.680070190E0,1.763363068E1,2.288979823E1
1.170825550E1,6.229894867E0,-6.769522705E0,1.433658691E1,1.703454584E1
1.171828950E1,1.998793488E0,-3.433410187E0,9.890233154E0,1.065833912E1
1.172832350E1,1.584155731E0,-1.774709473E0,6.897207184E0,7.295931060E0
1.173835650E1,4.070934448E0,-1.479373627E0,5.735323334E0,7.187140415E0
1.174839050E1,6.867568817E0,-1.610051880E0,5.218747559E0,8.774456940E0
1.175842450E1,9.161249084E0,-1.776505737E0,4.867428131E0,1.052503273E1
1.176845850E1,1.043225601E1,-2.309547272E0,4.225562897E0,1.149005465E1
1.177849250E1,1.076815750E1,-3.331472168E0,3.289409637E0,1.174189672E1
1.178852650E1,1.161270126E1,-4.496349792E0,2.556833038E0,1.271256808E1
1.179855950E1,1.299133438E1,-5.636678467E0,1.845063171E0,1.428114741E1
1.180859350E1,1.454600143E1,-6.356681213E0,1.089733887E0,1.591166471E1
1.181862750E1,1.466171082E1,-6.388265533E0,3.284170532E-1,1.599636078E1
1.182866150E1,1.362511642E1,-5.375022583E0,-3.056643677E-1,1.465019099E1
1.183869550E1,1.217059113E1,-3.701203308E0,-3.296145630E-1,1.272520491E1
1.184872950E1,1.113130234E1,-2.349813538E0,9.086105347E-2,1.137698427E1
1.185876250E1,1.058733353E1,-1.589843903E0,4.978646851E-1,1.071760720E1
1.186879650E1,1.034064651E1,-1.329984283E0,6.812333679E-1,1.044805759E1
1.187883050E1,1.044857208E1,-1.301992493E0,8.469387817E-1,1.056338716E1
1.188886450E1,1.087099365E1,-1.821112976E0,1.072369995E0,1.107451727E1
1.189889850E1,1.099343903E1,-2.552641754E0,1.329086151E0,1.136389685E1
1.190893250E1,1.043524979E1,-3.088227997E0,1.583257599E0,1.099719486E1
1.191896550E1,9.691745911E0,-3.351081390E0,1.863923950E0,1.042275865E1
1.192899950E1,8.745563507E0,-3.471131744E0,1.914967804E0,9.602121554E0
1.193903350E1,7.895331573E0,-3.610491943E0,1.769170990E0,8.860128595E0
1.194906750E1,7.174281006E0,-3.756288757E0,1.485959930E0,8.233352300E0
1.195910150E1,6.540648651E0,-3.836821289E0,1.110241241E0,7.663805712E0
1.196913550E1,6.192472687E0,-3.892804871E0,7.472460938E-1,7.352484237E0
1.197916850E1,6.256689148E0,-4.007765808E0,4.581971741E-1,7.444346212E0
1.198920250E1,6.508764954E0,-4.172124023E0,2.817141724E-1,7.736278366E0
1.199923650E1,6.782994690E0,-4.267026672E0,2.161505127E-1,8.016436529E0
1.200927050E1,6.898704071E0,-4.290378113E0,2.544708252E-1,8.127989764E0
1.201930450E1,7.023394775E0,-4.208348694E0,4.477189636E-1,8.199922266E0
1.202933850E1,7.134912872E0,-4.070485382E0,6.872209167E-1,8.243064086E0
1.203937150E1,7.119195557E0,-3.936963043E0,9.163943481E-1,8.186721076E0
1.204940550E1,7.235204315E0,-3.846551056E0,1.206640778E0,8.282518848E0
1.205943950E1,7.218139801E0,-3.797153778E0,1.455124054E0,8.284763425E0
1.206947350E1,7.167095947E0,-3.761976929E0,1.644929352E0,8.259874533E0
1.207950750E1,7.111262054E0,-3.790268097E0,1.770817566E0,8.250574229E0
1.208954150E1,7.033872986E0,-3.771407318E0,1.933529205E0,8.212028831E0
1.209957550E1,6.920708313E0,-3.667822723E0,2.156116333E0,8.123913141E0
1.210960850E1,6.919211426E0,-3.600612488E0,2.440674591E0,8.172930289E0
1.211964250E1,6.959178314E0,-3.573369141E0,2.865790558E0,8.331379558E0
1.212967650E1,7.123536530E0,-3.585344238E0,3.304528198E0,8.632460403E0
1.213971050E1,7.452252960E0,-3.624862061E0,3.728746033E0,9.087312370E0
1.214974450E1,7.813451843E0,-3.541186066E0,4.099225616E0,9.507559051E0
1.215977850E1,8.107440491E0,-3.537144470E0,4.441863098E0,9.898087194E0
1.216981150E1,8.450826416E0,-3.477418671E0,4.838538208E0,1.034023016E1
1.217984550E1,8.656498718E0,-3.192860413E0,5.310057678E0,1.064547041E1
1.218987950E1,9.059161377E0,-2.753224640E0,5.894143066E0,1.115300736E1
1.219991350E1,9.787696381E0,-2.155816956E0,6.596482544E0,1.199833860E1
1.220994750E1,1.038705002E1,-1.490600281E0,6.995103607E0,1.261127162E1
1.221998150E1,1.075199112E1,-9.207353210E-1,7.053033142E0,1.289179363E1
1.223001450E1,1.094374237E1,-5.644761658E-1,6.857090607E0,1.292686435E1
1.224004850E1,1.091979218E1,-4.894821167E-1,6.426885223E0,1.268015408E1
1.225008250E1,1.082683548E1,-7.491920471E-1,5.776936798E0,1.229449690E1
1.226011704E1,1.093251572E1,-1.484313354E0,4.981341248E0,1.210524046E1
1.227015104E1,1.134356094E1,-2.633473663E0,4.161196747E0,1.236637040E1
1.228018504E1,1.209948898E1,-4.107009430E0,3.579656067E0,1.326947993E1
1.229021804E1,1.310390030E1,-5.494025116E0,3.486699371E0,1.463057031E1
1.230025204E1,1.328053299E1,-6.457721100E0,3.391347656E0,1.515176416E1
1.231028604E1,1.174667267E1,-6.728657684E0,2.987487488E0,1.386305286E1
1.232032004E1,9.746232605E0,-6.503226471E0,2.535277863E0,1.198785378E1
1.233035404E1,8.633446655E0,-6.308331757E0,2.218386841E0,1.092028804E1
1.234038804E1,8.077053680E0,-6.246360626E0,1.945953369E0,1.039435192E1
1.235042104E1,7.878716125E0,-6.364914093E0,1.719174957E0,1.027335689E1
1.236045504E1,8.665330353E0,-6.663094025E0,1.776805115E0,1.107437621E1
1.237048904E1,9.924362183E0,-6.848708038E0,1.820214844E0,1.219470986E1
1.238052304E1,1.073552536E1,-6.768325195E0,1.814376984E0,1.282005049E1
1.239055704E1,1.127709915E1,-6.543343048E0,1.990410919E0,1.318901206E1
1.240059104E1,1.177316757E1,-6.361171875E0,2.365081787E0,1.358917195E1
1.241062404E1,1.208137665E1,-6.085445251E0,2.775977325E0,1.380935754E1
1.242065804E1,1.192031158E1,-5.528902588E0,3.024759979E0,1.348375931E1
1.243069204E1,1.140433456E1,-4.758454742E0,3.030597839E0,1.272345321E1
1.244072604E1,1.080258591E1,-3.934717712E0,2.837649078E0,1.184187984E1
1.245076004E1,1.052117111E1,-2.969524841E0,2.599494324E0,1.123701429E1
1.246079404E1,1.033151550E1,-2.012115784E0,2.163301392E0,1.074563611E1
1.247082704E1,1.022433838E1,-1.455273743E0,1.605710907E0,1.045146997E1
1.248086104E1,9.953850861E0,-1.026864624E0,7.677534485E-1,1.003608705E1
1.249089504E1,9.021140442E0,-8.672964478E-1,1.234931946E-1,9.063577030E0
1.250092904E1,8.073610840E0,-8.454418945E-1,-1.462458801E-1,8.119073337E0
1.251096304E1,7.422464905E0,-9.171427917E-1,-3.716770935E-1,7.488142629E0
1.252099604E1,7.008575592E0,-1.181343384E0,-6.345304871E-1,7.135708301E0
1.253103004E1,6.769223328E0,-1.584155731E0,-8.234376526E-1,7.000713064E0
1.254106404E1,6.515351257E0,-2.088606720E0,-1.021924896E0,6.917832791E0
1.255109804E1,6.216871948E0,-2.624043274E0,-1.151255951E0,6.845472240E0
1.256113204E1,6.073769531E0,-3.230581970E0,-1.281934204E0,6.997906222E0
1.257116604E1,6.027815094E0,-3.810176697E0,-1.366059265E0,7.260724426E0
1.258120004E1,5.935756531E0,-4.295617218E0,-1.342558136E0,7.449026462E0
1.259123304E1,5.707630920E0,-4.721481628E0,-1.225052490E0,7.508008597E0
1.260126704E1,5.522316284E0,-5.116360474E0,-1.005159760E0,7.594963317E0
1.261130104E1,5.497018890E0,-5.432203674E0,-7.074288940E-1,7.760574017E0
1.262133504E1,5.537135468E0,-5.648054810E0,-3.525169373E-1,7.917364493E0
1.263136904E1,5.623505859E0,-5.787265320E0,1.016386414E-1,8.070104612E0
1.264140304E1,5.723048859E0,-5.807622986E0,6.297404480E-1,8.177918196E0
1.265143604E1,5.760471039E0,-5.710025940E0,1.312470703E0,8.216447053E0
1.266147004E1,5.832471313E0,-5.493725739E0,2.045945435E0,8.269500398E0
1.267150404E1,5.863606567E0,-5.261109467E0,3.090623016E0,8.462452684E0
1.268153804E1,6.017935638E0,-5.052144012E0,4.486470337E0,9.048100605E0
1.269157204E1,6.309828644E0,-4.677473145E0,5.880222015E0,9.811712566E0
1.270160604E1,7.065606995E0,-4.233795776E0,7.187004547E0,1.093164504E1
1.271163904E1,7.916737061E0,-4.200864258E0,7.874524841E0,1.193021910E1
1.272167304E1,8.756490784E0,-4.734504547E0,8.055648193E0,1.280566796E1
1.273170704E1,9.651180267E0,-5.348228302E0,8.490793304E0,1.392272953E1
1.274174104E1,1.031415161E1,-5.667664032E0,9.676627350E0,1.523618246E1
1.275177504E1,1.072010742E1,-5.373226318E0,1.163515457E1,1.670835378E1
1.276180904E1,1.041698776E1,-4.689597931E0,1.333606750E1,1.756008711E1
1.277184204E1,8.673114166E0,-3.785028992E0,1.276934601E1,1.589356949E1
1.278187604E1,6.036197662E0,-3.065475311E0,9.977651367E0,1.205762613E1
1.279191004E1,4.083807678E0,-2.793490906E0,6.960076447E0,8.539539843E0
1.280194404E1,3.211122437E0,-3.158881073E0,4.367916870E0,6.274435012E0
1.281197804E1,4.137845306E0,-4.062252502E0,3.114124146E0,6.581901577E0
1.282201204E1,6.666985931E0,-4.659211121E0,3.376378784E0,8.806638597E0
1.283204504E1,8.774154053E0,-4.565056915E0,4.502037964E0,1.086710034E1
1.284207904E1,9.825268250E0,-4.291875000E0,5.473517761E0,1.203808473E1
1.285211304E1,1.074839859E1,-4.712949371E0,5.810317383E0,1.309579139E1
1.286214704E1,1.137379807E1,-5.522465973E0,5.519472198E0,1.379585033E1
1.287218104E1,1.113848740E1,-6.007607117E0,4.294120331E0,1.336400816E1
1.288221504E1,1.057625656E1,-5.945785675E0,2.686164093E0,1.242678750E1
1.289224804E1,1.043240570E1,-5.669460297E0,1.661245422E0,1.198906189E1
1.290228204E1,1.023571472E1,-5.247188416E0,1.106948090E0,1.155543925E1
1.291231604E1,9.804162140E0,-4.537214813E0,9.765692139E-1,1.084719323E1
1.292235004E1,9.422755280E0,-3.662882996E0,1.005459137E0,1.015952641E1
1.293238404E1,9.488019562E0,-2.787054291E0,1.207838287E0,9.962382253E0
1.294241704E1,9.767039337E0,-2.240241394E0,1.412911835E0,1.011978551E1
1.295245104E1,1.020817200E1,-2.048041077E0,1.556912384E0,1.052735598E1
1.296248504E1,1.091964249E1,-2.026934967E0,1.745370483E0,1.124248084E1
1.297251904E1,1.151016449E1,-2.151625671E0,2.097138977E0,1.189585522E1
1.298255304E1,1.159713364E1,-2.336940308E0,2.419418793E0,1.207511432E1
1.299258704E1,1.104822510E1,-2.475402374E0,2.737357635E0,1.164834845E1
1.300262004E1,9.837842102E0,-2.575244751E0,2.794389038E0,1.054626156E1
1.301265404E1,8.742869110E0,-2.630030823E0,2.521805878E0,9.471764740E0
1.302268804E1,8.048463135E0,-2.685715027E0,2.142943726E0,8.751173170E0
1.303272204E1,7.453899536E0,-2.814597015E0,1.687590637E0,8.144356132E0
1.304275604E1,6.962172089E0,-2.928510132E0,1.219214630E0,7.650784019E0
1.305279004E1,6.466403046E0,-3.096011810E0,7.996371460E-1,7.213811548E0
1.306282304E1,6.381080475E0,-3.320245514E0,5.159770203E-1,7.211688470E0
1.307285704E1,6.345903625E0,-3.556154938E0,3.454815674E-1,7.282588021E0
1.308289104E1,6.245312805E0,-3.744163971E0,2.508782959E-1,7.285989006E0
1.309292504E1,6.245312805E0,-3.811673584E0,2.868035889E-1,7.322229431E0
1.310295904E1,6.018534393E0,-3.885619812E0,3.445834351E-1,7.172136035E0
1.311299304E1,5.985004120E0,-3.948489075E0,4.361929321E-1,7.183390882E0
1.312302604E1,6.210285645E0,-4.045487366E0,5.089416504E-1,7.429174747E0
1.313306004E1,6.555467834E0,-4.137845306E0,7.303312683E-1,7.786482265E0
1.314309404E1,6.882388000E0,-4.185296631E0,1.043779449E0,8.122404079E0
1.315312804E1,7.104226685E0,-4.188140717E0,1.329984283E0,8.353407547E0
1.316316204E1,7.231761475E0,-4.189487915E0,1.525328064E0,8.495693540E0
1.317319604E1,7.379953308E0,-4.168232117E0,1.763782196E0,8.657297352E0
1.318322904E1,7.498207397E0,-4.105662231E0,2.038460999E0,8.788338852E0
1.319326304E1,7.590565338E0,-4.012406158E0,2.400857391E0,8.915166939E0
1.320329704E1,7.715405731E0,-3.863465881E0,2.866838379E0,9.092448323E0
1.321333104E1,7.942333832E0,-3.723207550E0,3.362906799E0,9.394257996E0
1.322336504E1,8.259374542E0,-3.632645874E0,3.946692810E0,9.848338338E0
1.323339904E1,8.483159180E0,-3.581003265E0,4.529431000E0,1.026174056E1
1.324343204E1,8.559949493E0,-3.401676178E0,4.950655060E0,1.045720430E1
1.325346604E1,8.761280823E0,-3.290008392E0,5.272186432E0,1.074151510E1
1.326350017E1,9.397906952E0,-3.250939636E0,5.842500458E0,1.153360634E1
1.327353417E1,1.030352371E1,-3.134930878E0,6.722969513E0,1.269601164E1
1.328356817E1,1.106499023E1,-2.918331299E0,7.481741638E0,1.367212948E1
1.329360217E1,1.136466705E1,-2.702929230E0,7.559729462E0,1.391441674E1
1.330363517E1,1.159354111E1,-2.436782684E0,7.184160461E0,1.385497264E1
1.331366917E1,1.204814575E1,-2.349364471E0,6.468049622E0,1.387490524E1
1.332370317E1,1.285212387E1,-2.844235382E0,5.660628662E0,1.432862449E1
1.333373717E1,1.365714981E1,-3.860023041E0,4.937632141E0,1.502656747E1
1.334377117E1,1.352048401E1,-4.949457550E0,4.417014771E0,1.506023364E1
1.335380517E1,1.210098587E1,-5.824088745E0,4.083358612E0,1.403665510E1
1.336383817E1,1.055065979E1,-6.294560394E0,4.104913788E0,1.295330961E1
1.337387217E1,9.577383728E0,-6.598877563E0,4.101171570E0,1.233252093E1
1.338390617E1,8.915909271E0,-6.657106476E0,3.707789612E0,1.172852116E1
1.339394017E1,8.337512054E0,-6.410120087E0,2.960543518E0,1.092559219E1
1.340397417E1,7.901019745E0,-6.155798950E0,2.144440613E0,1.024297805E1
1.341400817E1,7.959248657E0,-6.098318481E0,1.685195618E0,1.016754699E1
1.342404117E1,8.336613922E0,-6.133345642E0,1.571432190E0,1.046835515E1
1.343407517E1,8.568930817E0,-6.095923462E0,1.705253906E0,1.065339144E1
1.344410917E1,8.735085297E0,-5.933810577E0,1.946402435E0,1.073779798E1
1.345414317E1,8.867260437E0,-5.845045166E0,2.152823181E0,1.083639739E1
1.346417717E1,9.062304840E0,-5.863007812E0,2.366279297E0,1.104986458E1
1.347421117E1,9.161847839E0,-5.755381622E0,2.573598175E0,1.112147836E1
1.348424417E1,9.159003754E0,-5.575306091E0,2.677033081E0,1.105160142E1
1.349427817E1,9.047635345E0,-5.286406860E0,2.653232574E0,1.080950720E1
1.350431217E1,8.849896545E0,-4.855303345E0,2.552791443E0,1.041207874E1
1.351434617E1,8.596024475E0,-4.303550720E0,2.356699219E0,9.897788480E0
1.352438017E1,8.342900848E0,-3.690126343E0,2.116598511E0,9.364882073E0
1.353441417E1,8.093369751E0,-3.067121887E0,1.819466400E0,8.844225720E0
1.354444717E1,7.970924377E0,-2.407294006E0,1.464255066E0,8.454273639E0
1.355448117E1,7.529941406E0,-2.042053528E0,1.069376221E0,7.874869249E0
1.356451517E1,7.216343536E0,-1.609004059E0,8.464897156E-1,7.441844727E0
1.357454917E1,6.601871338E0,-1.398841095E0,7.553292847E-1,6.790580527E0
1.358458317E1,6.192472687E0,-1.468895416E0,8.508306885E-1,6.420925524E0
1.359461717E1,6.329886932E0,-1.684297485E0,8.493338013E-1,6.604974981E0
1.360465017E1,6.408772888E0,-1.959874420E0,6.721023560E-1,6.735369274E0
1.361468417E1,6.104006653E0,-2.197879486E0,3.504212952E-1,6.497104473E0
1.362471817E1,5.694458313E0,-2.489622803E0,5.254074097E-2,6.215129742E0
1.363475217E1,5.521717529E0,-2.809507599E0,-1.339714050E-1,6.196825458E0
1.364478617E1,5.631439362E0,-3.201542358E0,-2.456391907E-1,6.482539731E0
1.365482017E1,5.734275513E0,-3.696263580E0,-3.986210632E-1,6.833972407E0
1.366485317E1,5.865702209E0,-4.169579315E0,-4.833448792E-1,7.212868802E0
1.367488717E1,6.135291595E0,-4.550686798E0,-4.688250732E-1,7.653126828E0
1.368492117E1,6.467600555E0,-4.821024628E0,-2.793191528E-1,8.071564569E0
1.369495517E1,6.752158813E0,-4.977449341E0,1.023870850E-1,8.389108039E0
1.370498917E1,6.951693878E0,-4.962330780E0,7.107220459E-1,8.570641771E0
1.371502317E1,6.987020416E0,-4.715943146E0,1.760039978E0,8.611406086E0
1.372505617E1,6.961872711E0,-4.477189636E0,2.910846863E0,8.774162532E0
1.373509017E1,6.883435822E0,-4.493206329E0,3.691024475E0,9.010785399E0
1.374512417E1,6.944957886E0,-4.737648010E0,4.362228699E0,9.471366740E0
1.375515817E1,7.448660431E0,-5.211263123E0,4.910987549E0,1.033235715E1
1.376519217E1,8.240513763E0,-5.997278595E0,5.522166595E0,1.159171004E1
1.377522617E1,9.334738312E0,-7.203919373E0,6.769672394E0,1.359640607E1
1.378525917E1,1.046788193E1,-8.681796112E0,9.076076202E0,1.635008547E1
1.379529317E1,1.083566711E1,-9.772428131E0,1.164638123E1,1.866949997E1
1.380532717E1,1.042028091E1,-9.598040771E0,1.353021378E1,1.959008233E1
1.381536117E1,8.293353882E0,-7.407645721E0,1.364966537E1,1.760585978E1
1.382539517E1,6.642586670E0,-3.538491669E0,1.370519989E1,1.563577261E1
1.383542817E1,5.419180756E0,-4.878355408E-1,1.353081253E1,1.458384007E1
1.384546217E1,5.488336945E0,1.231788483E0,1.292008255E1,1.409140441E1
1.385549617E1,7.109316101E0,1.764680328E0,1.159982803E1,1.371905545E1
1.386553017E1,7.517816620E0,7.057823181E-1,7.936795349E0,1.095483527E1
1.387556417E1,7.216792603E0,-6.968009949E-1,3.784280548E0,8.178533265E0
1.388559817E1,7.220534821E0,-1.616638184E0,1.619931335E0,7.574550788E0
1.389563117E1,8.274792480E0,-2.868934021E0,1.002315674E0,8.815191984E0
1.390566517E1,1.034304153E1,-4.627028046E0,9.542655945E-1,1.137095069E1
1.391569917E1,1.232492020E1,-5.885760498E0,1.210981750E0,1.371175814E1
1.392573317E1,1.328232925E1,-6.281687164E0,1.319506073E0,1.475198157E1
1.393576717E1,1.329011307E1,-6.379733276E0,9.985734558E-1,1.477583334E1
1.394580117E1,1.314970505E1,-6.238876190E0,4.993615723E-1,1.456323044E1
1.395583417E1,1.287712189E1,-5.824687500E0,1.399589539E-1,1.413388981E1
1.396586817E1,1.221594681E1,-5.302423553E0,7.409591675E-2,1.331730236E1
1.397590217E1,1.136391861E1,-4.781057739E0,1.282832336E-1,1.232938019E1
1.398593617E1,1.030831375E1,-4.376598816E0,1.823208618E-1,1.120041028E1
1.399597017E1,9.525591431E0,-4.170776825E0,3.971241760E-1,1.040624712E1
1.400600417E1,9.033265228E0,-4.003724213E0,7.017407227E-1,9.905661427E0
1.401603717E1,8.912017365E0,-3.706442413E0,8.178991699E-1,9.686626240E0
1.402607117E1,8.625213776E0,-3.369792480E0,6.623725891E-1,9.283778944E0
1.403610517E1,8.141719208E0,-3.130589905E0,3.748205566E-1,8.730903462E0
1.404613917E1,7.670648804E0,-2.911744995E0,8.068222046E-2,8.205097294E0
1.405617317E1,6.955436096E0,-2.822979584E0,-1.130149841E-1,7.507334907E0
1.406620717E1,6.418951721E0,-2.805316315E0,-2.860551453E-1,7.011031905E0
1.407624017E1,6.187233582E0,-2.799179077E0,-3.474275208E-1,6.799850644E0
1.408627417E1,5.954617310E0,-2.794089661E0,-4.089495850E-1,6.590268894E0
1.409630817E1,5.720953217E0,-2.786605225E0,-6.735992432E-1,6.399078865E0
1.410634217E1,5.698649597E0,-2.910547485E0,-8.699908447E-1,6.457768807E0
1.411637617E1,5.757327576E0,-3.184627533E0,-8.833131409E-1,6.638442245E0
1.412641017E1,6.187233582E0,-3.505709839E0,-6.750961304E-1,7.143361649E0
1.413644317E1,6.687792664E0,-3.597019958E0,-5.535488892E-1,7.613904364E0
1.414647717E1,7.086413727E0,-3.718417511E0,-3.929328918E-1,8.012383200E0
1.415651117E1,7.516768799E0,-3.798201599E0,5.553451538E-2,8.422068193E0
1.416654517E1,7.813451843E0,-3.758384399E0,6.656657410E-1,8.695895232E0
1.417657917E1,7.885452118E0,-3.664379883E0,1.315614166E0,8.794252422E0
1.418661317E1,7.888745270E0,-3.630101166E0,1.955234070E0,8.901285114E0
1.419664617E1,7.826175385E0,-3.737877045E0,2.577340393E0,9.047841149E0
1.420668017E1,7.909252625E0,-3.933520203E0,3.210972748E0,9.398893778E0
1.421671417E1,8.064330139E0,-4.105512543E0,3.846850433E0,9.832950325E0
1.422674817E1,8.147407379E0,-4.148922272E0,4.528532867E0,1.020300999E1
1.423678217E1,8.015830994E0,-4.174968109E0,5.384003906E0,1.052004768E1
1.424681517E1,7.832462311E0,-4.129013672E0,6.642287292E0,1.106870364E1
1.425684917E1,7.912246399E0,-3.802692261E0,7.563621368E0,1.158760026E1
1.426688287E1,8.475824432E0,-3.456911316E0,8.273894348E0,1.233884773E1
1.427691687E1,9.378447418E0,-2.885100403E0,8.734785919E0,1.313680195E1
1.428695087E1,1.042986099E1,-2.081870728E0,8.655301208E0,1.371241864E1
1.429698487E1,1.112157257E1,-1.233285370E0,8.113278351E0,1.382156485E1
1.430701787E1,1.153591095E1,-5.369334412E-1,7.257807312E0,1.363969596E1
1.431705187E1,1.183708466E1,-2.194436646E-1,6.225404205E0,1.337611252E1
1.432708587E1,1.214289871E1,-3.688330078E-1,5.184618530E0,1.320856905E1
1.433711987E1,1.299208282E1,-1.304836578E0,4.135450287E0,1.369666980E1
1.434715387E1,1.354922424E1,-2.659669189E0,3.321293335E0,1.420163044E1
1.435718787E1,1.325748093E1,-4.277055817E0,2.962190094E0,1.424178981E1
1.436722087E1,1.252220993E1,-5.483546906E0,3.143762512E0,1.402705496E1
1.437725487E1,1.143307480E1,-6.102809143E0,3.265459442E0,1.336498051E1
1.438728887E1,1.023840912E1,-6.296206970E0,3.174748077E0,1.243166396E1
1.439732288E1,9.274563446E0,-6.396648102E0,2.769690399E0,1.160197479E1
1.440735687E1,8.702453156E0,-6.688840485E0,2.205064545E0,1.119533776E1
1.441739087E1,8.554111633E0,-7.026987305E0,1.807940369E0,1.121695256E1
1.442742387E1,8.813671875E0,-7.240593109E0,1.761836243E0,1.154170990E1
1.443745787E1,9.053622894E0,-7.222630463E0,2.045047302E0,1.176081191E1
1.444749187E1,9.135802002E0,-7.076384583E0,2.428400116E0,1.180826931E1
1.445752587E1,9.203461304E0,-6.882986755E0,2.791395264E0,1.182671105E1
1.446755988E1,9.273515625E0,-6.693630524E0,2.952909393E0,1.181196239E1
1.447759387E1,9.361382904E0,-6.418652344E0,2.994822235E0,1.173897559E1
1.448762687E1,9.477691040E0,-6.050867157E0,3.050057373E0,1.165085708E1
1.449766087E1,9.455387421E0,-5.618416443E0,2.968776398E0,1.139230389E1
1.450769487E1,9.339827728E0,-5.044509888E0,2.742596741E0,1.096363530E1
1.451772887E1,9.370962982E0,-4.352498932E0,2.445015564E0,1.061778203E1
1.452776287E1,9.186845856E0,-3.700005798E0,2.053579559E0,1.011461164E1
1.453779687E1,8.844807129E0,-2.979853363E0,1.596579895E0,9.468854554E0
1.454782987E1,8.654552765E0,-2.487826538E0,1.476080475E0,9.125205642E0
1.455786387E1,8.633446655E0,-2.066303101E0,1.195114746E0,8.957360599E0
1.456789787E1,8.243657227E0,-1.729653168E0,2.902464294E-1,8.428156829E0
1.457793187E1,7.172035675E0,-1.534459076E0,-3.345542908E-1,7.341974323E0
1.458796587E1,6.208788757E0,-1.301543427E0,-7.313790894E-1,6.385764519E0
1.459799987E1,5.541626129E0,-1.104553070E0,-1.122216339E0,5.760991855E0
1.460803287E1,4.772226105E0,-1.103954315E0,-1.342109070E0,5.078790592E0
1.461806687E1,4.135599976E0,-1.284778290E0,-1.605411530E0,4.618569973E0
1.462810087E1,4.146078186E0,-1.538500671E0,-2.045496368E0,4.872474118E0
1.463813488E1,4.418960724E0,-2.060764618E0,-2.489922180E0,5.474822112E0
1.464816887E1,4.797972565E0,-2.696941681E0,-2.804268494E0,6.177212717E0
1.465820187E1,4.838089142E0,-3.154091034E0,-2.966830444E0,6.492879152E0
1.466823587E1,4.910837860E0,-3.477119293E0,-2.890788574E0,6.675578301E0
1.467826987E1,5.025050354E0,-3.766766968E0,-2.437830505E0,6.736666982E0
1.468830387E1,5.458698578E0,-4.136498108E0,-1.770518188E0,7.074089441E0
1.469833787E1,6.601721649E0,-4.326453094E0,-1.179846497E0,7.980787108E0
1.470837188E1,7.576344910E0,-4.272415466E0,-6.396199036E-1,8.721447685E0
1.471840487E1,7.941286011E0,-4.103117523E0,-1.023870850E-1,8.939243818E0
1.472843887E1,8.156089325E0,-4.069287872E0,2.561174011E-1,9.118469882E0
1.473847287E1,8.958420868E0,-4.006119232E0,8.455915833E-1,9.849737097E0
1.474850687E1,9.823172607E0,-3.871100006E0,1.977537689E0,1.074201055E1
1.475854087E1,1.060963715E1,-4.184248810E0,3.933370514E0,1.206415111E1
1.476857487E1,1.111917755E1,-4.734504547E0,5.980513458E0,1.348399733E1
1.477860787E1,1.137649246E1,-5.456602936E0,8.244106293E0,1.507197349E1
1.478864187E1,1.149250122E1,-6.373446350E0,1.070977890E1,1.695281000E1
1.479867587E1,1.096275284E1,-6.788233795E0,1.345402222E1,1.863525642E1
1.480870987E1,8.409961395E0,-6.387367401E0,1.628523468E1,1.940965692E1
1.481874387E1,5.259313202E0,-5.393883362E0,1.599603607E1,1.768127606E1
1.482877787E1,3.496728516E0,-4.542304230E0,1.373169479E1,1.488015726E1
1.483881087E1,3.697610779E0,-3.762126617E0,1.189621170E1,1.301329224E1
1.484884487E1,4.858746185E0,-2.832110596E0,9.909393311E0,1.139404848E1
1.485887887E1,6.049220581E0,-2.127675476E0,7.647147675E0,9.979926860E0
1.486891287E1,6.985523529E0,-2.621498566E0,5.025200043E0,8.995689477E0
1.487894688E1,7.368876343E0,-3.729943542E0,3.184328156E0,8.851709619E0
1.488898087E1,7.965834961E0,-5.035378876E0,2.426753540E0,9.731325695E0
1.489901387E1,8.617879028E0,-6.143075409E0,2.318079529E0,1.083414543E1
1.490904787E1,9.345964966E0,-6.664141846E0,2.386337585E0,1.172401189E1
1.491908187E1,1.045800247E1,-6.563401337E0,2.378703461E0,1.257403209E1
1.492911587E1,1.145298340E1,-6.250402222E0,2.036964111E0,1.320558895E1
1.493914987E1,1.186133423E1,-5.584586792E0,5.722599792E-1,1.312274136E1
1.494918287E1,1.269450165E1,-4.738995209E0,-9.303153992E-1,1.358211819E1
1.495921687E1,1.425949722E1,-4.258344727E0,-1.757046204E0,1.498512503E1
1.496925087E1,1.510613663E1,-3.704197083E0,-1.962269440E0,1.567695574E1
1.497928487E1,1.436921906E1,-2.942880249E0,-1.999092865E0,1.480308659E1
1.498931887E1,1.285137543E1,-2.199076996E0,-1.781295776E0,1.315928587E1
1.499935287E1,1.105765549E1,-1.526076508E0,-1.197360077E0,1.122650104E1
1.500938587E1,9.480684814E0,-1.145567780E0,-5.559439087E-1,9.565813281E0
1.501941987E1,8.030650177E0,-9.671388245E-1,-3.727249146E-2,8.088763132E0
1.502945387E1,7.186256104E0,-9.059161377E-1,5.870791626E-1,7.266885356E0
1.503948787E1,6.635700989E0,-9.099577332E-1,1.096320190E0,6.786933671E0
1.504952187E1,6.120921478E0,-9.665400696E-1,1.301992493E0,6.332066322E0
1.505955587E1,5.837560730E0,-1.122066650E0,1.446142731E0,6.117800066E0
1.506958887E1,5.581593018E0,-1.509760437E0,1.471889191E0,5.966574811E0
1.507962287E1,5.525459747E0,-1.920805664E0,1.275796967E0,5.987308053E0
1.508965687E1,5.626349945E0,-2.388582916E0,9.538165283E-1,6.186348521E0
1.509969087E1,5.820196838E0,-2.775079193E0,6.614744568E-1,6.481767060E0
1.510972487E1,6.036497040E0,-3.117117920E0,3.350033569E-1,6.802054681E0
1.511975888E1,6.220913544E0,-3.415297852E0,-3.053649902E-2,7.096827264E0
1.512979187E1,6.347250824E0,-3.670217743E0,-2.674937439E-1,7.336868828E0
1.513982587E1,6.432573395E0,-3.812721405E0,-3.463796997E-1,7.485641181E0
1.514985987E1,6.420298920E0,-3.866160278E0,-2.604583740E-1,7.499018074E0
1.515989387E1,6.452182617E0,-3.864663391E0,-8.741821289E-2,7.521564039E0
1.516992787E1,6.439010010E0,-3.827839966E0,1.559756470E-1,7.492498723E0
1.517996187E1,6.590045929E0,-3.691473541E0,5.396278381E-1,7.572772310E0
1.518999487E1,6.674320679E0,-3.550466766E0,1.083896027E0,7.637224717E0
1.520002887E1,6.744225311E0,-3.536096649E0,1.738335114E0,7.810913105E0
1.521006287E1,6.888674927E0,-3.628753967E0,2.375260620E0,8.140243277E0
1.522009687E1,7.085814972E0,-3.794309692E0,2.966381378E0,8.567670532E0
1.523013087E1,7.566465454E0,-3.990701294E0,3.550915833E0,9.262078575E0
1.524016387E1,8.265212402E0,-4.073928223E0,4.132905579E0,1.009908589E1
1.525019787E1,8.667126617E0,-4.037404175E0,4.344864807E0,1.050226483E1
1.526023137E1,9.343120880E0,-4.021686859E0,4.670437775E0,1.119289337E1
1.527026537E1,1.003602997E1,-3.952830048E0,5.206173706E0,1.197710347E1
1.528029937E1,1.070349197E1,-3.968996429E0,5.779032440E0,1.279511192E1
1.529033338E1,1.151046387E1,-3.704795837E0,6.374045105E0,1.366911634E1
1.530036637E1,1.167347488E1,-2.890189819E0,6.697073364E0,1.376495567E1
1.531040037E1,1.141047180E1,-1.560205536E0,6.827751617E0,1.338847640E1
1.532043437E1,1.164069305E1,-1.053808594E-1,6.709198151E0,1.343615197E1
1.533046837E1,1.207583817E1,1.182540894E0,6.238427124E0,1.364339559E1
1.534050237E1,1.235755234E1,1.966760101E0,5.470523987E0,1.365664226E1
1.535053637E1,1.295780411E1,1.926493835E0,4.733456726E0,1.392916646E1
1.536056937E1,1.420291489E1,9.178912354E-1,4.159400482E0,1.482787672E1
1.537060337E1,1.422192535E1,-8.750802612E-1,3.497626648E0,1.467182056E1
1.538063737E1,1.306123901E1,-3.063229980E0,3.256927185E0,1.380532206E1
1.539067137E1,1.245889160E1,-4.890180817E0,3.539539490E0,1.384435582E1
1.540070537E1,1.164982407E1,-6.220614166E0,3.580853577E0,1.368345547E1
1.541073937E1,1.018751495E1,-6.854545898E0,3.280727692E0,1.270958043E1
1.542077237E1,8.634943542E0,-6.952142944E0,2.739303589E0,1.141920863E1
1.543080637E1,7.709268494E0,-7.015311584E0,2.224374390E0,1.065810765E1
1.544084037E1,7.488627319E0,-7.311844940E0,1.903890839E0,1.063801748E1
1.545087437E1,7.885152740E0,-7.672744446E0,1.845961304E0,1.115590490E1
1.546090837E1,8.660690002E0,-7.798033905E0,1.961221619E0,1.181792174E1
1.547094137E1,9.555529175E0,-7.599546661E0,2.253563690E0,1.241530493E1
1.548097537E1,1.023167313E1,-6.942113800E0,2.696941681E0,1.265517971E1
1.549100937E1,1.107157654E1,-6.268364868E0,3.126099243E0,1.310132442E1
1.550104337E1,1.185579575E1,-5.691614227E0,3.453169098E0,1.359701225E1
1.551107737E1,1.208721451E1,-5.090164948E0,3.565435638E0,1.359127901E1
1.552111137E1,1.182555862E1,-4.613855438E0,3.451522522E0,1.315463821E1
1.553114437E1,1.120285355E1,-4.171375580E0,2.978057098E0,1.231962361E1
1.554117837E1,1.034214340E1,-3.855532379E0,2.505789185E0,1.131830551E1
1.555121237E1,9.576635284E0,-3.309168549E0,2.056573334E0,1.033886037E1
1.556124637E1,8.630452881E0,-3.125201111E0,1.523980865E0,9.304521298E0
1.557128037E1,7.633526001E0,-2.990331573E0,1.030906219E0,8.262903228E0
1.558131437E1,6.524332581E0,-2.832260284E0,5.780978394E-1,7.136022075E0
1.559134737E1,5.663921814E0,-2.711162109E0,3.191363525E-1,6.287468355E0
1.560138137E1,5.428012390E0,-2.576292572E0,9.595046997E-2,6.009143734E0
1.561141537E1,5.627846832E0,-2.419867859E0,-2.034269714E-1,6.129421095E0
1.562144937E1,5.618566132E0,-2.386786652E0,-4.879852295E-1,6.123982812E0
1.563148337E1,5.447771301E0,-2.362686768E0,-8.637039185E-1,6.000540423E0
1.564151637E1,5.340145111E0,-2.284100189E0,-1.334774323E0,5.959520616E0
1.565155037E1,5.150190125E0,-2.229314117E0,-1.926942902E0,5.933583125E0
1.566158437E1,5.165608063E0,-2.167342987E0,-2.481389923E0,6.126840804E0
1.567161837E1,5.073250122E0,-2.215991821E0,-2.875969391E0,6.238564457E0
1.568165237E1,4.915777588E0,-2.380350037E0,-2.872077484E0,6.170880380E0
1.569168637E1,5.309309235E0,-2.444416809E0,-2.439327393E0,6.333581626E0
1.570171937E1,6.085295563E0,-2.589465179E0,-1.658850403E0,6.818206264E0
1.571175337E1,6.515800323E0,-2.713706818E0,-6.688092041E-1,7.089934012E0
1.572178737E1,6.725813599E0,-2.719993744E0,2.396516418E-1,7.258950850E0
1.573182137E1,6.804100800E0,-2.778821411E0,1.031205597E0,7.421658919E0
1.574185537E1,6.679260406E0,-2.997366943E0,1.764081573E0,7.530518705E0
1.575188937E1,6.740183716E0,-3.203188934E0,2.536175995E0,7.881794501E0
1.576192237E1,7.216942291E0,-3.616329803E0,3.465144196E0,8.784607082E0
1.577195637E1,7.946525116E0,-4.485422516E0,3.810476074E0,9.888680624E0
1.578199037E1,8.997489624E0,-5.618266754E0,4.343068542E0,1.146219810E1
1.579202437E1,1.021520737E1,-6.796316986E0,5.897136841E0,1.361310431E1
1.580205837E1,1.233105743E1,-8.008196869E0,9.755064240E0,1.764504103E1
1.581209137E1,1.531180893E1,-8.150999908E0,1.696407303E1,2.426252390E1
1.582212537E1,1.409034897E1,-5.082231445E0,2.137644745E1,2.610209792E1
1.583215937E1,7.191195831E0,-6.918612671E-1,1.698233505E1,1.845512594E1
1.584219337E1,2.248923340E0,1.484612732E0,1.217597992E1,1.247061418E1
1.585222737E1,9.434880066E-1,1.674268341E0,8.367449799E0,8.585310724E0
1.586226137E1,2.338437195E0,1.072220306E0,5.939349060E0,6.472542944E0
1.587229437E1,5.170248413E0,-2.630030823E-1,5.112468567E0,7.275848687E0
1.588232837E1,7.163653107E0,-1.901046753E0,4.378395081E0,8.608266264E0
1.589236237E1,8.517737274E0,-3.377127228E0,3.107986908E0,9.675557824E0
1.590239637E1,9.290280762E0,-4.888085175E0,1.923949127E0,1.067259451E1
1.591243037E1,9.554930420E0,-6.089037781E0,1.473984833E0,1.142566006E1
1.592246437E1,1.014066238E1,-6.945107574E0,1.159788208E0,1.234555230E1
1.593249737E1,1.127200974E1,-7.503745880E0,8.896000671E-1,1.357040139E1
1.594253137E1,1.170910080E1,-7.656877441E0,6.586303711E-1,1.400587761E1
1.595256537E1,1.128263763E1,-8.086933136E0,2.541714478E-1,1.388383962E1
1.596259937E1,1.168006119E1,-7.004384308E0,-1.092727661E-1,1.361973456E1
1.597263337E1,1.287038589E1,-5.238207092E0,1.288819885E-1,1.389612382E1
1.598266737E1,1.315778824E1,-3.837120667E0,5.776487732E-1,1.371803792E1
1.599270037E1,1.307411224E1,-2.871628418E0,8.864566040E-1,1.341508353E1
1.600273437E1,1.296004944E1,-2.363285522E0,9.858499146E-1,1.321059802E1
1.601276837E1,1.240949432E1,-2.070793762E0,1.190923462E0,1.263732705E1
1.602280237E1,1.190309738E1,-1.747166748E0,1.827250214E0,1.216861382E1
1.603283637E1,1.139161102E1,-1.635948029E0,2.610870667E0,1.180092256E1
1.604286938E1,1.023496628E1,-1.588796082E0,3.319497070E0,1.087648236E1
1.605290337E1,8.488547974E0,-1.437311096E0,3.463198242E0,9.279819608E0
1.606293737E1,7.161856842E0,-1.385069733E0,3.258573761E0,7.989300004E0
1.607297137E1,6.331982574E0,-1.533710632E0,2.894381104E0,7.129075228E0
1.608300537E1,5.774392090E0,-1.825603638E0,2.392624512E0,6.511611529E0
1.609303937E1,5.453010406E0,-2.139051819E0,1.949545898E0,6.173458867E0
1.610307237E1,5.305567017E0,-2.493814087E0,1.616338806E0,6.081175972E0
1.611310637E1,5.320386200E0,-2.876568146E0,1.191971283E0,6.164572098E0
1.612314037E1,5.201084290E0,-3.240162048E0,7.816744995E-1,6.177454404E0
1.613317437E1,5.298681335E0,-3.450025635E0,6.408174133E-1,6.355261421E0
1.614320837E1,5.464237061E0,-3.532653809E0,7.048841858E-1,6.544798798E0
1.615324237E1,5.592669983E0,-3.615281982E0,9.822573853E-1,6.731496930E0
1.616327537E1,5.666765900E0,-3.840862885E0,1.233734436E0,6.956045149E0
1.617330937E1,5.961502991E0,-4.144581299E0,1.445543976E0,7.403152669E0
1.618334337E1,6.290668488E0,-4.419559479E0,1.646426239E0,7.862298351E0
1.619337737E1,6.579867096E0,-4.637356567E0,1.895957336E0,8.270089549E0
1.620341137E1,6.887178040E0,-4.802014160E0,2.151625671E0,8.667297986E0
1.621344438E1,6.947502594E0,-4.800217896E0,2.486030273E0,8.802853552E0
1.622347837E1,7.047794037E0,-4.491859131E0,2.917582855E0,8.852146008E0
1.623351237E1,7.354506226E0,-4.008514252E0,3.396287384E0,9.038346991E0
1.624354637E1,7.756719818E0,-3.551215210E0,3.871100006E0,9.368204047E0
1.625358037E1,8.187374268E0,-3.147355042E0,4.351301422E0,9.791463896E0
1.626361492E1,8.477920074E0,-2.894680481E0,4.661606140E0,1.009875615E1
1.627364792E1,9.029672699E0,-2.775378571E0,5.000800781E0,1.068857913E1
1.628368192E1,9.900262299E0,-2.539469147E0,5.436694336E0,1.157677599E1
1.629371592E1,1.103325623E1,-1.968256989E0,6.097719727E0,1.275887787E1
1.630374992E1,1.229423401E1,-1.145268402E0,6.839577026E0,1.411522736E1
1.631378392E1,1.311512695E1,-2.309696960E-1,7.246580658E0,1.498575434E1
1.632381792E1,1.326601318E1,7.319778442E-1,7.302115173E0,1.516059970E1
1.633385092E1,1.285347107E1,1.376387787E0,6.948101349E0,1.467590795E1
1.634388492E1,1.222747284E1,9.225315857E-1,5.997128906E0,1.365019090E1
1.635391892E1,1.245125748E1,-7.942483521E-1,5.011728058E0,1.344552198E1
1.636395292E1,1.240410553E1,-3.044967957E0,4.316873016E0,1.348217551E1
1.637398692E1,1.145253433E1,-5.076842651E0,4.017794952E0,1.315589412E1
1.638401992E1,1.040246796E1,-6.375242615E0,4.050427094E0,1.285538866E1
1.639405392E1,9.443711700E0,-6.996899872E0,4.116888885E0,1.245347633E1
1.640408792E1,8.743617554E0,-7.267387390E0,3.904031525E0,1.202111599E1
1.641412192E1,8.252937927E0,-7.467072144E0,3.382216644E0,1.163217694E1
1.642415592E1,8.017028503E0,-7.816146240E0,2.642155609E0,1.150416769E1
1.643418992E1,8.283175049E0,-8.174351349E0,2.152523804E0,1.183487928E1
1.644422292E1,8.820258179E0,-8.458161163E0,1.997296600E0,1.238251341E1
1.645425692E1,9.451196136E0,-8.664581909E0,2.122136993E0,1.299628999E1
1.646429092E1,1.011686188E1,-8.873247986E0,2.439028015E0,1.367604774E1
1.647432492E1,1.061053528E1,-8.966803436E0,2.869083710E0,1.418515647E1
1.648435892E1,1.067984116E1,-8.885372772E0,3.212170258E0,1.425927397E1
1.649439292E1,1.042566971E1,-8.533155212E0,3.507655792E0,1.392167288E1
1.650442592E1,9.700128479E0,-8.014932861E0,3.648662567E0,1.310131214E1
1.651445992E1,8.851243744E0,-7.445367279E0,3.559747467E0,1.210164500E1
1.652449392E1,8.312514038E0,-6.790179749E0,3.431763611E0,1.126860382E1
1.653452792E1,7.927514648E0,-5.941444702E0,3.290607147E0,1.043907798E1
1.654456192E1,7.503446503E0,-5.256319427E0,3.020718384E0,9.646519730E0
1.655459492E1,7.469467163E0,-4.656816101E0,2.597698059E0,9.177522057E0
1.656462892E1,7.378157043E0,-4.047583008E0,2.382445679E0,8.746209292E0
1.657466292E1,7.220235443E0,-3.459605713E0,2.022444305E0,8.257781331E0
1.658469692E1,6.974296875E0,-3.147953796E0,1.101559296E0,7.730709080E0
1.659473092E1,6.426286469E0,-2.770588531E0,4.649331665E-1,7.013521329E0
1.660476492E1,6.017785950E0,-2.345173187E0,3.098556519E-2,6.458679828E0
1.661479792E1,5.812113647E0,-1.914219360E0,-5.968089294E-1,6.148258429E0
1.662483192E1,5.690566406E0,-1.509760437E0,-1.389261017E0,6.049129588E0
1.663486592E1,5.423372040E0,-1.144370270E0,-2.229613495E0,5.974422477E0
1.664489992E1,5.134323120E0,-7.873626709E-1,-3.126697998E0,6.062792611E0
1.665493392E1,5.090164948E0,-6.628216553E-1,-3.749103699E0,6.356484113E0
1.666496792E1,5.259612579E0,-7.605683899E-1,-3.947740631E0,6.620169549E0
1.667500092E1,5.412594452E0,-9.469308472E-1,-3.844156036E0,6.705996746E0
1.668503492E1,5.370082855E0,-1.252744904E0,-3.443139954E0,6.500951654E0
1.669506892E1,5.234764252E0,-1.650018768E0,-2.739153900E0,6.134189661E0
1.670510292E1,5.370681610E0,-2.040406952E0,-1.877994690E0,6.044364776E0
1.671513692E1,5.486540680E0,-2.457589417E0,-8.997789001E-1,6.078772610E0
1.672516992E1,5.686075745E0,-2.842738495E0,-4.385879517E-2,6.357243358E0
1.673520392E1,6.229745178E0,-3.145558777E0,4.384382629E-1,6.992602743E0
1.674523792E1,6.910080414E0,-3.493135986E0,8.340655518E-1,7.787610397E0
1.675527192E1,7.434589691E0,-3.877087555E0,1.453028412E0,8.509772227E0
1.676530592E1,7.893235931E0,-4.121080170E0,2.564167786E0,9.266144380E0
1.677533992E1,8.319399719E0,-4.522844696E0,4.336033173E0,1.041487972E1
1.678537292E1,9.248367920E0,-5.242098999E0,6.250102844E0,1.233189753E1
1.679540692E1,1.017838394E1,-6.154751129E0,8.307125244E0,1.450823183E1
1.680544092E1,1.134161499E1,-8.136180725E0,1.233105743E1,1.862483946E1
1.681547492E1,1.394080994E1,-1.085722229E1,2.055001602E1,2.710218840E1
1.682550892E1,1.260977783E1,-1.102457428E1,2.535891586E1,3.039115577E1
1.683554192E1,4.762646027E0,-7.302414551E0,1.703757019E1,1.913862204E1
1.684557592E1,2.125579834E0,-4.795727234E0,1.058359131E1,1.181226034E1
1.685560992E1,4.442761230E0,-3.077749786E0,8.183033295E0,9.806768326E0
