"Time (s)","Acceleration x (m/s^2)","Acceleration y (m/s^2)","Acceleration z (m/s^2)","Absolute acceleration (m/s^2)"
4.013916667E-3,6.218069458E-1,-5.149291992E-1,8.813522186E0,8.850421984E0
1.404791667E-2,1.279988251E0,-4.860392761E-1,8.879834290E0,8.984768284E0
2.408191667E-2,2.181114349E0,-6.252497864E-1,8.952583008E0,9.235634229E0
3.411591667E-2,2.552641754E0,-1.016087036E0,9.417965240E0,9.810529143E0
4.414991667E-2,2.342329102E0,-1.229094086E0,1.037522461E1,1.070712210E1
5.418291667E-2,2.058519287E0,-1.241218872E0,1.112726074E1,1.138393858E1
6.421691667E-2,1.980830841E0,-1.295256500E0,1.081650696E1,1.107240728E1
7.425091667E-2,1.708696747E0,-1.318308563E0,1.025038422E1,1.047511139E1
8.428491667E-2,1.526375885E0,-1.255888367E0,9.695637817E0,9.895073098E0
9.431891667E-2,1.508413239E0,-1.268162842E0,9.328601074E0,9.534481921E0
1.043529167E-1,1.767374725E0,-1.333277435E0,9.321416016E0,9.580711804E0
1.143859167E-1,1.964215393E0,-1.306483154E0,9.412277069E0,9.703401464E0
1.244199167E-1,2.075134735E0,-1.221160583E0,9.484726410E0,9.785573688E0
1.344539167E-1,2.044747925E0,-1.191971283E0,9.477990417E0,9.769037413E0
1.444879167E-1,1.904639282E0,-1.226699066E0,9.425599365E0,9.694037590E0
1.545219167E-1,2.070793762E0,-1.307530975E0,9.344168701E0,9.659778091E0
1.645559167E-1,2.469265137E0,-1.413959656E0,9.258846130E0,9.686216180E0
1.745889167E-1,2.574496307E0,-1.388961639E0,9.371262360E0,9.817219764E0
1.846229167E-1,2.374512177E0,-1.278191986E0,9.491911469E0,9.867546106E0
1.946569167E-1,2.300416260E0,-1.259929962E0,9.516909485E0,9.871722475E0
2.046909167E-1,2.340682526E0,-1.321152649E0,9.614506531E0,9.983134520E0
2.147249167E-1,2.334245911E0,-1.421144714E0,9.699080658E0,1.007673171E1
2.247579167E-1,2.116149445E0,-1.482966156E0,9.752220154E0,1.008875984E1
2.347919167E-1,1.943408661E0,-1.461560669E0,9.800120544E0,1.009729466E1
2.448259167E-1,1.925895081E0,-1.390308838E0,9.821825409E0,1.010496338E1
2.548599167E-1,1.956880646E0,-1.294358368E0,9.765392761E0,1.004328837E1
2.648939167E-1,1.975142670E0,-1.213227081E0,9.495653687E0,9.774484511E0
2.749279167E-1,1.973945160E0,-1.176852722E0,9.173822937E0,9.457297135E0
2.849609167E-1,1.756597137E0,-1.249451752E0,8.849896545E0,9.108646005E0
2.949949167E-1,1.313368835E0,-1.391955414E0,8.594228210E0,8.804728054E0
3.050289167E-1,6.236032104E-1,-1.608405304E0,8.916358337E0,9.081701084E0
3.150629167E-1,7.634124756E-3,-2.096091156E0,9.524393921E0,9.752319518E0
3.250969167E-1,-4.426295471E-1,-2.924318848E0,9.667346649E0,1.010965642E1
3.351309167E-1,-1.272354126E-1,-3.127296753E0,9.295968933E0,9.808731428E0
3.451639167E-1,1.001417542E0,-2.822829895E0,8.677006073E0,9.179413930E0
3.551979167E-1,1.830693054E0,-2.698588257E0,7.493716736E0,8.172490817E0
3.652319167E-1,2.226020966E0,-2.905907135E0,6.548731842E0,7.502356587E0
3.752659167E-1,2.262095947E0,-2.829715576E0,7.338040466E0,8.183593722E0
3.852999167E-1,6.620732117E-1,-1.296154633E0,7.865393829E0,7.998923544E0
3.953339167E-1,-1.701960754E-1,-3.462000732E0,8.262518005E0,8.960112698E0
4.053669167E-1,2.293680267E0,-6.124963074E0,8.476722565E0,1.070658523E1
4.154009167E-1,5.353317719E0,-6.294710083E0,9.392667847E0,1.251013968E1
4.254349167E-1,6.362519073E0,-5.431006165E0,1.017733612E1,1.317405205E1
4.354689167E-1,6.965465240E0,-4.477938080E0,1.011970596E1,1.307585883E1
4.455029167E-1,7.716752930E0,-3.554658051E0,9.288933563E0,1.258841358E1
4.555369167E-1,8.220305786E0,-2.859803009E0,8.059540100E0,1.186204397E1
4.655699167E-1,7.648644562E0,-2.097438354E0,7.102280731E0,1.064628587E1
4.756039167E-1,7.325316925E0,-1.166374512E0,6.969207458E0,1.017794430E1
4.856379167E-1,7.603288879E0,-1.191671906E0,6.628216553E0,1.015693548E1
4.956719167E-1,7.762407990E0,-1.228794708E0,6.819818115E0,1.040551937E1
5.057059167E-1,7.783214722E0,-1.819915466E0,6.504873047E0,1.030552750E1
5.157389167E-1,8.021070099E0,-1.603315887E0,6.467301178E0,1.042756788E1
5.257729167E-1,8.359665985E0,-1.109792175E0,6.284082184E0,1.051690748E1
5.358069167E-1,8.328381042E0,-7.929011536E-1,5.369184723E0,9.940762929E0
5.458409167E-1,8.643475800E0,-4.020639038E-1,4.014202423E0,9.538613651E0
5.558749167E-1,9.130862274E0,9.610015869E-2,2.292183380E0,9.414668648E0
5.659089167E-1,9.787247314E0,5.623805237E-1,1.183738403E0,9.874599661E0
5.759419167E-1,9.963730316E0,7.333250427E-1,8.671467590E-1,1.002824167E1
5.859759167E-1,1.011940659E1,6.304888916E-1,6.227050781E-1,1.015813307E1
5.960099167E-1,9.800569611E0,6.233038330E-1,2.008822632E-1,9.822424652E0
6.060439167E-1,9.487869873E0,5.194198608E-1,-2.902464294E-1,9.506509071E0
6.160779167E-1,9.889484711E0,3.517684937E-1,-8.210426331E-1,9.929741181E0
6.261119167E-1,1.013437546E1,8.607101440E-2,-2.369871826E0,1.040813464E1
6.361449167E-1,9.970166931E0,4.438270569E-1,-3.488495636E0,1.057217163E1
6.461789167E-1,9.961335297E0,1.018631744E0,-2.979553986E0,1.044717921E1
6.562129167E-1,9.102122040E0,4.555027771E-1,-2.669997711E0,9.496578130E0
6.662469167E-1,9.247170410E0,-2.691403198E-1,-8.155041504E-1,9.286960974E0
6.762809167E-1,9.654772797E0,-1.119671631E-1,8.232879639E-3,9.655425531E0
6.863149167E-1,9.514664154E0,3.068618774E-2,8.250842285E-1,9.550420912E0
6.963479167E-1,1.003228775E1,-5.023553467E-1,-6.616241455E-1,1.006662331E1
7.063819167E-1,9.678722992E0,-1.955683136E0,-2.035616913E0,1.008196962E1
7.164159167E-1,8.836125183E0,-3.300785980E0,-2.830014954E0,9.847907442E0
7.264499167E-1,8.223748627E0,-2.284249878E0,-3.865711212E0,9.369715159E0
7.364839167E-1,8.852291565E0,-1.352287903E0,-3.155438232E0,9.494658444E0
7.465179167E-1,8.343349915E0,-1.942809906E0,-8.232879639E-2,8.566958396E0
7.565509167E-1,6.161337433E0,-2.819237366E0,1.785636749E0,7.007044804E0
7.665849167E-1,5.241649933E0,-3.661835175E0,2.247875519E0,6.777674764E0
7.766189167E-1,6.896608429E0,-3.895050201E0,2.465223541E0,8.295296921E0
7.866529167E-1,9.311386871E0,-3.478616180E0,3.303031311E0,1.047438360E1
7.966869167E-1,1.218106934E1,-2.876568146E0,4.436324615E0,1.327908395E1
8.067209167E-1,1.562510742E1,-2.353256378E0,5.006339264E0,1.657544058E1
8.167539167E-1,1.666065399E1,-1.524878998E0,5.699847107E0,1.767458357E1
8.267879167E-1,1.606998230E1,-2.023492126E0,5.928571472E0,1.724780598E1
8.368219167E-1,1.387195313E1,-1.916764069E0,2.878663788E0,1.429656508E1
8.468559167E-1,1.096724350E1,-1.683249664E0,-5.719606018E-1,1.111039596E1
8.568899167E-1,8.840615845E0,-2.395468597E0,-2.223326569E0,9.425388021E0
8.669239167E-1,6.636449432E0,-3.037333832E0,-2.830164642E0,7.828006756E0
8.769569167E-1,4.410578156E0,-3.725752258E0,-2.536475372E0,6.306198290E0
8.869909167E-1,3.227887573E0,-4.359384613E0,-2.085463257E0,5.811424041E0
8.970249167E-1,2.905757446E0,-4.511767731E0,-1.648821259E0,5.614097072E0
9.070589167E-1,2.944526825E0,-5.005291443E0,-1.325792999E0,5.956585241E0
9.170929167E-1,5.265001373E0,-7.168143768E0,-2.298021240E0,9.186045186E0
9.271259167E-1,6.984176331E0,-6.407276001E0,-3.063978424E0,9.960917054E0
9.371599167E-1,5.033133545E0,-4.356091461E0,-3.581452332E0,7.558754322E0
9.471939167E-1,4.433480530E0,-5.029840393E0,-4.192930756E0,7.907952473E0
9.572279167E-1,4.793332214E0,-6.057453461E0,-3.824247437E0,8.619376114E0
9.672619167E-1,5.202281799E0,-6.421646118E0,-3.361409912E0,8.921902901E0
9.772959167E-1,6.072122955E0,-6.615343323E0,-3.321293335E0,9.574154473E0
9.873289167E-1,6.806795197E0,-6.723418579E0,-3.192561035E0,1.008609261E1
9.973629167E-1,7.243736572E0,-7.108567657E0,-3.297941895E0,1.067145137E1
1.007396917E0,7.597900085E0,-7.221732330E0,-3.368894348E0,1.101049284E1
1.017430917E0,7.554789734E0,-6.943161621E0,-2.457888794E0,1.055099799E1
1.027464917E0,7.259004822E0,-7.105424194E0,-1.466350708E0,1.026305941E1
1.037498917E0,7.211852875E0,-7.741301880E0,-1.175954590E0,1.064525462E1
1.047531917E0,7.102280731E0,-8.578510895E0,-7.791297913E-1,1.116424131E1
1.057565917E0,6.866520996E0,-9.606573029E0,-3.475772095E-1,1.181338926E1
1.067599917E0,6.515351257E0,-1.072744217E1,3.667373657E-2,1.255106220E1
1.077633917E0,6.115682373E0,-1.150043472E1,2.698887634E-1,1.302821590E1
1.087667917E0,6.025120697E0,-1.145642624E1,5.298980713E-1,1.295502117E1
1.097701917E0,5.842500458E0,-1.075453583E1,7.737409973E-1,1.226350389E1
1.107734917E0,5.493725739E0,-9.135951691E0,1.022373962E0,1.070942969E1
1.117768917E0,4.427792358E0,-7.318431244E0,7.324269104E-1,8.584942063E0
1.127802917E0,3.352877655E0,-6.284082184E0,2.881507874E-1,7.128429584E0
1.137836917E0,3.207230530E0,-6.253246307E0,-1.628613281E-1,7.029647279E0
1.147870917E0,3.013982391E0,-6.219716034E0,-6.979985046E-1,6.946665337E0
1.157904917E0,2.979703674E0,-6.702162781E0,-1.187929688E0,7.430262234E0
1.167937917E0,3.218008118E0,-7.448211365E0,-1.142873383E0,8.193753008E0
1.177971917E0,3.526217194E0,-7.434290314E0,-5.396278381E-1,8.245852192E0
1.188005917E0,3.842958527E0,-7.515271912E0,-3.323089600E-2,8.440897253E0
1.198039917E0,3.593577118E0,-7.152576141E0,7.634124756E-3,8.004573708E0
1.208073917E0,2.704126740E0,-6.166127472E0,1.480421448E-1,6.734637771E0
1.218106917E0,2.322270813E0,-6.011798401E0,1.553768921E-1,6.446611802E0
1.228140917E0,1.334474945E0,-6.205794983E0,9.280700684E-1,6.415140591E0
1.238174917E0,1.531465302E0,-6.340963898E0,5.137316895E-1,6.543479913E0
1.248208917E0,2.550695801E0,-6.526577911E0,2.490820312E-1,7.011726618E0
1.258242917E0,1.972448273E0,-5.591622162E0,-1.131646729E-1,5.930396010E0
1.268276917E0,3.891757050E0,-7.739206238E0,5.842350769E-1,8.682304806E0
1.278309917E0,6.189029846E0,-9.751920776E0,1.723665619E0,1.167797382E1
1.288343917E0,8.032745819E0,-1.195294373E1,2.322420502E0,1.458737489E1
1.298377917E0,9.589957581E0,-1.377869705E1,2.492017822E0,1.697144460E1
1.308411917E0,1.118938156E1,-1.593436432E1,2.216740265E0,1.959643241E1
1.318446167E0,1.116692825E1,-1.779709076E1,8.244854736E-1,2.102656659E1
1.328480167E0,9.569300537E0,-1.664927765E1,7.144642639E-1,1.921667032E1
1.338513167E0,7.768545227E0,-1.472458008E1,6.117778015E-1,1.665946654E1
1.348547167E0,5.912704468E0,-1.362182327E1,-1.090931396E0,1.488973723E1
1.358581167E0,4.741390228E0,-1.145837219E1,-2.758463745E0,1.270370800E1
1.368615167E0,4.464316406E0,-8.929530945E0,-2.159409485E0,1.021419078E1
1.378649167E0,5.029840393E0,-6.962172089E0,-5.138813782E-1,8.604371484E0
1.388683167E0,5.589676208E0,-5.820945282E0,4.093986511E-1,8.080562564E0
1.398716167E0,6.363566895E0,-5.200335846E0,7.222480774E-1,8.249855685E0
1.408750167E0,8.461903381E0,-4.697980499E0,1.254092102E0,9.759486493E0
1.418784167E0,1.069945038E1,-4.797224121E0,2.138453064E0,1.191908466E1
1.428818167E0,1.152303772E1,-4.996010742E0,2.809806976E0,1.286994704E1
1.438852167E0,1.096679443E1,-4.673281860E0,2.915636902E0,1.227237068E1
1.448886167E0,9.020541687E0,-2.557132416E0,2.728825378E0,9.765018508E0
1.458919167E0,8.641380157E0,-1.920057220E0,2.774480438E0,9.276735011E0
1.468953167E0,9.718091125E0,-3.395688629E0,2.808310089E0,1.067045463E1
1.478987167E0,1.037702087E1,-4.868475952E0,2.498304749E0,1.173141709E1
1.489021167E0,1.004980133E1,-5.431006165E0,2.008074188E0,1.159856442E1
1.499055167E0,9.058263245E0,-5.000800781E0,1.491947479E0,1.045399678E1
1.509089167E0,8.332123260E0,-4.421355743E0,9.626481628E-1,9.481527099E0
1.519122167E0,8.211025085E0,-3.908222809E0,-2.084415436E0,9.329519076E0
1.529156167E0,1.066053131E1,-3.647165680E0,-1.064541275E1,1.550075992E1
1.539190167E0,1.388841888E1,-4.682263184E0,-9.073082428E0,1.723753441E1
1.549224167E0,1.440873688E1,-5.819448395E0,-3.147504730E0,1.585510845E1
1.559258167E0,1.433449127E1,-6.557862854E0,-3.697311401E-2,1.576339342E1
1.569292167E0,1.410995819E1,-6.786587219E0,8.301736450E-1,1.567921792E1
1.579325167E0,1.331002167E1,-6.448440399E0,2.668949890E-1,1.479223760E1
1.589359167E0,1.168006119E1,-5.845943298E0,-1.104702759E0,1.310798423E1
1.599393167E0,9.951904907E0,-5.479056244E0,-2.136357422E0,1.155960603E1
1.609427167E0,9.449399872E0,-5.510790253E0,-1.578317871E0,1.105219682E1
1.619461167E0,1.005998016E1,-5.886359253E0,9.225315857E-1,1.169202680E1
1.629495167E0,1.122605530E1,-5.983357544E0,3.811823273E0,1.327986753E1
1.639528167E0,1.212044540E1,-5.927523651E0,6.129453735E0,1.481927584E1
1.649562167E0,1.275437714E1,-6.002368011E0,6.550977173E0,1.554406188E1
1.659596167E0,1.363679214E1,-5.932164001E0,4.828059998E0,1.563530726E1
1.669630167E0,1.470796463E1,-5.811065826E0,2.076781311E0,1.595010126E1
1.679664167E0,1.586670502E1,-5.381159821E0,3.373983765E-1,1.675777571E1
1.689698167E0,1.632804565E1,-4.957241364E0,7.888595581E-1,1.708220174E1
1.699731167E0,1.548335220E1,-4.807552643E0,1.305135956E0,1.626499732E1
1.709765167E0,1.267728745E1,-5.066065063E0,6.979985046E-1,1.366988786E1
1.719799167E0,9.401948547E0,-5.655389557E0,-5.739065552E-1,1.098678462E1
1.729833167E0,7.384144592E0,-6.229146423E0,-1.022823029E0,9.714629353E0
1.739867167E0,6.484066315E0,-6.520141296E0,-4.833448792E-1,9.208093221E0
1.749901167E0,6.236331482E0,-6.414011993E0,-5.029541016E-2,8.946167326E0
1.759934167E0,6.115532684E0,-5.958209839E0,-7.484436035E-3,8.538153226E0
1.769968167E0,6.030509491E0,-5.303621063E0,-5.358856201E-2,8.031084163E0
1.780002167E0,6.256389771E0,-4.631518707E0,2.146536255E-1,7.787133919E0
1.790036167E0,6.567592621E0,-4.058061218E0,4.939727783E-1,7.735964244E0
1.800070167E0,6.745572510E0,-3.566483459E0,5.303471375E-1,7.648779042E0
1.810104167E0,6.838379517E0,-3.018023987E0,4.391867065E-1,7.487642363E0
1.820137167E0,6.471941528E0,-2.548001404E0,5.186714172E-1,6.974765827E0
1.830171167E0,5.926924896E0,-2.149679718E0,9.803114319E-1,6.380483690E0
1.840205167E0,5.389841766E0,-1.808688812E0,1.509161682E0,5.882118536E0
1.850239167E0,5.093607788E0,-1.531016235E0,1.926793213E0,5.656976498E0
1.860273167E0,4.805007935E0,-1.246008911E0,1.839524689E0,5.293816255E0
1.870307167E0,4.593348083E0,-9.994715881E-1,1.896107025E0,5.068827470E0
1.880340167E0,3.854634247E0,-8.199948120E-1,1.337768097E0,4.161756859E0
1.890374167E0,3.360960846E0,-6.601272583E-1,1.244062958E0,3.644107360E0
1.900408167E0,3.021616516E0,-4.989125061E-1,1.028062134E0,3.230478573E0
1.910442167E0,2.518363037E0,-3.397933960E-1,2.880010986E-1,2.557451187E0
1.920476167E0,2.260898438E0,-1.851649475E-1,-1.938468933E-1,2.276735474E0
1.930510167E0,2.334096222E0,-2.694396973E-3,-3.764671326E-1,2.364263085E0
1.940543167E0,2.724783783E0,1.222956848E-1,-1.614841919E0,3.169718808E0
1.950577167E0,3.924838257E0,-3.412902832E-2,-4.972210236E0,6.334697685E0
1.960611167E0,6.328090668E0,-6.713539124E-1,-9.232201538E0,1.121289404E1
1.970645167E0,9.819729767E0,-1.895358582E0,-1.209529770E1,1.569444817E1
1.980679167E0,1.400547546E1,-3.624263306E0,-1.603480545E1,2.159637963E1
1.990713167E0,1.879356857E1,-5.837111664E0,-1.870749756E1,2.715217408E1
2.000746167E0,2.143961609E1,-8.205785980E0,-1.614362915E1,2.806436929E1
2.010780167E0,2.072904373E1,-1.029633865E1,-1.115046249E1,2.569125644E1
2.020814167E0,1.763318161E1,-1.155581955E1,-7.857909393E0,2.249917330E1
2.030848167E0,1.352347778E1,-1.155013138E1,-6.978188782E0,1.910458335E1
2.040882167E0,9.669442291E0,-9.854307861E0,-5.340893555E0,1.480306190E1
2.050915167E0,5.504802704E0,-6.912774811E0,-2.460433502E0,9.172951619E0
2.060949167E0,2.156266022E0,-4.074227600E0,-6.306385803E-1,4.652581940E0
2.070983167E0,3.631448364E-1,-2.089355164E0,1.989363098E-1,2.129989396E0
2.081017167E0,-1.844165039E-1,-5.331912231E-1,-4.736151123E-1,7.366231071E-1
2.091051167E0,7.843688965E-2,7.042854309E-1,7.436535645E-1,1.027224872E0
2.101085167E0,1.526076508E0,8.693920898E-1,3.229534149E0,3.676226725E0
2.111118167E0,5.329517212E0,-1.096918945E0,3.299588470E0,6.363510742E0
2.121152167E0,9.166787567E0,-4.474195862E0,-8.178991699E-1,1.023315113E1
2.131186167E0,1.137873779E1,-7.465575256E0,-5.969586182E-1,1.362229229E1
2.141220167E0,1.282637741E1,-9.426497498E0,2.715054016E0,1.614764165E1
2.151254167E0,1.212074478E1,-9.567803650E0,6.452032928E0,1.673571181E1
2.161288167E0,9.658814392E0,-8.807085571E0,5.622458038E0,1.422917728E1
2.171321167E0,7.640112305E0,-7.878416748E0,3.333268433E0,1.146958783E1
2.181355167E0,6.266418915E0,-6.790778503E0,1.878593445E0,9.429304960E0
2.191389167E0,5.921087036E0,-6.375991058E0,1.065035248E0,8.766232586E0
2.201423167E0,6.271807709E0,-6.533912659E0,7.047344971E-1,9.084285183E0
2.211457167E0,6.955885162E0,-6.771768036E0,9.557624817E-1,9.754725145E0
2.221491167E0,7.867040405E0,-6.890620880E0,1.163231049E0,1.052255137E1
2.231524167E0,9.006470947E0,-6.900051270E0,8.237370300E-1,1.137566566E1
2.241558167E0,1.000519409E1,-6.550677795E0,6.506968689E-1,1.197658945E1
2.251592167E0,1.028017227E1,-5.820795593E0,3.745211792E-1,1.181963914E1
2.261626167E0,1.014844620E1,-5.070855103E0,7.948471069E-1,1.137261244E1
2.271660167E0,9.893675995E0,-4.422702942E0,1.763632507E0,1.097977803E1
2.281694167E0,9.416618042E0,-3.700754242E0,2.733914795E0,1.048058049E1
2.291727167E0,8.922345886E0,-3.007396088E0,3.202290802E0,9.945217631E0
2.301761167E0,8.701854401E0,-2.550695801E0,3.121758270E0,9.590291642E0
2.311795167E0,8.721313934E0,-2.185155945E0,3.276985474E0,9.569475275E0
2.321829292E0,9.090296631E0,-1.993255005E0,2.969075775E0,9.768416930E0
2.331863292E0,9.571246490E0,-1.995350647E0,2.532882843E0,1.009978609E1
2.341897292E0,9.905950470E0,-1.893412628E0,2.115251312E0,1.030471514E1
2.351930292E0,9.997110901E0,-1.824555817E0,1.672172699E0,1.029890246E1
2.361964292E0,9.821675720E0,-1.842069397E0,1.013242950E0,1.004416223E1
2.371998292E0,9.471553802E0,-2.157463531E0,1.872605896E-1,9.715968652E0
2.382032292E0,9.234446869E0,-2.701432343E0,-5.209167480E-1,9.635564329E0
2.392066292E0,9.066047058E0,-3.413501587E0,-1.143621826E0,9.754643675E0
2.402099292E0,8.774603119E0,-3.938459930E0,-1.688638458E0,9.765071754E0
2.412133292E0,8.482859802E0,-4.140390015E0,-1.598525848E0,9.573767534E0
2.422167292E0,8.540489960E0,-4.013304291E0,-7.119195557E-1,9.463266325E0
2.432201292E0,8.904532928E0,-3.679348755E0,4.291575623E-1,9.644298323E0
2.442235292E0,9.368418274E0,-3.436104584E0,1.393003235E0,1.007544211E1
2.452269292E0,9.753866730E0,-3.394940186E0,2.011966095E0,1.052195527E1
2.462302292E0,9.981393585E0,-3.505560150E0,1.893262939E0,1.074716774E1
2.472336292E0,1.015967285E1,-3.696113892E0,1.034049683E0,1.086045437E1
2.482370292E0,9.769134979E0,-3.686533813E0,-2.483335876E-1,1.044452964E1
2.492404292E0,8.728049927E0,-3.279679871E0,-1.825154572E0,9.500860213E0
2.502438292E0,7.187902679E0,-2.830164642E0,-4.574337616E0,8.977769292E0
2.512472292E0,5.992488556E0,-2.377056885E0,-6.955136719E0,9.483366770E0
2.522505292E0,7.121889954E0,-2.448608093E0,-4.162094879E0,8.604651759E0
2.532539292E0,9.244026947E0,-2.916535034E0,-7.454498291E-1,9.721826282E0
2.542573292E0,1.119701569E1,-3.132535858E0,9.496252441E-1,1.166566455E1
2.552607292E0,1.260109589E1,-3.114124146E0,1.714983673E0,1.309299644E1
2.562641292E0,1.333891159E1,-2.984194336E0,1.938319244E0,1.380539966E1
2.572675292E0,1.345147751E1,-2.533481598E0,1.902992706E0,1.381962942E1
2.582708292E0,1.354293732E1,-2.064207458E0,1.537003784E0,1.378529957E1
2.592742292E0,1.449046692E1,-1.899549866E0,8.867559814E-1,1.464132021E1
2.602776292E0,1.641232040E1,-2.326013031E0,-2.094145203E-1,1.657764917E1
2.612810292E0,1.861034958E1,-3.423530731E0,-2.888543243E0,1.914182218E1
2.622844292E0,1.966490662E1,-5.251978455E0,-6.686744843E0,2.142438766E1
2.632878292E0,1.702080505E1,-6.673572235E0,-7.983198853E0,1.994933169E1
2.642911292E0,1.285421951E1,-7.172335052E0,-6.206244049E0,1.597469294E1
2.652945292E0,1.076097244E1,-7.321275330E0,-3.632645874E0,1.351279824E1
2.662979292E0,1.080557968E1,-7.939789124E0,-2.074386292E0,1.356848857E1
2.673013292E0,1.142124939E1,-9.155111847E0,-1.361418915E0,1.470083236E1
2.683047292E0,1.194575867E1,-1.064182022E1,-9.291178894E-1,1.602537824E1
2.693080292E0,1.341525284E1,-1.157827286E1,9.460327148E-2,1.772101467E1
2.703114292E0,1.467503311E1,-1.158231445E1,3.126847687E0,1.895478255E1
2.713148292E0,1.452429657E1,-1.101649109E1,6.510261841E0,1.935721509E1
2.723182292E0,1.408570862E1,-1.044557831E1,1.053164932E1,2.045563323E1
2.733216292E0,1.399499725E1,-9.452693024E0,1.274105484E1,2.115532633E1
2.743250292E0,1.363544495E1,-7.558831329E0,1.111603409E1,1.914751952E1
2.753283292E0,1.265064285E1,-5.666616211E0,5.636828156E0,1.496406146E1
2.763317292E0,1.205877365E1,-4.752167816E0,-2.073637848E0,1.312619880E1
2.773351292E0,1.268956192E1,-4.560566254E0,-6.797364807E0,1.510059319E1
2.783385292E0,1.367840561E1,-4.862189026E0,-6.638395386E0,1.596270514E1
2.793419292E0,1.375250153E1,-5.306465149E0,-3.409010925E0,1.512981249E1
2.803453292E0,1.256217682E1,-5.677693176E0,6.671626282E-1,1.380179670E1
2.813486292E0,9.684261475E0,-5.758375397E0,2.358794861E0,1.151119979E1
2.823520292E0,6.389013977E0,-5.687123566E0,2.312241669E0,8.860549395E0
2.833554292E0,4.409979401E0,-5.733227692E0,3.240311737E0,7.925745279E0
2.843588292E0,3.389401703E0,-5.642366638E0,4.720583496E0,8.099892205E0
2.853622292E0,2.672991486E0,-5.149291992E0,4.277953949E0,7.208396596E0
2.863656292E0,2.423909454E0,-4.622387695E0,3.834126892E0,6.476290147E0
2.873689292E0,1.989363098E0,-3.943549347E0,2.391876068E0,5.022969054E0
2.883723292E0,1.557511139E0,-3.231031036E0,8.569679260E-1,3.687790196E0
2.893757292E0,1.398392029E0,-2.520458679E0,1.291813660E-1,2.885290288E0
2.903791292E0,1.014141083E0,-2.000140686E0,-2.411485291E-1,2.255481659E0
2.913825292E0,8.409512329E-1,-1.759590912E0,8.577163696E-1,2.130501472E0
2.923858292E0,7.228468323E-1,-1.584006042E0,2.035018158E0,2.678223588E0
2.933892292E0,1.006207581E0,-1.217118988E0,3.161276093E0,3.533765535E0
2.943926292E0,1.151106262E0,-2.893482971E-1,3.687581635E0,3.873890341E0
2.953960292E0,8.997789001E-1,8.437953186E-1,2.376158752E0,2.677260358E0
2.963994292E0,6.418652344E-1,1.991907806E0,6.069877625E-1,2.179018548E0
2.974028292E0,2.357597351E-1,2.881807251E0,-9.219328308E-1,3.034856805E0
2.984061292E0,5.433700562E-2,3.170407104E0,-8.042774963E-1,3.271283542E0
2.994095292E0,2.818638611E-1,3.062481537E0,1.024768982E0,3.241664984E0
3.004129292E0,6.253994751E-1,3.040327606E0,2.144889679E0,3.772965437E0
3.014163292E0,1.502425690E0,3.280128937E0,-4.159849548E-1,3.631745073E0
3.024197292E0,3.876937866E0,3.225642242E0,-4.364024963E0,6.669342470E0
3.034231292E0,7.975115662E0,8.931925964E-1,-7.817194061E0,1.120307037E1
3.044264292E0,1.429377594E1,-3.627706146E0,-2.071991272E1,2.543200868E1
3.054298292E0,2.294039520E1,-1.012689102E1,-3.586137589E1,4.375904403E1
3.064332292E0,2.380394943E1,-1.632475250E1,-2.572924576E1,3.866677696E1
3.074366292E0,2.116718262E1,-1.991698242E1,-8.726403351E0,3.034610229E1
3.084400292E0,1.980247055E1,-2.225646744E1,-5.230123901E0,3.024636141E1
3.094434292E0,1.616353775E1,-2.323543167E1,-6.473438416E0,2.903533438E1
3.104467292E0,9.165590057E0,-2.067470673E1,-7.286547546E0,2.376016234E1
3.114501292E0,2.439926147E0,-1.639750122E1,-8.209528198E0,1.849939564E1
3.124535292E0,-5.882766724E-1,-1.352153183E1,-5.331014099E0,1.454639487E1
3.134569292E0,-5.297483826E-1,-1.108564728E1,1.987566833E0,1.127486722E1
3.144603292E0,1.246757355E0,-8.043523407E0,9.588909760E0,1.257775270E1
3.154636292E0,2.719844055E0,-4.402195587E0,1.058404037E1,1.178128976E1
3.164670292E0,3.661386108E0,-8.508306885E-1,6.751110992E0,7.727040878E0
3.174704292E0,5.419180756E0,1.487007751E0,1.495240631E0,5.815019919E0
3.184738292E0,7.693850555E0,2.335443420E0,-1.334175568E0,8.150439055E0
3.194772292E0,9.589358826E0,2.252366180E0,-7.854167175E-1,9.881590738E0
3.204806292E0,1.038001465E1,7.557783508E-1,4.328848114E0,1.127186014E1
3.214839292E0,1.043959076E1,-1.177750854E0,9.052575073E0,1.386799437E1
3.224873292E0,1.041668839E1,-2.215842133E0,9.075627136E0,1.399229649E1
3.234907292E0,1.080183746E1,-2.772833862E0,6.872209167E0,1.309944881E1
3.244941292E0,1.247984802E1,-3.449576569E0,3.376378784E0,1.338081159E1
3.254975292E0,1.457983109E1,-4.951553192E0,1.002914429E-1,1.539803273E1
3.265008292E0,1.415666107E1,-6.665788422E0,-1.127156067E-1,1.564789100E1
3.275042292E0,1.294627808E1,-7.830815735E0,-3.915856934E-1,1.513542634E1
3.285076292E0,1.179098053E1,-8.475225677E0,-1.664239197E0,1.461596265E1
3.295110292E0,1.061996567E1,-8.452323303E0,-1.922302551E0,1.370841665E1
3.305144292E0,9.732910309E0,-7.752229156E0,-1.140029297E0,1.249504969E1
3.315178292E0,8.417595520E0,-6.769073639E0,-1.583706665E0,1.091716076E1
3.325211042E0,6.581962738E0,-5.589376831E0,-1.527274017E0,8.769032602E0
3.335245042E0,5.499114532E0,-4.613256683E0,-2.177970886E-1,7.181213925E0
3.345279042E0,5.452711029E0,-4.092339935E0,1.048719177E0,6.897761639E0
3.355313042E0,6.014193420E0,-3.902534637E0,2.158062286E0,7.487157800E0
3.365347042E0,6.909182281E0,-3.806284790E0,3.059038696E0,8.460633632E0
3.375380042E0,7.910001068E0,-3.669918365E0,3.366349640E0,9.347124029E0
3.385414042E0,8.763077087E0,-3.454965363E0,2.943329315E0,9.868712842E0
3.395448042E0,9.039851532E0,-3.029999084E0,2.225721588E0,9.790487565E0
3.405482042E0,8.863368530E0,-2.531835022E0,1.313069458E0,9.310942041E0
3.415516042E0,8.418643341E0,-2.116149445E0,6.565347290E-1,8.705324924E0
3.425550042E0,8.056546326E0,-1.952689362E0,3.897894287E-1,8.298968023E0
3.435583042E0,8.145910492E0,-2.069446564E0,2.727328491E-1,8.409093294E0
3.445617042E0,8.437953186E0,-2.345771942E0,-7.349716187E-2,8.758259063E0
3.455651042E0,8.711135101E0,-2.695893860E0,-8.346643066E-1,9.156876267E0
3.465685042E0,8.887618103E0,-3.137325897E0,-2.033820648E0,9.642043132E0
3.475719042E0,9.023385773E0,-3.623963928E0,-2.603386230E0,1.006639087E1
3.485753042E0,9.099577332E0,-3.860322418E0,-1.884730682E0,1.006263417E1
3.495786042E0,9.120384064E0,-3.816912689E0,-5.783972168E-1,9.903775608E0
3.505820042E0,9.275162201E0,-3.661835175E0,4.534071350E-1,9.982146499E0
3.515854042E0,9.539512482E0,-3.479664001E0,4.806504822E-1,1.016569648E1
3.525888042E0,9.312584381E0,-3.111878815E0,-5.830375671E-1,9.836053600E0
3.535922042E0,8.392148438E0,-2.529889069E0,-2.482138367E0,9.109857571E0
3.545955042E0,7.548652496E0,-2.121837616E0,-4.587809601E0,9.084731494E0
3.555989042E0,7.652087402E0,-2.194286957E0,-4.157005463E0,8.980536247E0
3.566023042E0,8.924291840E0,-2.883004761E0,-1.090033264E0,9.441550392E0
3.576057042E0,1.080498093E1,-3.762126617E0,6.753955078E-1,1.146112423E1
3.586091042E0,1.225830872E1,-4.281995544E0,8.750802612E-1,1.301412248E1
3.596125042E0,1.304716827E1,-4.558769989E0,3.538641357E-1,1.382520176E1
3.606158042E0,1.282787430E1,-4.395160217E0,-6.560856628E-1,1.357579614E1
3.616192042E0,1.207987976E1,-3.749403076E0,-2.483036499E0,1.288980173E1
3.626226042E0,1.177885574E1,-2.765648804E0,-3.592229919E0,1.262118741E1
3.636260042E0,1.373633514E1,-2.008972321E0,-2.101030884E0,1.404055568E1
3.646294042E0,1.664553543E1,-2.268981628E0,7.439529419E-2,1.679963280E1
3.656328042E0,1.832249817E1,-3.309467926E0,9.517208862E-1,1.864329074E1
3.666361042E0,1.891496613E1,-4.309987335E0,4.248165894E-1,1.940444288E1
3.676395042E0,1.802671326E1,-5.068909149E0,-4.270619202E-1,1.873068639E1
3.686429042E0,1.604064331E1,-6.275699615E0,-2.872975616E0,1.746254942E1
3.696463042E0,1.385952896E1,-8.597820740E0,-7.401807861E0,1.791077397E1
3.706497042E0,1.296543823E1,-1.061173279E1,-7.930209045E0,1.853644186E1
3.716531042E0,1.276455597E1,-1.158186539E1,-4.696633301E0,1.786426207E1
3.726564042E0,1.195997910E1,-1.183199524E1,-1.291813660E-1,1.682420575E1
3.736598042E0,1.228270798E1,-1.159593613E1,3.872596893E0,1.732996413E1
3.746632042E0,1.414588348E1,-1.207000031E1,7.457342377E0,2.003504136E1
3.756666042E0,1.542153076E1,-1.297262329E1,1.051233948E1,2.272931691E1
3.766700042E0,1.524849060E1,-1.344339432E1,1.087338867E1,2.305367428E1
3.776733042E0,1.370250549E1,-1.321691528E1,9.390272827E0,2.122787625E1
3.786767042E0,1.121452927E1,-1.190219925E1,6.352489929E0,1.754372087E1
3.796801042E0,9.065148926E0,-9.235195312E0,1.450334015E0,1.302187491E1
3.806835042E0,9.053922272E0,-6.339167633E0,-4.371359711E0,1.188559382E1
3.816869042E0,9.882000275E0,-4.890330505E0,-5.526956635E0,1.233355227E1
3.826903042E0,1.062550415E1,-3.794160004E0,-4.531975708E0,1.215877430E1
3.836936042E0,1.127156067E1,-2.867736511E0,-2.187700653E0,1.183461139E1
3.846970042E0,1.123713226E1,-2.024390259E0,1.555864563E0,1.152354164E1
3.857004042E0,1.000474503E1,-1.575473785E0,4.719385986E0,1.117361377E1
3.867038042E0,7.139553223E0,-1.312321014E0,4.798421631E0,8.701738723E0
3.877072042E0,5.057981873E0,-1.322200470E0,4.748575287E0,7.062603058E0
3.887105042E0,4.141288147E0,-1.603615265E0,4.738546143E0,6.494279712E0
3.897139042E0,3.363655243E0,-1.806293793E0,3.526067505E0,5.197117077E0
3.907173042E0,2.879112854E0,-1.923050995E0,2.244133301E0,4.125960522E0
3.917207042E0,2.609972534E0,-2.132764893E0,1.389410706E0,3.645696754E0
3.927241042E0,2.554737396E0,-2.454895020E0,9.258247375E-1,3.662013676E0
3.937275042E0,2.301164703E0,-2.641706543E0,5.888754272E-1,3.552569031E0
3.947308042E0,1.663640442E0,-2.705473938E0,5.557942200E-1,3.224313255E0
3.957342042E0,1.011596375E0,-2.518512726E0,9.827064514E-1,2.886510964E0
3.967376042E0,4.114942932E-1,-2.049088898E0,1.156644745E0,2.388706748E0
3.977410042E0,-1.916015625E-2,-1.444346466E0,1.266067200E0,1.920788895E0
3.987444042E0,-1.002914429E-1,-8.412506104E-1,1.681603088E0,1.882963066E0
3.997478042E0,-1.649569702E-1,-2.562670898E-1,1.628912659E0,1.657178347E0
4.007511042E0,-2.953358459E-1,2.142045593E-1,1.677561493E0,1.716775879E0
4.017545042E0,-9.086105347E-2,5.375321960E-1,2.366129608E0,2.428119831E0
4.027579042E0,5.194198608E-1,6.667135620E-1,3.362008667E0,3.466613079E0
4.037613042E0,1.030157776E0,9.104067993E-1,2.142494659E0,2.545652951E0
4.047647042E0,1.197210388E0,1.302441559E0,-2.741099854E0,3.262406341E0
4.057681042E0,3.516337738E0,2.016307068E-1,-9.330547028E0,9.973183738E0
4.067714042E0,1.084030746E1,-3.260519714E0,-1.991743149E1,2.290954674E1
4.077748042E0,2.278112640E1,-9.087452545E0,-3.575629440E1,4.335982130E1
4.087782042E0,2.816273529E1,-1.492321701E1,-3.159345108E1,4.487748006E1
4.097816042E0,2.584166199E1,-1.780741928E1,-1.211400879E1,3.363992991E1
4.107850042E0,2.611454453E1,-1.941926743E1,-5.087171173E0,3.293868081E1
4.117883042E0,2.353959915E1,-1.835842346E1,-5.378166046E0,3.033264100E1
4.127917042E0,1.293250671E1,-1.371328308E1,-5.544170837E0,1.964794374E1
4.137951042E0,3.069067841E0,-7.933352509E0,-2.981050873E0,9.013541132E0
4.147985042E0,-1.718576202E0,-4.575385437E0,1.722917175E-1,4.890535809E0
4.158019042E0,-4.158502350E0,-2.480192413E0,-1.014739838E0,4.947139895E0
4.168053042E0,-2.534679108E0,-2.035616913E0,2.536774750E0,4.123537380E0
4.178086042E0,6.921606445E-1,-2.205812988E0,7.926017761E0,8.256297890E0
4.188120042E0,2.565664673E0,-2.872825928E0,7.788603516E0,8.688964768E0
4.198154042E0,4.563859406E0,-4.066294098E0,2.973267059E0,6.797343405E0
4.208188042E0,7.057823181E0,-5.694757690E0,-1.617087250E0,9.211845873E0
4.218222042E0,9.421108704E0,-6.659501495E0,-1.006057892E0,1.158094995E1
4.228256042E0,1.049632278E1,-6.604565735E0,4.227808228E0,1.310219230E1
4.238289042E0,9.250912628E0,-6.030359802E0,7.583529968E0,1.339606474E1
4.248323042E0,7.550897827E0,-5.219645691E0,6.847061462E0,1.145176885E1
4.258357042E0,6.946754150E0,-4.549788666E0,4.743186493E0,9.563251970E0
4.268391042E0,7.508984985E0,-4.410877533E0,3.680695953E0,9.454534300E0
4.278425042E0,8.589438171E0,-4.754862213E0,2.578537903E0,1.015066601E1
4.288458042E0,1.031055908E1,-5.449268188E0,1.332079926E0,1.173782728E1
4.298492042E0,1.262160324E1,-6.230493622E0,8.671467590E-1,1.410233536E1
4.308526042E0,1.435634583E1,-6.687044220E0,7.234455872E-1,1.585385125E1
4.318560042E0,1.504431519E1,-6.663692780E0,1.112785950E0,1.649164981E1
4.328594542E0,1.429587158E1,-6.177054749E0,1.522783356E0,1.564758188E1
4.338628542E0,1.205503143E1,-5.186414795E0,7.846682739E-1,1.314680134E1
4.348661542E0,9.695787506E0,-4.176614685E0,-8.925938416E-1,1.059476896E1
4.358695542E0,8.073760529E0,-3.566333771E0,-2.119741974E0,9.077315224E0
4.368729542E0,7.580536194E0,-3.358416138E0,-1.503772888E0,8.426435833E0
4.378763542E0,8.092770996E0,-3.406316528E0,5.417234802E-1,8.797124474E0
4.388797542E0,9.081165619E0,-3.665727081E0,2.349813538E0,1.007108473E1
4.398830542E0,9.563163300E0,-3.700305176E0,3.116070099E0,1.071710052E1
4.408864542E0,9.561367035E0,-3.482807465E0,2.924019470E0,1.058770878E1
4.418898542E0,8.897347870E0,-3.047362976E0,1.964664459E0,9.607763874E0
4.428932542E0,7.889044647E0,-2.721939697E0,9.306147766E-1,8.397143861E0
4.438966542E0,7.041956177E0,-2.655178528E0,2.921923828E-1,7.531566650E0
4.449000542E0,6.502328339E0,-2.817590790E0,-7.798782349E-2,7.086972117E0
4.459033542E0,6.458020477E0,-3.181633759E0,-1.856140137E-1,7.201616098E0
4.469067542E0,6.597680054E0,-3.618126068E0,-1.085243225E-1,7.525423301E0
4.479101542E0,6.733747101E0,-4.054019623E0,-1.721420288E-1,7.861810097E0
4.489135542E0,6.953789520E0,-4.424199829E0,-6.921606445E-1,8.270901957E0
4.499169542E0,7.318580933E0,-4.695735168E0,-1.497785339E0,8.823543311E0
4.509202542E0,7.937693481E0,-4.724774780E0,-1.900447998E0,9.430916028E0
4.519236542E0,8.738228760E0,-4.615951080E0,-1.287173309E0,9.965965150E0
4.529270542E0,9.397008820E0,-4.341122589E0,-4.414320374E-1,1.036069410E1
4.539304542E0,9.592801666E0,-3.787424011E0,9.729766846E-3,1.031341452E1
4.549338542E0,9.432335358E0,-3.204386444E0,-7.095245361E-2,9.962031772E0
4.559372542E0,8.889713745E0,-2.674338684E0,-8.074209595E-1,9.318316719E0
4.569405542E0,7.992928619E0,-2.328707428E0,-1.951192474E0,8.550844302E0
4.579439542E0,7.538623352E0,-2.608775024E0,-2.172282715E0,8.267730122E0
4.589473542E0,8.557404785E0,-3.678001556E0,-1.445394287E0,9.425817564E0
4.599507542E0,1.086620361E1,-4.785398712E0,-8.824150085E-1,1.190601016E1
4.609541542E0,1.262175293E1,-5.272635498E0,-1.309776306E-1,1.367941838E1
4.619575542E0,1.331720673E1,-5.117108917E0,4.122427368E-1,1.427244698E1
4.629608542E0,1.349264191E1,-4.679419098E0,5.233117676E-1,1.429063343E1
4.639642542E0,1.292382477E1,-3.855382690E0,1.085243225E-1,1.348706787E1
4.649676542E0,1.197375046E1,-2.813848572E0,-1.408271484E0,1.238029371E1
4.659710542E0,1.211820007E1,-2.014211426E0,-2.729873199E0,1.258411810E1
4.669744542E0,1.455543182E1,-1.672472076E0,-1.635798340E0,1.474223845E1
4.679777542E0,1.757570114E1,-2.307451630E0,4.441264343E-1,1.773208538E1
4.689811542E0,1.901615570E1,-3.153342590E0,6.795867920E-2,1.927595304E1
4.699845542E0,1.862531845E1,-4.063599701E0,-2.765499115E0,1.926300380E1
4.709879542E0,1.519415359E1,-5.638624420E0,-6.036796417E0,1.729448756E1
4.719913542E0,1.242012222E1,-7.382198639E0,-6.131998444E0,1.569578599E1
4.729947542E0,1.146855103E1,-8.430019684E0,-4.136647797E0,1.482244074E1
4.739980542E0,1.145597717E1,-9.009315033E0,-2.139351196E0,1.473037657E1
4.750014542E0,1.188348816E1,-9.192384338E0,5.239105225E-2,1.502397968E1
4.760048542E0,1.221190521E1,-9.297615509E0,1.991009674E0,1.547709283E1
4.770082542E0,1.285047729E1,-9.455836487E0,3.064128113E0,1.624612235E1
4.780116542E0,1.379201935E1,-9.693542175E0,3.791465607E0,1.727888217E1
4.790149542E0,1.414738037E1,-9.985135803E0,4.911137238E0,1.799918269E1
4.800183542E0,1.411325134E1,-1.006372238E1,7.616760864E0,1.893349988E1
4.810217542E0,1.386192398E1,-9.200018463E0,9.940229187E0,1.938043943E1
4.820251542E0,1.319715637E1,-7.288343811E0,7.238198090E0,1.672352844E1
4.830285542E0,1.253283783E1,-5.867498474E0,2.019600220E0,1.398493287E1
4.840319542E0,1.166105072E1,-5.490731964E0,-2.065255280E0,1.305348692E1
4.850352542E0,1.082339264E1,-5.674849091E0,-3.232827301E0,1.264123858E1
4.860386542E0,1.030801437E1,-5.501808929E0,-2.455643463E0,1.193965019E1
4.870420542E0,9.872569885E0,-5.098697205E0,-8.397537231E-1,1.114313850E1
4.880454542E0,9.189989319E0,-4.490062866E0,8.137078857E-1,1.026054037E1
4.890488542E0,8.195158081E0,-3.968697052E0,2.243384857E0,9.377843456E0
4.900521542E0,6.797664185E0,-3.645668793E0,2.354004822E0,8.064767697E0
4.910555542E0,6.002966766E0,-3.466341705E0,3.366649017E0,7.706196236E0
4.920589542E0,5.322481842E0,-3.181633759E0,3.221301270E0,6.987731263E0
4.930623542E0,4.871619415E0,-2.696791992E0,2.352208557E0,6.044687574E0
4.940657542E0,4.381688232E0,-2.409239960E0,1.710942078E0,5.284974148E0
4.950691542E0,4.166735229E0,-2.248025208E0,1.645079041E0,5.012143739E0
4.960724542E0,3.846401367E0,-2.233505402E0,1.615590363E0,4.732175195E0
4.970758542E0,3.334316254E0,-2.273472290E0,1.359023895E0,4.258319749E0
4.980792542E0,2.836601257E0,-2.414928131E0,1.181942139E0,3.908346427E0
4.990826542E0,2.489772491E0,-2.512674866E0,1.309776306E0,3.772004243E0
5.000860542E0,1.826202393E0,-2.439626770E0,1.125958557E0,3.248780791E0
5.010893542E0,1.377435608E0,-2.237846375E0,1.514550476E0,3.033009791E0
5.020927542E0,9.819580078E-1,-1.867666168E0,1.745220795E0,2.738286703E0
5.030961542E0,5.644761658E-1,-1.313368835E0,1.741777954E0,2.253300131E0
5.040995542E0,2.558180237E-1,-6.557862854E-1,1.537602539E0,1.691070691E0
5.051029542E0,-2.182461548E-1,-4.999603271E-2,8.159532166E-1,8.461150270E-1
5.061063542E0,-5.351371765E-1,3.564088440E-1,7.767347717E-1,1.008323345E0
5.071096542E0,-5.936654663E-1,4.239184570E-1,1.350192261E-1,7.418731263E-1
5.081130542E0,-4.336482239E-1,2.550695801E-1,-2.774779816E0,2.820020266E0
5.091164542E0,5.427713013E-1,-9.101074219E-2,-7.214996338E0,7.235955762E0
5.101198542E0,3.741319885E0,-9.776170349E-1,-1.091904373E1,1.158355410E1
5.111232542E0,1.055485107E1,-2.847678223E0,-1.933933365E1,2.221539958E1
5.121265542E0,1.990770172E1,-7.470814362E0,-2.824910568E1,3.535734191E1
5.131299542E0,2.383313873E1,-1.294852341E1,-2.269340881E1,3.536486341E1
5.141333542E0,2.309562241E1,-1.569156921E1,-1.049153275E1,2.982792950E1
5.151367542E0,2.221620117E1,-1.619991211E1,-5.507946167E0,2.804165148E1
5.161401542E0,1.979333954E1,-1.428135178E1,-5.312303009E0,2.497906848E1
5.171435542E0,1.248373993E1,-1.051742889E1,-5.878425751E0,1.734981160E1
5.181468542E0,5.607938232E0,-6.354884949E0,-6.170917511E0,1.048397620E1
5.191502542E0,1.981130219E0,-3.041076050E0,-7.237000580E0,8.096122398E0
5.201536542E0,7.509883118E-1,-1.128652954E0,-8.899742889E0,9.002403259E0
5.211570542E0,-8.143066406E-2,-1.518592072E0,-5.837860107E-1,1.628974812E0
5.221604542E0,1.132544861E0,-3.081941071E0,9.977501678E0,1.050388301E1
5.231637542E0,3.332220612E0,-3.823199615E0,9.682914276E0,1.093066230E1
5.241671542E0,5.199288025E0,-4.702171783E0,5.980513458E0,9.214638174E0
5.251705542E0,7.990982666E0,-5.980214081E0,4.854405212E-1,9.992718195E0
5.261739542E0,1.007854156E1,-7.102729797E0,-1.692979431E0,1.244555945E1
5.271773542E0,1.073522598E1,-7.624993744E0,5.972579956E-1,1.318113514E1
5.281807542E0,1.029439270E1,-7.529492340E0,3.436104584E0,1.320888302E1
5.291840542E0,8.831484833E0,-6.871909790E0,5.220843201E0,1.234809590E1
5.301874542E0,7.199728088E0,-6.230643311E0,5.110821991E0,1.080636396E1
5.311908542E0,6.549929352E0,-5.852679291E0,4.222419434E0,9.745986624E0
5.321942542E0,6.767127686E0,-5.860612793E0,3.435954895E0,9.588878217E0
5.331975958E0,7.565267944E0,-6.180946655E0,2.583028564E0,1.010492044E1
5.342008958E0,8.788973236E0,-6.676715698E0,1.647474060E0,1.115969327E1
5.352042958E0,1.023287064E1,-7.287445679E0,1.445244598E0,1.264544337E1
5.362076958E0,1.159174484E1,-7.688162384E0,1.296004944E0,1.396982527E1
5.372110958E0,1.239228012E1,-7.793243866E0,1.427281952E0,1.470851421E1
5.382144958E0,1.229213837E1,-7.366331635E0,1.512903900E0,1.441000991E1
5.392178958E0,1.107980942E1,-6.336772614E0,1.059496765E0,1.280778659E1
5.402211958E0,9.546547852E0,-5.195994873E0,4.085005188E-1,1.087666361E1
5.412245958E0,8.387807465E0,-4.283941498E0,-3.749702454E-1,9.425925499E0
5.422279958E0,7.770191803E0,-3.784729614E0,-4.712200928E-1,8.655755732E0
5.432313958E0,7.898774414E0,-3.650159454E0,4.388873291E-1,8.712457941E0
5.442347958E0,8.615933075E0,-3.683839417E0,1.786834259E0,9.539274200E0
5.452380958E0,9.499246216E0,-3.735182648E0,2.490520935E0,1.050666277E1
5.462414958E0,9.877060547E0,-3.638932800E0,2.421963501E0,1.080111402E1
5.472448958E0,9.269923096E0,-3.268004150E0,1.618284760E0,9.961434178E0
5.482482958E0,8.058641968E0,-2.892734528E0,6.391708374E-1,8.585928183E0
5.492516958E0,7.178322601E0,-2.800675964E0,-9.669891357E-2,7.705936147E0
5.502550958E0,6.821614380E0,-2.988086243E0,-5.610333252E-1,7.468456369E0
5.512583958E0,6.836433563E0,-3.399879913E0,-7.698490906E-1,7.673895680E0
5.522617958E0,7.172035675E0,-3.844904480E0,-9.577084351E-1,8.193814230E0
5.532651958E0,7.529492340E0,-4.104614410E0,-1.358275452E0,8.682512687E0
5.542685958E0,7.702233124E0,-4.143234100E0,-2.039808197E0,8.980623663E0
5.552719958E0,7.982450409E0,-3.964655457E0,-2.589315491E0,9.281301748E0
5.562752958E0,8.605754242E0,-3.787573700E0,-2.300416260E0,9.679702246E0
5.572786958E0,9.404343567E0,-3.717818756E0,-1.237776031E0,1.018802943E1
5.582820958E0,1.008108627E1,-3.666774902E0,-1.727407837E-1,1.072862424E1
5.592854958E0,1.031070877E1,-3.290607147E0,-1.468446350E-1,1.082406458E1
5.602888958E0,9.940977631E0,-2.455493774E0,-1.648671570E0,1.037162494E1
5.612922958E0,9.131311340E0,-1.356179810E0,-4.113446045E0,1.010645877E1
5.622955958E0,8.664581909E0,-6.342311096E-1,-5.115162964E0,1.008177171E1
5.632989958E0,8.945697327E0,-9.568103027E-1,-2.822680206E0,9.429130934E0
5.643023958E0,9.865833893E0,-1.738634491E0,-5.049000549E-1,1.003057587E1
5.653057958E0,1.082548828E1,-2.552791443E0,5.358856201E-2,1.112253624E1
5.663091958E0,1.285481827E1,-3.969894562E0,-4.906796265E-1,1.346280736E1
5.673124958E0,1.452908661E1,-5.192701721E0,-1.936672668E0,1.555021575E1
5.683158958E0,1.487426880E1,-5.340743866E0,-3.897594910E0,1.627755090E1
5.693192958E0,1.462653397E1,-3.981570282E0,-5.128784637E0,1.600290066E1
5.703226958E0,1.394470184E1,-2.318079529E0,-5.204078064E0,1.506355306E1
5.713260958E0,1.364008530E1,-1.870959320E0,-4.361480255E0,1.444212331E1
5.723294958E0,1.478146179E1,-3.301684113E0,-1.571881256E0,1.522706608E1
5.733327958E0,1.546284485E1,-5.031337280E0,8.710386658E-1,1.628412214E1
5.743361958E0,1.609063934E1,-6.348448334E0,1.836081848E0,1.739490349E1
5.753395958E0,1.621667725E1,-7.942633209E0,1.563648376E0,1.812487350E1
5.763429958E0,1.475915817E1,-9.190438385E0,5.987548828E-2,1.738679075E1
5.773463958E0,1.249631378E1,-9.493558044E0,-1.066981201E0,1.572971555E1
5.783496958E0,1.222178467E1,-8.930429077E0,6.948550415E-1,1.515280197E1
5.793530958E0,1.289463547E1,-7.945926361E0,3.611240387E0,1.557081972E1
5.803564958E0,1.290720932E1,-7.174580383E0,5.209766235E0,1.565925670E1
5.813598958E0,1.257564880E1,-6.897207184E0,5.450166321E0,1.534349122E1
5.823632958E0,1.277129196E1,-6.936126251E0,5.953719177E0,1.570549324E1
5.833666958E0,1.316377579E1,-7.087461548E0,7.723488922E0,1.682763754E1
5.843699958E0,1.281784515E1,-6.329138489E0,6.676266632E0,1.577744227E1
5.853733958E0,1.221220459E1,-5.313650208E0,2.458188171E0,1.354309819E1
5.863767958E0,1.276575348E1,-4.701872406E0,-2.838846588E0,1.389716215E1
5.873801958E0,1.361688354E1,-4.706363068E0,-5.125042419E0,1.529167848E1
5.883835958E0,1.317155960E1,-5.255271606E0,-2.774181061E0,1.445004991E1
5.893868958E0,1.241413467E1,-5.287304993E0,3.730242920E-1,1.349835104E1
5.903902958E0,1.093431198E1,-5.209017792E0,2.968327332E0,1.247012478E1
5.913936958E0,8.200397186E0,-5.201683044E0,3.511398010E0,1.032637093E1
5.923970958E0,5.697901154E0,-4.884342957E0,3.070415039E0,8.108657853E0
5.934004958E0,4.376449127E0,-4.578079834E0,3.491788788E0,7.232199587E0
5.944038958E0,3.582949219E0,-4.229005737E0,3.762425995E0,6.699094267E0
5.954071958E0,3.136577454E0,-3.644171906E0,3.476520538E0,5.933321334E0
5.964105958E0,3.033591614E0,-2.985391846E0,3.346890106E0,5.414509759E0
5.974139958E0,2.981799316E0,-2.302661591E0,2.873424683E0,4.738137500E0
5.984173958E0,3.047961731E0,-1.656305695E0,2.363435211E0,4.197528471E0
5.994207958E0,3.329675903E0,-1.202150116E0,1.799707489E0,3.971253400E0
6.004240958E0,3.662284241E0,-1.095422058E0,1.368753662E0,4.060266239E0
6.014274958E0,4.158652039E0,-1.398541718E0,1.205592957E0,4.550138469E0
6.024308958E0,4.301904144E0,-1.833986206E0,1.300196228E0,4.853905119E0
6.034342958E0,4.441114655E0,-2.327360229E0,2.084116058E0,5.429884415E0
6.044376958E0,3.460204468E0,-2.628983002E0,2.225721588E0,4.882458722E0
6.054410958E0,1.811532898E0,-2.491718445E0,1.427581329E0,3.395335138E0
6.064443958E0,2.541714478E-1,-1.973196716E0,9.752220154E-1,2.215663870E0
6.074477958E0,-7.051835632E-1,-1.322799225E0,7.900570679E-1,1.694482758E0
6.084511958E0,-6.541397095E-1,-6.231541443E-1,8.237370300E-1,1.222604818E0
6.094545958E0,1.152603149E-2,5.897735596E-2,-1.327738953E-1,1.457397859E-1
6.104579958E0,1.167122955E0,1.945953369E-2,-4.058360596E0,4.222895380E0
6.114612958E0,4.277953949E0,-1.635199585E0,-7.515421600E0,8.800927764E0
6.124646958E0,8.942853241E0,-4.547842712E0,-1.000055374E1,1.416575351E1
6.134680958E0,1.878668289E1,-9.066795502E0,-2.393567551E1,3.175000467E1
6.144714958E0,2.800152054E1,-1.400742142E1,-3.034953781E1,4.360490170E1
6.154748958E0,2.654804306E1,-1.594184875E1,-1.563573532E1,3.469030630E1
6.164782958E0,2.365620667E1,-1.448822159E1,-7.598648529E0,2.876219981E1
6.174815958E0,2.000365219E1,-1.096604599E1,-7.938292236E0,2.415402139E1
6.184849958E0,1.327005478E1,-7.220534821E0,-1.094898148E1,1.865772420E1
6.194883958E0,7.831115112E0,-5.058730316E0,-9.079069977E0,1.301332502E1
6.204917958E0,7.114106140E0,-5.906417542E0,-5.439837799E0,1.072791264E1
6.214951958E0,8.859925690E0,-9.665101318E0,-2.493814087E-1,1.311391085E1
6.224984958E0,9.738299103E0,-1.079929276E1,9.278754730E0,1.724976761E1
6.235018958E0,6.390211487E0,-7.329957275E0,9.701924744E0,1.373646316E1
6.245052958E0,2.394869843E0,-3.756438446E0,6.784790955E0,8.116626125E0
6.255086958E0,1.950444031E-1,-1.860481110E0,5.966742096E0,6.253114705E0
6.265120958E0,-1.289867706E0,-9.839039612E-1,5.860463104E0,6.080859602E0
6.275154958E0,-1.710343323E0,-6.429130554E-1,5.510790253E0,5.805809219E0
6.285187958E0,-1.360520782E0,-5.062472534E-1,4.887336731E0,5.098368700E0
6.295221958E0,-7.890092468E-1,-2.894979858E-1,3.946393433E0,4.034893530E0
6.305255958E0,-5.313949585E-2,-9.888436890E-1,2.583627319E0,2.766905451E0
6.315289958E0,9.514215088E-1,-2.597847748E0,1.511407013E0,3.152517560E0
6.325324208E0,3.200344849E0,-4.361929321E0,1.930385742E0,5.744129496E0
6.335357208E0,7.195985870E0,-6.913822632E0,2.965782623E0,1.041052461E1
6.345391208E0,1.212807953E1,-1.008243347E1,3.376678162E0,1.612909586E1
6.355425208E0,1.754187149E1,-1.325299026E1,3.747606812E0,2.230254611E1
6.365459208E0,2.116254227E1,-1.470242615E1,4.391268311E0,2.613996494E1
6.375493208E0,2.037697586E1,-1.291244843E1,3.529660034E0,2.438054490E1
6.385527208E0,1.543500275E1,-8.996292114E0,2.995271301E-1,1.786791253E1
6.395560208E0,1.138053406E1,-5.596861267E0,-4.732708282E0,1.353661476E1
6.405594208E0,9.212442627E0,-3.705095215E0,-6.395600281E0,1.181103436E1
6.415628208E0,8.984616394E0,-3.463946686E0,-3.236719208E0,1.015867165E1
6.425662208E0,9.952653351E0,-3.732039185E0,-8.517288208E-2,1.062970741E1
6.435696208E0,1.095601685E1,-3.959416351E0,2.055375824E0,1.182944854E1
6.445729208E0,1.132799332E1,-3.917952576E0,3.172502747E0,1.239913540E1
6.455763208E0,1.074974579E1,-3.583697662E0,3.200195160E0,1.177459861E1
6.465797208E0,9.466165009E0,-3.022065582E0,2.528990936E0,1.025363133E1
6.475831208E0,8.388705597E0,-2.656076660E0,1.631008301E0,8.949039775E0
6.485865208E0,7.598498840E0,-2.627186737E0,8.192463684E-1,8.081488687E0
6.495899208E0,6.985673218E0,-2.792592773E0,2.106120300E-1,7.526125307E0
6.505932208E0,6.652466125E0,-3.267555084E0,-2.484832764E-1,7.415791645E0
6.515966208E0,6.665339355E0,-4.022435303E0,-9.987231445E-1,7.848833188E0
6.526000208E0,6.877597961E0,-4.795427856E0,-1.662742310E0,8.547642601E0
6.536034208E0,6.952741699E0,-5.396128693E0,-2.160008240E0,9.062254554E0
6.546068208E0,7.161557465E0,-5.664520569E0,-2.454895020E0,9.455221211E0
6.556101208E0,7.545209656E0,-5.458997955E0,-2.478695526E0,9.637156164E0
6.566135208E0,7.788753204E0,-5.016667786E0,-2.369572449E0,9.562766636E0
6.576169208E0,8.262817383E0,-4.549938354E0,-2.098486176E0,9.663319014E0
6.586203208E0,8.782835999E0,-4.218677216E0,-1.331630859E0,9.834057472E0
6.596237208E0,8.973838806E0,-3.927981720E0,-5.746549988E-1,9.812698491E0
6.606271208E0,9.002579041E0,-3.559747467E0,-5.795947266E-1,9.698152476E0
6.616304208E0,8.775650940E0,-3.036735077E0,-2.459086304E0,9.606295581E0
6.626338208E0,8.959618378E0,-2.540966034E0,-5.540727997E0,1.083655557E1
6.636372208E0,1.037238052E1,-3.043471069E0,-6.587052155E0,1.265852479E1
6.646406208E0,1.163231049E1,-4.563859406E0,-5.322182465E0,1.358179245E1
6.656440208E0,1.176463531E1,-5.830375671E0,-3.808530121E0,1.367131399E1
6.666473208E0,1.120554794E1,-6.333479462E0,-2.728226624E0,1.315752588E1
6.676507208E0,1.059526703E1,-6.146069183E0,-2.061063995E0,1.242102390E1
6.686541208E0,1.042192749E1,-5.513634338E0,-1.399589539E0,1.187331407E1
6.696575208E0,9.999954987E0,-4.518952789E0,-7.179071045E-1,1.099706437E1
6.706609208E0,9.871222687E0,-3.296894073E0,5.703140259E-1,1.042285018E1
6.716643208E0,1.094943054E1,-2.510279846E0,2.155517578E0,1.143843478E1
6.726676208E0,1.249511627E1,-2.450254669E0,3.450474701E0,1.319232558E1
6.736710208E0,1.444091995E1,-2.903512115E0,3.350782013E0,1.510623354E1
6.746744208E0,1.607312576E1,-3.256178741E0,1.858086090E0,1.650456166E1
6.756778208E0,1.738170456E1,-3.654051361E0,-4.463717651E-1,1.776724493E1
6.766812208E0,1.840991638E1,-4.577331390E0,-4.628674622E0,1.952694581E1
6.776845208E0,1.734353394E1,-6.204447784E0,-8.313711548E0,2.020918458E1
6.786879208E0,1.531989212E1,-7.248975677E0,-4.724026337E0,1.759440729E1
6.796913208E0,1.443313614E1,-7.294780426E0,2.098635864E-1,1.617322735E1
6.806947208E0,1.367690872E1,-7.216193848E0,3.423530731E0,1.583830321E1
6.816981208E0,1.346345261E1,-7.460934906E0,5.119354248E0,1.622152563E1
6.827015208E0,1.394649811E1,-7.830067291E0,7.969577179E0,1.786977682E1
6.837048208E0,1.407912231E1,-7.932154999E0,1.143726608E1,1.979777320E1
6.847082208E0,1.293729675E1,-7.121590576E0,1.064436493E1,1.820420842E1
6.857116208E0,1.158560760E1,-5.905968475E0,7.361840973E0,1.494334199E1
6.867150208E0,1.102666992E1,-4.942721558E0,4.524491272E0,1.290306038E1
6.877184208E0,1.159758270E1,-3.880530396E0,-1.894310760E0,1.237541328E1
6.887217208E0,1.301752991E1,-3.104544067E0,-5.567222900E0,1.449442133E1
6.897251208E0,1.249496658E1,-3.009641418E0,-2.716401215E0,1.313624630E1
6.907285208E0,1.157258469E1,-2.859353943E0,8.436456299E-1,1.195041251E1
6.917319208E0,1.095182556E1,-2.467468872E0,3.343746643E0,1.171373243E1
6.927353208E0,9.714947662E0,-2.142494659E0,4.664899292E0,1.098780127E1
6.937387208E0,8.431815948E0,-1.901495819E0,5.175188141E0,1.007441208E1
6.947420208E0,7.332951050E0,-1.704355774E0,5.057383118E0,9.069405918E0
6.957454208E0,6.519841919E0,-1.616787872E0,4.298311615E0,7.974824413E0
6.967488208E0,5.968538361E0,-1.799707489E0,3.639681244E0,7.218703261E0
6.977522208E0,5.309309235E0,-2.159110107E0,2.743195496E0,6.354183074E0
6.987556208E0,4.892575836E0,-2.660417633E0,2.332599335E0,6.037892012E0
6.997589208E0,4.822671204E0,-3.152294769E0,2.425556030E0,6.251275222E0
7.007623208E0,4.690645752E0,-3.646417236E0,2.806364136E0,6.570707412E0
7.017657208E0,4.202211456E0,-3.983665924E0,3.075953522E0,6.556650470E0
7.027691208E0,3.282374268E0,-3.971092072E0,2.831362152E0,5.878789391E0
7.037725208E0,2.562072144E0,-3.775598602E0,3.231031036E0,5.590967719E0
7.047759208E0,1.777254181E0,-3.342100067E0,3.251987457E0,4.990359476E0
7.057792208E0,5.950126648E-1,-2.655627594E0,2.517015839E0,3.706988902E0
7.067826208E0,-5.292993164E-1,-2.014510803E0,1.725312195E0,2.704646689E0
7.077860208E0,-7.253915405E-1,-1.692081299E0,1.722468109E0,2.521156163E0
7.087894208E0,-2.634521484E-2,-1.610500946E0,2.194137268E0,2.721882753E0
7.097928208E0,1.169218597E0,-1.644929352E0,1.445843353E0,2.482605024E0
7.107961208E0,2.722987518E0,-1.888472900E0,-8.590635681E-1,3.423299744E0
7.117995208E0,5.343438263E0,-3.237317963E0,-2.776875458E0,6.836928943E0
7.128029208E0,8.705895996E0,-5.725443878E0,-5.815406799E0,1.193282401E1
7.138063208E0,1.509790375E1,-1.013662079E1,-1.775802200E1,2.541741773E1
7.148097208E0,2.526251633E1,-1.494357468E1,-2.718436981E1,4.000618849E1
7.158131208E0,2.786051376E1,-1.655272842E1,-2.069341782E1,3.845020918E1
7.168164208E0,2.605751312E1,-1.523187515E1,-9.735155640E0,3.171399165E1
7.178198208E0,2.198448303E1,-1.139340729E1,-3.940405884E0,2.507297394E1
7.188232208E0,1.567660034E1,-6.948550415E0,-2.103725281E0,1.727610521E1
7.198266208E0,9.190887451E0,-3.356919250E0,-1.056652679E0,9.841637764E0
7.208300208E0,5.061424713E0,-1.005608826E0,-2.454595642E0,5.714394894E0
7.218334208E0,3.473826141E0,3.284170532E-1,-2.614014130E0,4.359861889E0
7.228367208E0,3.682043152E0,3.065625000E-1,2.047891388E0,4.224367583E0
7.238401208E0,3.145259399E0,-6.167175293E-1,5.439089355E0,6.313215521E0
7.248435208E0,1.872755585E0,-1.616937561E0,5.520669708E0,6.049751613E0
7.258469208E0,1.064137115E0,-2.710114288E0,3.675307159E0,4.688815412E0
7.268503208E0,1.334774323E0,-3.976181488E0,1.632505188E0,4.500746039E0
7.278536208E0,4.007765808E0,-5.283113708E0,2.237846375E0,6.998673705E0
7.288570208E0,7.201524353E0,-7.325616302E0,6.431525574E0,1.211986503E1
7.298604208E0,8.711883545E0,-9.091793518E0,8.001760254E0,1.491930935E1
7.308638208E0,9.535470886E0,-8.926537170E0,6.257736969E0,1.448335399E1
7.318672208E0,1.069765411E1,-7.773634644E0,4.916076965E0,1.410804777E1
7.328705417E0,1.099703156E1,-6.874304810E0,3.468587036E0,1.342467376E1
7.338739417E0,1.049632278E1,-6.106102295E0,1.966161346E0,1.230134414E1
7.348773417E0,9.899663544E0,-5.510041809E0,8.411009216E-1,1.136095726E1
7.358807417E0,9.463021545E0,-5.070705414E0,-1.113684082E-1,1.073653729E1
7.368841417E0,9.145082703E0,-4.810546417E0,-1.015637970E0,1.038293865E1
7.378875417E0,8.848399658E0,-4.716092834E0,-1.598825226E0,1.015342062E1
7.388908417E0,8.896300049E0,-4.937482452E0,-1.661544800E0,1.030939468E1
7.398942417E0,9.258696442E0,-5.605992279E0,-1.188079376E0,1.088862442E1
7.408976417E0,9.653425598E0,-6.230194244E0,-5.542973328E-1,1.150266020E1
7.419010417E0,9.775421906E0,-6.460864563E0,2.993774414E-4,1.171757844E1
7.429044417E0,9.367969208E0,-6.227050781E0,7.048841858E-1,1.127084159E1
7.439077417E0,8.575666809E0,-5.651647339E0,1.901196442E0,1.044498572E1
7.449111417E0,8.310867462E0,-5.014422455E0,2.543211365E0,1.003408564E1
7.459145417E0,8.782536621E0,-4.595743103E0,2.523452454E0,1.022847088E1
7.469179417E0,9.364975433E0,-4.295766907E0,2.531385956E0,1.060963209E1
7.479213417E0,9.335486755E0,-3.946692810E0,2.485880585E0,1.043586601E1
7.489247417E0,8.609496460E0,-3.540587311E0,2.140698395E0,9.552056188E0
7.499280417E0,7.958350525E0,-3.391647034E0,1.702559509E0,8.816877087E0
7.509314417E0,7.743397522E0,-3.651207275E0,1.341210938E0,8.665469781E0
7.519348417E0,7.862699432E0,-4.263434143E0,9.394464111E-1,8.993412735E0
7.529382417E0,8.061336365E0,-5.024601288E0,4.887336731E-1,9.511604633E0
7.539416417E0,8.223748627E0,-5.886808319E0,-2.950364685E-1,1.011788516E1
7.549449417E0,8.116421814E0,-6.712940369E0,-1.401685181E0,1.062565729E1
7.559483417E0,7.775879974E0,-7.451055450E0,-2.452050934E0,1.104513877E1
7.569517417E0,7.634274445E0,-7.802674255E0,-3.085982666E0,1.134403636E1
7.579551417E0,7.376061401E0,-7.615862732E0,-3.651057587E0,1.121328981E1
7.589585417E0,6.864874420E0,-6.547234955E0,-4.117787018E0,1.034161285E1
7.599619417E0,7.131020966E0,-5.232369232E0,-3.952979736E0,9.687889171E0
7.609652417E0,7.987390137E0,-4.284839630E0,-2.813549194E0,9.490748702E0
7.619686417E0,8.642877045E0,-3.619473267E0,-9.559121704E-1,9.418793894E0
7.629720417E0,8.879235535E0,-3.036735077E0,8.421487427E-1,9.421878693E0
7.639754417E0,8.891210632E0,-2.614912262E0,1.824705505E0,9.445683820E0
7.649788417E0,8.725056152E0,-2.186503143E0,1.982926483E0,9.210830489E0
7.659821417E0,8.321046295E0,-1.710942078E0,1.833387451E0,8.690710200E0
7.669855417E0,8.118068390E0,-1.237177277E0,1.552870789E0,8.357335083E0
7.679889417E0,8.306526489E0,-8.419990540E-1,1.163680115E0,8.429798107E0
7.689923417E0,9.239685974E0,-8.066725159E-1,4.586462402E-1,9.286165722E0
7.699957417E0,1.098071548E1,-1.538949738E0,-8.165519714E-1,1.111805900E1
7.709991417E0,1.258313324E1,-2.407743073E0,-2.512375488E0,1.305543946E1
7.720024417E0,1.321721466E1,-2.937641144E0,-2.490520935E0,1.376688757E1
7.730058417E0,1.279329620E1,-3.385210419E0,-1.810784454E0,1.335690899E1
7.740092417E0,1.276979507E1,-3.601211243E0,-1.466799774E0,1.334870369E1
7.750126417E0,1.368454285E1,-3.762126617E0,-1.132095795E0,1.423734352E1
7.760160417E0,1.510059814E1,-3.896846466E0,-8.502319336E-1,1.561846251E1
7.770193417E0,1.606249786E1,-3.993695068E0,-3.363505554E-1,1.655495604E1
7.780227417E0,1.641755951E1,-4.133354645E0,-3.682342529E-1,1.693388548E1
7.790261417E0,1.636142624E1,-4.380939789E0,-1.139729919E0,1.697609750E1
7.800295417E0,1.598510880E1,-4.897665253E0,-1.875749359E0,1.682347359E1
7.810329417E0,1.505614059E1,-5.744753723E0,-2.187850342E0,1.626272591E1
7.820363417E0,1.350326981E1,-6.715335388E0,-2.125879211E0,1.523001600E1
7.830396417E0,1.183843185E1,-7.425758057E0,-1.476230164E0,1.405238795E1
7.840430417E0,1.073073532E1,-7.742200012E0,-3.769161987E-1,1.323753781E1
7.850464417E0,1.044572800E1,-7.910749512E0,7.447013855E-1,1.312431984E1
7.860498417E0,1.089509354E1,-8.209977264E0,1.267115021E0,1.370081641E1
7.870532417E0,1.176014465E1,-8.875792694E0,1.338666229E0,1.479434775E1
7.880565417E0,1.268507126E1,-9.814640350E0,1.916165314E0,1.615270527E1
7.890599417E0,1.319730606E1,-1.055739578E1,3.419339447E0,1.724295146E1
7.900633417E0,1.288251068E1,-1.031415161E1,5.268593903E0,1.732336245E1
7.910667417E0,1.219843323E1,-9.047036591E0,7.767946472E0,1.705847697E1
7.920701417E0,1.110750183E1,-7.741750946E0,6.803951111E0,1.515272435E1
7.930735417E0,1.011895752E1,-6.608008575E0,1.975741425E0,1.224592311E1
7.940768417E0,9.413923645E0,-5.755980377E0,-2.029479675E0,1.121927165E1
7.950802417E0,9.650282135E0,-5.424868927E0,-3.135379944E0,1.150598781E1
7.960836417E0,1.005324417E1,-5.369334412E0,-2.567460938E0,1.168286463E1
7.970870417E0,9.460925903E0,-5.181026001E0,-1.953886871E0,1.096219975E1
7.980904417E0,8.784632263E0,-5.034331055E0,-1.023870850E-1,1.012544993E1
7.990937417E0,7.956554260E0,-4.653522949E0,1.651515656E0,9.364269085E0
8.000971417E0,7.055727539E0,-4.121379547E0,3.089874573E0,8.735924985E0
8.011005417E0,5.972879333E0,-3.475622406E0,3.541186066E0,7.765000798E0
8.021039417E0,5.082979889E0,-2.781815186E0,3.309018860E0,6.672689570E0
8.031073417E0,4.633764038E0,-2.077080688E0,2.828069000E0,5.812401192E0
8.041107417E0,4.212839355E0,-1.559157715E0,2.015259247E0,4.923439656E0
8.051140417E0,3.740122375E0,-1.216071167E0,5.891748047E-1,3.976741306E0
8.061174417E0,3.660038910E0,-1.196312256E0,1.866618347E-1,3.855112252E0
8.071208417E0,3.451522522E0,-1.408121796E0,6.327342224E-1,3.781027282E0
8.081242417E0,2.896626434E0,-1.724713440E0,9.478289795E-1,3.501922461E0
8.091276417E0,2.532134399E0,-2.032772827E0,1.601220245E0,3.620466304E0
8.101309417E0,2.312391357E0,-2.222129059E0,2.155667267E0,3.864183317E0
8.111343417E0,1.948647766E0,-2.176024933E0,2.371368713E0,3.762406437E0
8.121377417E0,1.279539185E0,-1.807640991E0,2.016307068E0,2.995042682E0
8.131411417E0,4.947212219E-1,-1.160985718E0,1.376387787E0,1.867372556E0
8.141445417E0,-5.044509888E-2,-4.346960449E-1,1.192420349E0,1.270185675E0
8.151479417E0,-2.444416809E-1,1.170565796E-1,1.027912445E0,1.063041849E0
8.161512417E0,-6.825805664E-2,4.960684204E-1,-2.754272461E-1,5.714920891E-1
8.171546417E0,5.617817688E-1,7.232958984E-1,-3.951333160E0,4.056080554E0
8.181580417E0,3.034489746E0,-4.538562012E-1,-8.575966187E0,9.108309915E0
8.191614417E0,8.211474152E0,-3.656596069E0,-1.295466064E1,1.576775935E1
8.201648417E0,1.813404007E1,-8.801547089E0,-2.470627304E1,3.188589920E1
8.211681417E0,2.644835037E1,-1.507589951E1,-2.778507065E1,4.121660023E1
8.221715417E0,2.583791977E1,-1.835498062E1,-1.607342514E1,3.553671914E1
8.231749417E0,2.357223129E1,-1.833297638E1,-6.778653717E0,3.062185914E1
8.241783417E0,2.008193939E1,-1.541239975E1,-4.022135925E0,2.563208796E1
8.251817417E0,1.188438629E1,-1.037522461E1,-4.075125732E0,1.629388146E1
8.261851417E0,4.870571594E0,-5.363346863E0,-4.651576996E0,8.609594983E0
8.271884417E0,1.867815857E0,-1.504371643E0,-6.574478302E0,6.998259431E0
8.281918417E0,1.797611847E0,1.822160797E0,-1.054242691E1,1.084870700E1
8.291952417E0,3.841461639E0,2.959645386E0,-7.658524017E0,9.064729365E0
8.301986417E0,4.932542725E0,5.459147644E-1,4.361629944E0,6.606952128E0
8.312020417E0,5.894143066E0,-2.415975952E0,1.077414505E1,1.251639181E1
8.322053417E0,6.115832062E0,-4.967420197E0,5.060676270E0,9.364246340E0
8.332086917E0,6.592740326E0,-6.917564850E0,-2.891986084E0,9.984012819E0
8.342120917E0,6.510860596E0,-6.640041962E0,-8.032296753E-1,9.334165247E0
8.352154917E0,5.413642273E0,-5.791306915E0,4.364623718E0,9.049679478E0
8.362188917E0,4.578528900E0,-5.908064117E0,5.702391815E0,9.401352079E0
8.372222917E0,4.794080658E0,-6.204896851E0,5.212460632E0,9.415609387E0
8.382255917E0,5.853427734E0,-6.053411865E0,5.562133484E0,1.009176597E1
8.392289917E0,7.098388824E0,-6.275100861E0,5.143304443E0,1.078042649E1
8.402323917E0,8.290360107E0,-6.802753601E0,4.520000610E0,1.163778041E1
8.412357917E0,9.712253265E0,-7.359745331E0,3.003953247E0,1.255059560E1
8.422391917E0,1.239302856E1,-7.926915894E0,-1.606609039E0,1.479879540E1
8.432424917E0,1.471215591E1,-7.966733093E0,-4.925507355E0,1.744067059E1
8.442458917E0,1.412896866E1,-7.038064270E0,-5.424270172E0,1.669086010E1
8.452492917E0,1.106394241E1,-6.162534943E0,-3.599714355E0,1.316607770E1
8.462526917E0,8.494086456E0,-6.008056183E0,-1.515598297E0,1.051395654E1
8.472560917E0,7.765551453E0,-6.277645569E0,-2.158511353E-1,9.987953492E0
8.482594917E0,7.534132690E0,-6.544241180E0,1.932481384E-1,9.981362275E0
8.492627917E0,7.210056610E0,-6.518644409E0,2.200424194E-1,9.722451333E0
8.502661917E0,6.899602203E0,-6.120472412E0,3.525169373E-1,9.229786634E0
8.512695917E0,6.614594879E0,-5.397326202E0,9.342073059E-1,8.588174360E0
8.522729917E0,7.071744232E0,-4.754562836E0,1.538949738E0,8.659318711E0
8.532763917E0,8.224796448E0,-4.413871307E0,2.011517029E0,9.548598708E0
8.542796917E0,9.152567139E0,-4.239334259E0,2.415377197E0,1.037186035E1
8.552830917E0,9.649833069E0,-3.910019073E0,2.381697235E0,1.068082437E1
8.562864917E0,9.767787781E0,-3.390599213E0,2.139500885E0,1.055856549E1
8.572898917E0,9.415719910E0,-2.651885376E0,1.947749634E0,9.974066678E0
8.582932917E0,8.920549622E0,-2.114203491E0,1.592388611E0,9.304932210E0
8.592966917E0,8.541537781E0,-1.712289276E0,1.246757355E0,8.800238981E0
8.602999917E0,8.433911591E0,-1.583706665E0,1.035247192E0,8.643536792E0
8.613033917E0,8.319100342E0,-1.588796082E0,8.928932190E-1,8.516393708E0
8.623067917E0,8.169261932E0,-1.626068573E0,7.587721252E-1,8.364010680E0
8.633101917E0,8.009843445E0,-1.748963013E0,5.692662048E-1,8.218304426E0
8.643135917E0,7.903115387E0,-2.014660492E0,3.659889221E-1,8.164069917E0
8.653168917E0,7.918084259E0,-2.474953308E0,8.876541138E-2,8.296344467E0
8.663202917E0,8.122858429E0,-3.140169983E0,-3.210823059E-1,8.714619351E0
8.673236917E0,8.459957428E0,-3.856280823E0,-8.045768738E-1,9.332155454E0
8.683270917E0,8.879834290E0,-4.501289520E0,-1.090781708E0,1.001513201E1
8.693304917E0,9.045539703E0,-4.868176575E0,-1.210532684E0,1.034341922E1
8.703338917E0,8.832083588E0,-4.895419922E0,-1.564995575E0,1.021861281E1
8.713371917E0,8.211623840E0,-4.514911194E0,-2.580932922E0,9.719897321E0
8.723405917E0,7.970026245E0,-3.702400818E0,-3.938609619E0,9.630251082E0
8.733439917E0,8.885372772E0,-2.948119354E0,-4.097728729E0,1.021922882E1
8.743473917E0,1.023571472E1,-2.818189545E0,-2.665507050E0,1.094609410E1
8.753507917E0,1.169428162E1,-3.252137146E0,-1.294358368E0,1.220688257E1
8.763540917E0,1.282982025E1,-3.921096039E0,-6.379733276E-1,1.343079639E1
8.773574917E0,1.328816711E1,-4.627626801E0,-5.077441406E-1,1.408006105E1
8.783608917E0,1.262160324E1,-4.980892181E0,-7.420069885E-1,1.358914014E1
8.793642917E0,1.117067047E1,-4.799619141E0,-1.228794708E0,1.222007198E1
8.803676917E0,1.012913635E1,-4.558769989E0,-1.907483368E0,1.127032741E1
8.813709917E0,9.746831360E0,-4.179309082E0,-2.202968903E0,1.083145502E1
8.823743917E0,1.019904099E1,-3.374432831E0,-1.415157166E0,1.083558507E1
8.833777917E0,1.133742371E1,-2.179467773E0,-1.182540894E0,1.160541507E1
8.843811917E0,1.360445938E1,-1.613644409E0,-9.147477722E-1,1.373032872E1
8.853845917E0,1.607252701E1,-2.014810181E0,2.070195007E-1,1.619964325E1
8.863879917E0,1.745355515E1,-2.670297089E0,8.759783936E-1,1.767835999E1
8.873912917E0,1.833836517E1,-3.155587921E0,-6.276448059E-1,1.861846692E1
8.883946917E0,1.814302139E1,-3.820205841E0,-5.006788330E0,1.920497663E1
8.893980917E0,1.481259705E1,-5.349725189E0,-7.387437744E0,1.739559793E1
8.904014917E0,1.217268677E1,-6.936126251E0,-5.466931458E0,1.503899897E1
8.914048917E0,1.160342056E1,-7.884404297E0,-2.124831390E0,1.418866126E1
8.924082917E0,1.192480225E1,-8.454868011E0,1.265318756E0,1.467265256E1
8.934115917E0,1.217672836E1,-8.861422577E0,3.256777496E0,1.540792404E1
8.944149917E0,1.253777756E1,-9.319619751E0,4.629722443E0,1.629372604E1
8.954183917E0,1.312515610E1,-9.837842102E0,7.040010223E0,1.784977882E1
8.964217917E0,1.297606613E1,-9.861792297E0,8.876391449E0,1.855865202E1
8.974251917E0,1.201880676E1,-8.906778259E0,8.005352783E0,1.696667581E1
8.984284917E0,1.158949951E1,-7.084767151E0,6.238576813E0,1.494758392E1
8.994318917E0,1.240590179E1,-4.546196136E0,3.868854675E0,1.376743749E1
9.004352917E0,1.492037292E1,-2.049238586E0,-2.694396973E-1,1.506285181E1
9.014386917E0,1.652383850E1,-5.803431702E-1,-2.043251038E0,1.665979927E1
9.024420917E0,1.598091751E1,-7.783813477E-2,-9.921368408E-1,1.601187431E1
9.034453917E0,1.558543991E1,3.329077148E-1,1.587149506E0,1.566958226E1
9.044487917E0,1.483999008E1,3.637435913E-1,3.301235046E0,1.520709597E1
9.054521917E0,1.305480240E1,-5.328918457E-2,3.431464233E0,1.349835739E1
9.064555917E0,9.965227203E0,-1.160836029E0,2.296224976E0,1.029203297E1
9.074589917E0,7.813900909E0,-2.472408600E0,2.022743683E0,8.441643425E0
9.084623917E0,6.844965820E0,-3.791615295E0,2.883154449E0,8.339213585E0
9.094656917E0,5.794600067E0,-5.015470276E0,3.338058472E0,8.359124738E0
9.104690917E0,4.936135254E0,-5.883066101E0,3.727249146E0,8.536292180E0
9.114724917E0,4.190835114E0,-6.253545685E0,3.673361206E0,8.376366464E0
9.124758917E0,3.400778046E0,-6.266269226E0,3.207679596E0,7.817968388E0
9.134792917E0,2.823278961E0,-6.115981750E0,2.846480713E0,7.312905668E0
9.144825917E0,2.209405518E0,-5.762866058E0,2.407144318E0,6.624684273E0
9.154859917E0,1.942510529E0,-5.194348297E0,2.235002289E0,5.979116709E0
9.164893917E0,1.205742645E0,-4.292174377E0,2.141297150E0,4.945880073E0
9.174927917E0,3.588038635E-1,-3.245999908E0,1.922003174E0,3.789373539E0
9.184961917E0,1.354682922E-1,-2.267035675E0,1.842967529E0,2.924778919E0
9.194995917E0,1.161584473E-1,-1.473086700E0,1.461860046E0,2.078584135E0
9.205028917E0,-9.056167603E-2,-9.144483948E-1,6.399192810E-1,1.119783001E0
9.215062917E0,-1.073268127E-1,-5.233117676E-1,5.164260864E-2,5.366947082E-1
9.225096917E0,2.350112915E-1,-1.713935852E-1,5.230123901E-1,5.984547004E-1
9.235130917E0,6.676116943E-1,6.765930176E-2,1.839674377E0,1.958235167E0
9.245164917E0,1.089883575E0,1.743873596E-1,1.621428223E0,1.961450137E0
9.255197917E0,2.198328552E0,-5.822891235E-2,-8.662486267E-1,2.363562082E0
9.265231917E0,4.865482178E0,-1.479223938E0,-2.459086304E0,5.648727797E0
9.275265917E0,9.808652802E0,-5.311853943E0,-7.378755798E0,1.337428500E1
9.285299917E0,2.117945709E1,-1.118698654E1,-2.613400406E1,3.545002452E1
9.295333917E0,3.033232361E1,-1.558364365E1,-3.229908371E1,4.696946469E1
9.305367917E0,2.828338440E1,-1.643806686E1,-1.665242111E1,3.670780577E1
9.315400917E0,2.564527039E1,-1.464255066E1,-7.160809021E0,3.038686178E1
9.325434917E0,1.998838394E1,-1.092592941E1,-6.504723358E0,2.369014251E1
9.335469292E0,1.107576782E1,-7.806865540E0,-6.251150665E0,1.492302473E1
9.345503292E0,4.803061981E0,-6.024222565E0,-4.639152832E0,8.993464344E0
9.355537292E0,2.287692719E0,-5.034031677E0,-3.651506653E0,6.626349956E0
9.365570292E0,2.779569855E0,-4.868176575E0,-3.281027069E0,6.495405327E0
9.375604292E0,4.379143524E0,-5.584287415E0,6.819818115E-1,7.129254037E0
9.385638292E0,5.242098999E0,-5.319488068E0,3.710484009E0,8.339319325E0
9.395672292E0,5.912105713E0,-4.611909485E0,8.846603394E-2,7.498701841E0
9.405706292E0,5.480852509E0,-4.393813019E0,1.796713715E0,7.250759770E0
9.415739292E0,4.740941162E0,-3.244503021E0,5.147346039E0,7.713526703E0
9.425773292E0,3.860023041E0,-2.504441986E0,5.461542664E0,7.141460341E0
9.435807292E0,3.449576569E0,-2.796185303E0,4.464615784E0,6.296905974E0
9.445841292E0,4.039200439E0,-4.494254150E0,3.708238678E0,7.089745740E0
9.455875292E0,4.655468903E0,-5.625002747E0,3.199746094E0,7.971977275E0
9.465909292E0,6.202352142E0,-5.875132599E0,3.943998413E0,9.409648167E0
9.475942292E0,8.118218079E0,-6.226302338E0,4.281995544E0,1.109088776E1
9.485976292E0,1.001163071E1,-6.810537415E0,3.529360657E0,1.261239691E1
9.496010292E0,1.166479294E1,-7.296277313E0,2.941383362E0,1.406964083E1
9.506044292E0,1.296349228E1,-7.476053467E0,2.256108398E0,1.513385386E1
9.516078292E0,1.418884415E1,-6.767876129E0,3.558100891E-1,1.572431386E1
9.526111292E0,1.404559204E1,-5.091362457E0,-7.039860535E-1,1.495647765E1
9.536145292E0,1.224872864E1,-3.382665710E0,-1.045276337E0,1.275015228E1
9.546179292E0,1.036085449E1,-2.480491791E0,-2.233206024E0,1.088518969E1
9.556213292E0,9.200617218E0,-2.711311798E0,-2.375110931E0,9.881483735E0
9.566247292E0,9.427096252E0,-3.736679535E0,-7.026388550E-1,1.016497019E1
9.576281292E0,9.919422455E0,-4.645739136E0,8.129594421E-1,1.098356668E1
9.586314292E0,9.875413971E0,-4.982688446E0,1.772164764E0,1.120230125E1
9.596348292E0,9.387728119E0,-4.900209961E0,2.206411743E0,1.081710450E1
9.606382292E0,8.976533203E0,-4.762196960E0,2.371069336E0,1.043449271E1
9.616416292E0,8.639134827E0,-4.722978516E0,2.271676025E0,1.010453802E1
9.626450292E0,8.320896606E0,-4.695884857E0,1.865420837E0,9.734908825E0
9.636483292E0,7.891289978E0,-4.660708008E0,1.458566895E0,9.280197952E0
9.646517292E0,7.440128174E0,-4.645439758E0,1.085991669E0,8.838268818E0
9.656551292E0,6.888824615E0,-4.651427307E0,6.117778015E-1,8.334623726E0
9.666585292E0,6.368955688E0,-4.828808441E0,9.071136475E-2,7.993073006E0
9.676619292E0,6.021378479E0,-5.197940826E0,-5.614823914E-1,7.974387130E0
9.686653292E0,5.812263336E0,-5.679040375E0,-1.104253693E0,8.200809770E0
9.696686292E0,5.774541779E0,-6.153254242E0,-1.633403320E0,8.595107732E0
9.706720292E0,5.748196564E0,-6.518195343E0,-1.990410919E0,8.915737204E0
9.716754292E0,6.266568604E0,-6.528673553E0,-2.035616913E0,9.275623787E0
9.726788292E0,6.938820648E0,-6.249204712E0,-1.946851501E0,9.538869026E0
9.736822292E0,7.376360779E0,-5.768254852E0,-1.772763519E0,9.530275593E0
9.746855292E0,7.720944214E0,-5.111720123E0,-1.439257050E0,9.370919007E0
9.756889292E0,8.040379944E0,-4.346960449E0,-8.364605713E-1,9.178422581E0
9.766923292E0,8.375532990E0,-3.681743774E0,-2.341131592E-1,9.152027046E0
9.776957292E0,8.942104797E0,-3.260220337E0,2.941383362E-1,9.522436254E0
9.786991292E0,9.403445435E0,-3.102298737E0,9.162446594E-1,9.944272108E0
9.797024292E0,9.550888824E0,-3.048410797E0,1.314716034E0,1.011141751E1
9.807058292E0,9.446705475E0,-3.024460602E0,1.241518250E0,9.996448060E0
9.817092292E0,9.295669556E0,-3.046464844E0,8.208929443E-1,9.816531249E0
9.827126292E0,9.500294037E0,-3.226091309E0,2.935395813E-1,1.003740093E1
9.837160292E0,1.065035248E1,-3.806584167E0,-1.189576263E0,1.137256271E1
9.847194292E0,1.228689926E1,-4.506229248E0,-3.526366882E0,1.355393887E1
9.857227292E0,1.321616684E1,-4.812791748E0,-4.486170959E0,1.476332484E1
9.867261292E0,1.297606613E1,-4.898264008E0,-3.914659424E0,1.441165643E1
9.877295292E0,1.222477844E1,-4.737348633E0,-2.989882507E0,1.344719590E1
9.887329292E0,1.147423920E1,-4.332290955E0,-2.745141449E0,1.256832175E1
9.897363292E0,1.092158844E1,-3.999083862E0,-3.193908234E0,1.206129411E1
9.907396292E0,1.074345886E1,-3.524420929E0,-3.477119293E0,1.182936219E1
9.917430292E0,1.224019638E1,-2.956651611E0,-2.761307831E0,1.289143193E1
9.927464292E0,1.506706787E1,-2.475252686E0,-6.845265198E-1,1.528437067E1
9.937498292E0,1.645752640E1,-2.336790619E0,1.677860870E0,1.670706385E1
9.947532292E0,1.657428360E1,-2.262095947E0,3.173550568E0,1.702631428E1
9.957566292E0,1.602941666E1,-2.099833374E0,3.155587921E0,1.647146726E1
9.967599292E0,1.468102066E1,-1.746418304E0,2.077230377E0,1.492974315E1
9.977633292E0,1.326227097E1,-1.986668701E0,-5.361849976E-1,1.342096040E1
9.987667292E0,1.138502472E1,-4.319118347E0,-3.485501862E0,1.266579229E1
9.997701292E0,1.022119492E1,-6.821015625E0,-3.926484833E0,1.290024662E1
1.000773529E1,9.956694946E0,-8.077802124E0,-2.991080017E0,1.316560751E1
1.001776829E1,9.965526581E0,-8.690478058E0,-1.441352692E0,1.330088818E1
1.002780229E1,1.106424179E1,-8.848399658E0,1.191522217E-1,1.416777400E1
1.003783629E1,1.211790070E1,-8.624165955E0,1.401535492E0,1.493934595E1
1.004787029E1,1.268462219E1,-8.306376801E0,2.198627930E0,1.532088446E1
1.005790429E1,1.283685562E1,-7.875872040E0,3.322341156E0,1.542245679E1
1.006793829E1,1.256801468E1,-7.158713379E0,4.809199219E0,1.524239375E1
1.007797129E1,1.249691254E1,-6.383924561E0,6.859485626E0,1.561985463E1
1.008800529E1,1.244092896E1,-5.572761383E0,8.064479828E0,1.583881996E1
1.009803929E1,1.221504868E1,-4.732857971E0,6.802903290E0,1.476099088E1
1.010807329E1,1.214005463E1,-3.652853851E0,3.122057648E0,1.305647393E1
1.011810729E1,1.268596939E1,-2.943778381E0,-1.962419128E-1,1.302452154E1
1.012814029E1,1.299762131E1,-2.537074127E0,-2.768193512E0,1.352914632E1
1.013817429E1,1.299477722E1,-2.607577515E0,-2.018851776E0,1.340669452E1
1.014820829E1,1.262145355E1,-2.692900085E0,-4.197271729E-1,1.291235732E1
1.015824229E1,1.178514267E1,-3.008294220E0,1.425934753E0,1.224633463E1
1.016827629E1,1.055694672E1,-3.482807465E0,3.234324188E0,1.157756126E1
1.017831029E1,8.830437012E0,-4.050726471E0,3.952231293E0,1.048833328E1
1.018834329E1,7.039411469E0,-4.596790924E0,3.757635956E0,9.208888565E0
1.019837729E1,5.692362671E0,-5.044060822E0,3.234922943E0,8.265002650E0
1.020841129E1,4.665797424E0,-5.381309509E0,2.628983002E0,7.592082011E0
1.021844529E1,3.469485168E0,-5.436544647E0,1.783840485E0,6.691444680E0
1.022847929E1,2.790197754E0,-5.447172546E0,1.392853546E0,6.276697639E0
1.023851229E1,2.711311798E0,-5.365891571E0,1.772164764E0,6.267740579E0
1.024854629E1,2.664010162E0,-5.074447632E0,2.075434113E0,6.095440564E0
1.025858029E1,2.509830780E0,-4.578528900E0,2.157762909E0,5.649612217E0
1.026861429E1,2.495460663E0,-3.874393158E0,2.448757782E0,5.218683832E0
1.027864829E1,2.091301117E0,-2.971620483E0,2.346370697E0,4.325450740E0
1.028868129E1,1.682501221E0,-2.056273956E0,2.267185364E0,3.492735663E0
1.029871529E1,1.269809418E0,-1.197210388E0,1.743873596E0,2.467148919E0
1.030874929E1,7.979905701E-1,-5.304968262E-1,1.002914429E0,1.387102442E0
1.031878329E1,6.348298645E-1,-1.942959595E-1,9.006770325E-1,1.118918672E0
1.032881754E1,1.094074860E0,-1.035845947E-1,1.033151550E0,1.508353968E0
1.033885154E1,1.892514496E0,-1.369651794E-1,5.123844910E-1,1.965428311E0
1.034888454E1,3.347189484E0,-4.466711426E-1,-2.075434113E0,3.963662360E0
1.035891854E1,5.977369995E0,-1.802850952E0,-6.032455444E0,8.681574875E0
1.036895254E1,1.027358597E1,-4.841831360E0,-9.969867554E0,1.511251662E1
1.037898654E1,1.686258408E1,-9.526788940E0,-1.825438980E1,2.661445465E1
1.038902054E1,2.526925232E1,-1.530522263E1,-2.633039566E1,3.957366154E1
1.039905354E1,2.773537399E1,-1.771027130E1,-2.015977753E1,3.859172593E1
1.040908754E1,2.445180222E1,-1.574755280E1,-1.008363098E1,3.078239212E1
1.041912154E1,1.904938660E1,-1.056592804E1,-7.029681702E0,2.288961314E1
1.042915554E1,1.290601181E1,-5.236710205E0,-5.685476990E0,1.504370045E1
1.043918954E1,6.837032318E0,-1.505718842E0,-2.919229431E0,7.585123639E0
1.044922354E1,2.721939697E0,3.869453430E-1,-2.296224976E-1,2.758878197E0
1.045925654E1,5.601351929E-1,1.131946106E0,7.188052368E-1,1.453180784E0
1.046929054E1,-4.776567078E-1,8.264314270E-1,1.805245972E0,2.042071951E0
1.047932454E1,-7.065307617E-1,-3.891906738E-3,2.952011261E0,3.035386524E0
1.048935854E1,-9.086105347E-1,-1.065484314E0,3.116818542E0,3.416926653E0
1.049939254E1,-4.358935547E-1,-3.196602631E0,4.084556122E0,5.204985137E0
1.050942554E1,1.732946320E0,-6.502627716E0,4.517455902E0,8.105225351E0
1.051945954E1,7.281158752E0,-1.349623444E1,-4.668042755E0,1.602979226E1
1.052949354E1,1.252894592E1,-1.648671570E1,-2.173031158E0,2.082086321E1
1.053952754E1,1.413330963E1,-1.560415100E1,3.925736389E0,2.141614755E1
1.054956154E1,1.444181808E1,-1.319431229E1,4.747976532E0,2.012956203E1
1.055959454E1,1.101304825E1,-8.911717987E0,2.566413116E0,1.439765347E1
1.056962854E1,6.808591461E0,-5.200186157E0,1.243613892E0,8.657102822E0
1.057966254E1,4.784201202E0,-3.569776611E0,6.924600220E-1,6.009275088E0
1.058969654E1,4.044439545E0,-3.007246399E0,4.902305603E-1,5.063728679E0
1.059973054E1,4.352199554E0,-3.019520874E0,6.074368286E-1,5.331803332E0
1.060976454E1,5.614225159E0,-3.547922058E0,1.003363495E0,6.716696611E0
1.061979754E1,7.564519501E0,-4.462071075E0,1.369951172E0,8.888689429E0
1.062983154E1,9.834099884E0,-5.411097565E0,1.413360901E0,1.131313778E1
1.063986554E1,1.181268539E1,-6.121969299E0,1.344204712E0,1.337254391E1
1.064989954E1,1.310749283E1,-6.262826385E0,1.423090668E0,1.459638824E1
1.065993354E1,1.353470444E1,-5.852230225E0,1.447489929E0,1.481661398E1
1.066996654E1,1.291649002E1,-4.993765411E0,1.251846771E0,1.390469445E1
1.068000054E1,1.164727936E1,-3.991898804E0,9.824070740E-1,1.235149773E1
1.069003454E1,1.031819321E1,-3.180436249E0,4.507127380E-1,1.080663813E1
1.070006854E1,9.148675232E0,-2.620750122E0,-4.939727783E-3,9.516649311E0
1.071010254E1,8.147257690E0,-2.603835297E0,1.603166199E-1,8.554733634E0
1.072013654E1,7.606432343E0,-2.958447876E0,8.276289368E-1,8.203364948E0
1.073016954E1,7.212002563E0,-3.373235321E0,1.672322388E0,8.135622882E0
1.074020354E1,6.972350922E0,-3.612886963E0,2.122885437E0,8.134695579E0
1.075023754E1,6.952592010E0,-3.691323853E0,1.852697296E0,8.086834654E0
1.076027154E1,6.982380066E0,-3.790717163E0,1.334624634E0,8.056326142E0
1.077030554E1,7.070696411E0,-3.980971527E0,7.863148499E-1,8.152372236E0
1.078033954E1,7.279512177E0,-4.351451111E0,3.291654968E-1,8.487330218E0
1.079037254E1,7.501350861E0,-4.857249298E0,8.981323242E-2,8.937068977E0
1.080040654E1,7.658823395E0,-5.319787445E0,-2.409988403E-2,9.325143166E0
1.081044054E1,7.583679657E0,-5.494773560E0,-1.188528442E-1,9.365834699E0
1.082047454E1,7.263345795E0,-5.421276398E0,-1.350192261E-1,9.064472412E0
1.083050854E1,6.878196716E0,-5.301824799E0,-2.052232361E-1,8.686832152E0
1.084054154E1,6.546486511E0,-5.182522888E0,-5.852828979E-1,8.370040932E0
1.085057554E1,6.357130280E0,-5.185067596E0,-1.155596924E0,8.284529897E0
1.086060954E1,6.415059814E0,-5.106930084E0,-1.585053864E0,8.351414435E0
1.087064354E1,6.804699554E0,-4.759352875E0,-1.817370758E0,8.500483062E0
1.088067754E1,7.822582855E0,-4.093238068E0,-2.295626221E0,9.122351679E0
1.089071054E1,9.519304504E0,-3.469335480E0,-3.063978424E0,1.058496154E1
1.090074454E1,1.116423386E1,-3.072360992E0,-3.320844269E0,1.204605854E1
1.091077854E1,1.245949036E1,-3.132086792E0,-2.359692993E0,1.306204496E1
1.092081254E1,1.322709412E1,-3.334016876E0,-1.041833496E0,1.368053743E1
1.093084654E1,1.350237167E1,-3.196303253E0,-5.019062805E-1,1.388460677E1
1.094088054E1,1.332409241E1,-2.559826813E0,-1.069076843E0,1.360981547E1
1.095091354E1,1.296618668E1,-2.127974854E0,-2.496508484E0,1.337470854E1
1.096094754E1,1.271441025E1,-2.799478455E0,-4.119882660E0,1.365528252E1
1.097098154E1,1.275826904E1,-3.561992798E0,-5.088668060E0,1.418998817E1
1.098101554E1,1.289987457E1,-3.638184357E0,-5.398673401E0,1.444952677E1
1.099104954E1,1.305450302E1,-2.881208496E0,-5.015470276E0,1.427852771E1
1.100108254E1,1.383273468E1,-2.011666718E0,-3.975283356E0,1.453252316E1
1.101111654E1,1.483849319E1,-2.352358246E0,-1.469194794E0,1.509546299E1
1.102115054E1,1.518128036E1,-3.090772705E0,1.358874207E0,1.555219240E1
1.103118454E1,1.581925369E1,-3.657793579E0,2.906206512E0,1.649467422E1
1.104121854E1,1.648746414E1,-4.159699860E0,3.309318237E0,1.732313955E1
1.105125254E1,1.669912399E1,-4.401746521E0,2.516267395E0,1.745186856E1
1.106128554E1,1.570638840E1,-5.233117676E0,9.966275024E-1,1.658521702E1
1.107131954E1,1.239407639E1,-7.280410309E0,-3.730242920E-1,1.437903511E1
1.108135354E1,1.051218979E1,-8.031398621E0,1.446591797E0,1.330797226E1
1.109138754E1,1.058389069E1,-7.319479065E0,3.967948608E0,1.346618476E1
1.110142154E1,1.066726730E1,-6.992259521E0,5.123994598E0,1.374545763E1
1.111145454E1,1.121887024E1,-7.733218689E0,6.031557312E0,1.490118802E1
1.112148854E1,1.201596268E1,-8.490044861E0,6.168672180E0,1.595358070E1
1.113152254E1,1.238120316E1,-8.780890045E0,4.989873505E0,1.597801800E1
1.114155654E1,1.286140457E1,-8.760682068E0,3.573369141E0,1.596666042E1
1.115159054E1,1.338501572E1,-7.777676239E0,-1.197060699E0,1.552687501E1
1.116162354E1,1.466560272E1,-6.299200745E0,-6.718029785E0,1.731738310E1
1.117165754E1,1.444990128E1,-5.156327362E0,-5.116061096E0,1.617286122E1
1.118169154E1,1.393901367E1,-4.172273712E0,-9.898915100E-1,1.458368456E1
1.119172554E1,1.346884140E1,-2.834206238E0,2.331701202E0,1.395991562E1
1.120175954E1,1.192225754E1,-1.912273407E0,3.587589569E0,1.259634127E1
1.121179354E1,9.877659302E0,-1.552421722E0,4.553530884E0,1.098693815E1
1.122182654E1,8.062384186E0,-1.457818451E0,4.987628174E0,9.591856348E0
1.123186054E1,6.391708374E0,-1.572779388E0,4.060007172E0,7.733771989E0
1.124189454E1,5.001399536E0,-2.018702087E0,3.168311462E0,6.255186085E0
1.125192854E1,4.421056366E0,-2.482288055E0,2.663112030E0,5.727098660E0
1.126196254E1,3.942351837E0,-2.897075500E0,2.473157043E0,5.481942195E0
1.127199554E1,3.441942444E0,-3.249742126E0,1.929188232E0,5.111708023E0
1.128202954E1,2.923869781E0,-3.450624390E0,1.257684631E0,4.694421563E0
1.129206354E1,2.630779266E0,-3.618275757E0,1.152752838E0,4.619714072E0
1.130209754E1,2.184706879E0,-3.720363464E0,1.255139923E0,4.493264368E0
1.131213154E1,1.505419464E0,-3.599864044E0,1.237027588E0,4.093353900E0
1.132216554E1,9.821076965E-1,-3.176694031E0,1.300345917E0,3.570268897E0
1.133219854E1,7.090754700E-1,-2.481689301E0,1.374890900E0,2.924362288E0
1.134223254E1,5.879772949E-1,-1.706301727E0,1.209335175E0,2.172481173E0
1.135226654E1,4.076023865E-1,-9.569599915E-1,8.819659424E-1,1.363736065E0
1.136230054E1,2.258802795E-1,-3.147953796E-1,9.113049316E-1,9.902498221E-1
1.137233454E1,1.642085266E-1,1.094224548E-1,1.495540009E0,1.508501784E0
1.138236754E1,6.462062073E-1,2.844085693E-1,1.282233582E0,1.463760108E0
1.139240154E1,1.659149780E0,3.396437073E-1,-1.029259644E0,1.981794958E0
1.140243554E1,3.568429413E0,-5.249583435E-1,-5.148842926E0,6.286481783E0
1.141246954E1,7.371720428E0,-3.388653259E0,-1.103220840E1,1.369433661E1
1.142250354E1,1.388078476E1,-8.687933350E0,-2.099189713E1,2.662360074E1
1.143253654E1,2.229957779E1,-1.569591019E1,-2.828413284E1,3.928899257E1
1.144257054E1,2.594374969E1,-1.977507751E1,-2.258832733E1,3.967826068E1
1.145260454E1,2.373539200E1,-2.039224411E1,-1.176119247E1,3.342959918E1
1.146263854E1,2.008193939E1,-1.786954010E1,-7.322472839E0,2.786078537E1
1.147267254E1,1.315539322E1,-1.255184830E1,-6.549779663E0,1.932648132E1
1.148270654E1,6.471791840E0,-6.862030334E0,-6.078709259E0,1.122150864E1
1.149273954E1,2.540516968E0,-2.768492889E0,-4.164489899E0,5.609077951E0
1.150277354E1,1.178798676E0,4.468208313E-1,-2.201172638E0,2.536607213E0
1.151280754E1,1.523232422E0,2.753524017E0,1.094523926E0,3.331683381E0
1.152284154E1,2.910846863E0,2.107766876E0,6.713838501E0,7.615204402E0
1.153287554E1,5.142106934E0,1.907034302E-1,8.960067444E0,1.033249438E1
1.154290854E1,9.608518982E0,-1.529818726E0,3.751349030E0,1.042768440E1
1.155294254E1,1.297037796E1,-3.233276367E0,1.076261902E0,1.341056002E1
1.156297654E1,1.129042145E1,-4.396956482E0,5.501359863E0,1.330683295E1
1.157301054E1,8.756640472E0,-5.002447357E0,6.480024719E0,1.198724123E1
1.158304454E1,6.805447998E0,-5.871240692E0,5.189258881E0,1.037853542E1
1.159307854E1,5.692063293E0,-7.010970612E0,3.539240112E0,9.699459471E0
1.160311154E1,5.230722656E0,-7.990683289E0,2.188598785E0,9.798032638E0
1.161314554E1,5.780679016E0,-8.983718262E0,1.409618683E0,1.077545677E1
1.162317954E1,6.968908081E0,-1.021400986E1,1.218316498E0,1.242481277E1
1.163321354E1,8.266709290E0,-1.145971939E1,1.264869690E0,1.418673840E1
1.164324754E1,9.419611816E0,-1.229662903E1,1.582060089E0,1.557045556E1
1.165328054E1,9.718989258E0,-1.274330017E1,1.954635315E0,1.614531048E1
1.166331454E1,9.417516174E0,-1.192480225E1,1.196312256E0,1.524210230E1
1.167334854E1,7.658224640E0,-9.450747070E0,1.122665405E-1,1.216460557E1
1.168338254E1,6.286776581E0,-7.051835632E0,-4.638853455E-1,9.458706845E0
1.169341654E1,6.072422333E0,-5.515430603E0,-8.446934509E-1,8.246683864E0
1.170345054E1,6.226601715E0,-4.789290619E0,-4.212240601E-1,7.866721252E0
1.171348354E1,6.671177216E0,-4.451143799E0,7.891589355E-1,8.058539470E0
1.172351754E1,7.409292297E0,-4.158801727E0,1.867067413E0,8.699378419E0
1.173355154E1,8.192313995E0,-3.900289307E0,2.502196655E0,9.412080183E0
1.174358554E1,8.769214325E0,-3.504063263E0,3.072211304E0,9.930561994E0
1.175361954E1,9.179361420E0,-2.902015228E0,3.286116486E0,1.017255769E1
1.176365254E1,9.439819794E0,-2.456391907E0,3.124901733E0,1.024251286E1
1.177368654E1,9.455237732E0,-2.019600220E0,2.924169159E0,1.010104306E1
1.178372054E1,9.410630493E0,-1.706601105E0,2.555186462E0,9.899567236E0
1.179375454E1,9.424102478E0,-1.440155182E0,2.045346680E0,9.750446016E0
1.180378854E1,9.516161041E0,-1.229842529E0,1.682650909E0,9.741722009E0
1.181382254E1,9.630223846E0,-1.055006104E0,1.301992493E0,9.774939062E0
1.182385554E1,9.674531708E0,-9.339079285E-1,8.913963318E-1,9.760293807E0
1.183388954E1,9.801467743E0,-1.010099487E0,5.477110291E-1,9.868589477E0
1.184392354E1,1.012689102E1,-1.359622650E0,2.097138977E-1,1.021990584E1
1.185395754E1,1.030187714E1,-1.797761536E0,-1.204096069E0,1.052665504E1
1.186399154E1,1.019484970E1,-2.329306183E0,-4.233047333E0,1.128181357E1
1.187402454E1,1.025143204E1,-3.162174225E0,-5.445525970E0,1.203099986E1
1.188405854E1,1.067699707E1,-3.865262146E0,-3.513493652E0,1.188625911E1
1.189409254E1,1.070394104E1,-4.013603668E0,-2.157912598E0,1.163357017E1
1.190412654E1,9.839638367E0,-3.750600586E0,-1.669178925E0,1.066169059E1
1.191416054E1,8.792865143E0,-3.339405670E0,-1.283880157E0,9.492863420E0
1.192419354E1,7.999963989E0,-3.082839203E0,-1.072369995E0,8.640214048E0
1.193422754E1,7.508236542E0,-2.978506165E0,-8.243357849E-1,8.119399265E0
1.194426154E1,7.358847198E0,-3.015778656E0,-4.857398987E-1,7.967653120E0
1.195429554E1,7.651638336E0,-3.392545166E0,-5.149291992E-1,8.385826376E0
1.196432954E1,8.404871979E0,-3.984863434E0,-6.274951172E-1,9.322808573E0
1.197436354E1,9.645791473E0,-4.514162750E0,-1.243913269E-1,1.065056016E1
1.198439654E1,1.075767929E1,-4.446653137E0,5.864804077E-1,1.165522832E1
1.199443054E1,1.109881989E1,-3.664529572E0,9.636959839E-1,1.172779987E1
1.200446454E1,1.122141495E1,-2.652334442E0,1.137035522E0,1.158653879E1
1.201449854E1,1.155761581E1,-1.804647217E0,1.215173035E0,1.176060714E1
1.202453254E1,1.262429764E1,-1.242566071E0,1.603315887E0,1.278622239E1
1.203456554E1,1.453986420E1,-1.280437317E0,1.421743469E0,1.466521480E1
1.204459954E1,1.695224762E1,-2.539020081E0,-3.107537842E-1,1.714415032E1
1.205463354E1,1.881976410E1,-4.925806732E0,-3.913761292E0,1.984350322E1
1.206466754E1,1.712648529E1,-7.472460938E0,-7.322921906E0,2.006936362E1
1.207470154E1,1.389994492E1,-8.736881561E0,-6.182593231E0,1.754326159E1
1.208473454E1,1.242281662E1,-9.008267212E0,-4.004173279E0,1.585902439E1
1.209476854E1,1.191656937E1,-9.546248474E0,-3.033890991E0,1.556727272E1
1.210480254E1,1.184831131E1,-1.058793228E1,-2.787503357E0,1.613248170E1
1.211483654E1,1.187001617E1,-1.146510818E1,-1.925595703E0,1.661487010E1
1.212487054E1,1.222477844E1,-1.162856827E1,2.766247559E-1,1.687439863E1
1.213490454E1,1.317919373E1,-1.169682632E1,2.689606934E0,1.782528762E1
1.214493754E1,1.398107620E1,-1.179142960E1,4.781806183E0,1.890433744E1
1.215497154E1,1.445035034E1,-1.210188400E1,7.795788574E0,2.039712090E1
1.216500554E1,1.408930115E1,-1.226205093E1,1.048045578E1,2.141742873E1
1.217503954E1,1.294807434E1,-1.154174881E1,1.050485504E1,2.027847564E1
1.218507354E1,1.096290253E1,-9.109007721E0,8.772058411E0,1.673643517E1
1.219510654E1,9.688602448E0,-6.845414886E0,4.155658264E0,1.256973420E1
1.220514054E1,9.424701233E0,-5.505401459E0,-2.401156769E0,1.117586652E1
1.221517454E1,9.595346375E0,-5.509293365E0,-7.165449371E0,1.318205789E1
1.222520854E1,9.759405212E0,-5.747597809E0,-8.089028778E0,1.391809101E1
1.223524254E1,1.017104919E1,-5.539081421E0,-6.546187134E0,1.330354204E1
1.224527654E1,1.005069946E1,-5.234315186E0,-2.931354218E0,1.170501827E1
1.225530954E1,9.192384338E0,-4.856650543E0,2.153272247E0,1.061713547E1
1.226534354E1,7.582631836E0,-4.306095428E0,4.713697815E0,9.912502736E0
1.227537754E1,5.711971893E0,-3.746558990E0,5.533243561E0,8.790910731E0
1.228541154E1,4.076023865E0,-3.068469086E0,5.140310669E0,7.242393724E0
1.229544554E1,2.743045807E0,-2.315385132E0,3.377875671E0,4.929031615E0
1.230547854E1,2.318079529E0,-1.736538849E0,2.167792053E0,3.617786929E0
1.231551254E1,2.202370148E0,-1.397793274E0,1.606908417E0,3.063725667E0
1.232554654E1,2.060914307E0,-1.301543427E0,1.281185760E0,2.753692071E0
1.233558054E1,1.591789856E0,-1.303040314E0,1.025218048E0,2.298430127E0
1.234561454E1,1.236877899E0,-1.248104553E0,1.153650970E0,2.102032939E0
1.235564854E1,1.199006653E0,-1.155147858E0,1.932032318E0,2.550437689E0
1.236568154E1,1.033600616E0,-9.491761780E-1,2.163750458E0,2.578969115E0
1.237571554E1,8.137078857E-1,-6.328839111E-1,2.117646332E0,2.355225797E0
1.238574954E1,4.629872131E-1,-2.119592285E-1,1.784738617E0,1.855956843E0
1.239578354E1,1.598675537E-1,1.796264648E-1,1.221909027E0,1.245345322E0
1.240581754E1,1.293310547E-1,5.776487732E-1,1.634750519E0,1.738624136E0
1.241585054E1,2.874023438E-1,1.009051666E0,2.625989227E0,2.827826868E0
1.242588454E1,2.791694641E-1,1.354533234E0,1.722318420E0,2.208863195E0
1.243591854E1,-5.194198608E-2,1.670975189E0,-2.086660767E0,2.673763117E0
1.244595254E1,1.399739227E0,1.023571472E0,-6.966962128E0,7.179521555E0
1.245598654E1,7.635471954E0,-1.466500397E0,-1.400802017E1,1.602110123E1
1.246601954E1,1.887829239E1,-6.897506561E0,-3.079037109E1,3.676972222E1
1.247605354E1,2.745815048E1,-1.434706512E1,-3.518059158E1,4.687709814E1
1.248608754E1,2.594824036E1,-1.889146500E1,-1.850661530E1,3.704987769E1
1.249612154E1,2.518946823E1,-2.167552551E1,-9.264534302E0,3.449883059E1
1.250615554E1,2.276002029E1,-2.183344711E1,-7.428153076E0,3.240208936E1
1.251618954E1,1.384306320E1,-1.768108200E1,-6.962172089E0,2.351005954E1
1.252622254E1,4.498146057E0,-1.220666611E1,-4.522695007E0,1.377282780E1
1.253625654E1,-1.722917175E-1,-9.334438934E0,8.312214661E-1,9.372959179E0
1.254629054E1,-1.940265198E0,-6.471492462E0,2.609673157E0,7.242598823E0
1.255632454E1,-5.936654663E-1,-3.027005310E0,7.137906647E0,7.775918668E0
1.256635854E1,1.294957123E0,-6.574328613E-1,8.902137909E0,9.019822131E0
1.257639154E1,3.851790161E0,9.211843872E-1,2.175725555E0,4.518700014E0
1.258642554E1,6.148613892E0,9.086105347E-2,-1.535057831E0,6.337989513E0
1.259645954E1,6.140081635E0,-1.722767487E0,1.800755310E0,6.626556419E0
1.260649354E1,6.952292633E0,-2.404150543E0,3.269650726E0,8.050150841E0
1.261652754E1,7.688012695E0,-3.087778931E0,4.601131897E0,9.476831362E0
1.262656054E1,7.289691010E0,-4.114793243E0,6.677763519E0,1.070811113E1
1.263659454E1,6.937922516E0,-4.982239380E0,6.231391754E0,1.057297126E1
1.264662854E1,7.692203979E0,-5.828130341E0,5.202880554E0,1.096389855E1
1.265666254E1,9.349707184E0,-6.851103058E0,4.978796539E0,1.261519134E1
1.266669654E1,1.150537445E1,-7.951764221E0,4.468358002E0,1.468231653E1
1.267673054E1,1.378947464E1,-8.758436737E0,2.525847473E0,1.652996462E1
1.268676354E1,1.533111877E1,-8.834179230E0,5.742059326E-1,1.770354874E1
1.269679754E1,1.557106979E1,-8.179291077E0,-1.751358032E-1,1.758947667E1
1.270683154E1,1.431113983E1,-6.637347565E0,-1.644180908E0,1.586084603E1
1.271686554E1,1.184412003E1,-4.639751587E0,-3.022215271E0,1.307456535E1
1.272689954E1,9.482032013E0,-3.541335754E0,-2.450703735E0,1.041421811E1
1.273693254E1,7.903714142E0,-3.306773529E0,-1.347797241E0,8.672946778E0
1.274696654E1,7.065157928E0,-3.388653259E0,-5.171745300E-1,7.852827323E0
1.275700054E1,6.948550415E0,-3.641327820E0,2.472857666E-1,7.848743301E0
1.276703454E1,7.141648865E0,-3.816613312E0,1.046024780E0,8.164793538E0
1.277706854E1,7.475903778E0,-3.953428802E0,2.018851776E0,8.694509710E0
1.278710254E1,7.852071533E0,-3.902834015E0,2.794688416E0,9.203120343E0
1.279713554E1,8.426726532E0,-3.722459106E0,2.766397247E0,9.618699266E0
1.280716954E1,8.573271790E0,-3.351979523E0,2.224973145E0,9.470335865E0
1.281720354E1,8.201744385E0,-2.952759705E0,1.626218262E0,8.867467883E0
1.282723754E1,7.930807800E0,-2.693648529E0,8.711883545E-1,8.420951485E0
1.283727154E1,7.808512115E0,-2.667902069E0,3.135978699E-1,8.257657448E0
1.284730454E1,7.973319397E0,-2.859803009E0,1.258882141E-1,8.471608070E0
1.285733854E1,8.178991699E0,-3.098855896E0,-5.388793945E-2,8.746525996E0
1.286737254E1,8.001460876E0,-3.136128387E0,-7.665559387E-1,8.628226088E0
1.287740654E1,7.871231689E0,-3.026855621E0,-1.809736633E0,8.625154488E0
1.288744054E1,8.079598389E0,-2.964136047E0,-1.867815857E0,8.806517399E0
1.289747354E1,8.814120941E0,-3.114273834E0,-8.137078857E-1,9.383472172E0
1.290750754E1,9.789642334E0,-3.408412170E0,2.251318359E-1,1.036846444E1
1.291754154E1,1.067505112E1,-3.655248871E0,6.782395935E-1,1.130387410E1
1.292757554E1,1.096365097E1,-3.662433929E0,4.013154602E-1,1.156616267E1
1.293760954E1,1.029304550E1,-3.251538391E0,-7.511380005E-1,1.082051274E1
1.294764354E1,8.861871643E0,-2.648592224E0,-2.948568420E0,9.707824963E0
1.295767654E1,7.570357361E0,-2.286345520E0,-5.543721771E0,9.657667290E0
1.296771054E1,7.210056610E0,-2.462080078E0,-5.406906281E0,9.342450972E0
1.297774454E1,8.342002716E0,-3.515289917E0,-2.923869781E0,9.512901083E0
1.298777854E1,9.890682220E0,-4.611011353E0,-1.143621826E0,1.097246059E1
1.299781254E1,1.131766479E1,-5.264103241E0,-2.395019531E-1,1.248429736E1
1.300784554E1,1.212403793E1,-5.365592194E0,1.782792664E-1,1.325947431E1
1.301787954E1,1.243988113E1,-4.822970581E0,2.213896179E-1,1.334393874E1
1.302791354E1,1.233045868E1,-3.727698212E0,2.234852600E-1,1.288355117E1
1.303794754E1,1.139999359E1,-2.236648865E0,-2.016905823E0,1.179111365E1
1.304798154E1,1.047761169E1,-1.189426575E0,-6.665339355E0,1.247484794E1
1.305801554E1,1.000728973E1,-1.867366791E0,-9.500443726E0,1.392448698E1
1.306804854E1,1.046009811E1,-3.805236969E0,-4.876409454E0,1.215207184E1
1.307808254E1,1.290705963E1,-5.685776367E0,5.897735596E-1,1.411623442E1
1.308811654E1,1.443897400E1,-6.766678619E0,2.764451294E0,1.618376040E1
1.309815054E1,1.541225006E1,-7.933651886E0,3.036735077E0,1.759835345E1
1.310818454E1,1.645558044E1,-9.090146942E0,2.822530518E0,1.901009147E1
1.311821754E1,1.671693695E1,-9.980196075E0,1.852846985E0,1.955743686E1
1.312825154E1,1.569501205E1,-1.102487366E1,-8.053253174E-1,1.919712977E1
1.313828554E1,1.335537735E1,-1.205832458E1,-2.687211914E0,1.819314167E1
1.314831954E1,1.295645691E1,-1.166883453E1,-2.023791504E-1,1.743767279E1
1.315835354E1,1.323682388E1,-1.070214478E1,2.286345520E0,1.717488821E1
1.316838654E1,1.301154236E1,-1.029349457E1,3.150348816E0,1.688730182E1
1.317842054E1,1.273731262E1,-1.056293427E1,3.128344574E0,1.684046475E1
1.318845454E1,1.267953278E1,-1.102008362E1,3.306623840E0,1.712152317E1
1.319848854E1,1.227073288E1,-1.029424301E1,4.212689667E0,1.656167500E1
1.320852254E1,1.120509888E1,-8.135881348E0,3.307671661E0,1.423683595E1
1.321855654E1,1.025128235E1,-6.422693939E0,8.581654358E-1,1.212749913E1
1.322858954E1,9.444160767E0,-5.714815979E0,-7.297325134E-1,1.106272136E1
1.323862354E1,8.888815613E0,-5.267995148E0,-8.837622070E-1,1.037033517E1
1.324865754E1,8.450077972E0,-4.791685638E0,-2.383044434E-1,9.717039570E0
1.325869154E1,7.789651337E0,-4.301155701E0,5.108876038E-1,8.912890353E0
1.326872554E1,6.736142120E0,-3.917503510E0,1.418749695E0,7.920561540E0
1.327875854E1,5.635331268E0,-3.661386108E0,2.175126801E0,7.063560245E0
1.328879254E1,4.728367310E0,-3.470982056E0,2.006128235E0,6.199171262E0
1.329882654E1,4.172573090E0,-3.285068665E0,1.638941803E0,5.557712889E0
1.330886054E1,3.949985962E0,-3.039429474E0,1.617236938E0,5.239845030E0
1.331889454E1,3.966302032E0,-2.683769073E0,1.650018768E0,5.065247298E0
1.332892754E1,4.060007172E0,-2.301464081E0,1.496887207E0,4.901129100E0
1.333896067E1,4.304748230E0,-1.974992981E0,1.500928802E0,4.968323849E0
1.334899467E1,4.565505981E0,-1.732347565E0,1.245260468E0,5.039399427E0
1.335902867E1,4.719535675E0,-1.632056122E0,9.181906128E-1,5.077469663E0
1.336906267E1,4.905598755E0,-1.635498962E0,9.487271118E-1,5.257360472E0
1.337909667E1,4.969515839E0,-1.750310211E0,1.273102570E0,5.420374863E0
1.338912967E1,4.192182312E0,-1.751208344E0,1.181942139E0,4.694476586E0
1.339916367E1,3.050207062E0,-1.582209778E0,1.034798126E0,3.588587196E0
1.340919767E1,2.067949677E0,-1.362616425E0,1.254690857E0,2.776218387E0
1.341923167E1,1.277293854E0,-1.240919495E0,1.312770081E0,2.212402781E0
1.342926567E1,9.050180054E-1,-1.189276886E0,1.316512299E0,1.991642974E0
1.343929867E1,8.330177307E-1,-1.116228790E0,1.355581055E0,1.943575377E0
1.344933267E1,8.524772644E-1,-1.024170227E0,1.422342224E0,1.949025280E0
1.345936667E1,1.037791901E0,-9.839039612E-1,1.223106537E0,1.881772737E0
1.346940067E1,1.611249390E0,-1.168021088E0,5.739065552E-1,2.071175171E0
1.347943467E1,2.820285187E0,-1.622026978E0,-1.563798065E0,3.609770691E0
1.348946867E1,4.784201202E0,-3.446882172E0,-7.073091431E0,9.208593825E0
1.349950167E1,8.665180664E0,-7.172185364E0,-1.335148544E1,1.745817179E1
1.350953567E1,1.813179474E1,-1.176972473E1,-2.615600830E1,3.393265641E1
1.351956967E1,2.871344009E1,-1.718246887E1,-3.669858490E1,4.966371928E1
1.352960367E1,2.622950546E1,-1.886332352E1,-2.199286560E1,3.908321978E1
1.353963767E1,2.256811935E1,-1.692156143E1,-9.581425323E0,2.979031661E1
1.354967067E1,1.806712921E1,-1.334175568E1,-6.329138489E0,2.333412943E1
1.355970467E1,1.026101212E1,-9.354646912E0,-5.332810364E0,1.487402618E1
1.356973867E1,3.243006134E0,-6.586902466E0,-5.545967102E0,9.201202311E0
1.357977267E1,-9.623487854E-1,-5.589825897E0,-5.841153259E0,8.141949407E0
1.358980667E1,-3.215313721E0,-5.729186096E0,-4.184548187E0,7.789239962E0
1.359983967E1,-1.536554718E0,-7.018455048E0,3.726500702E0,8.093609772E0
1.360987367E1,2.343376923E0,-7.396119690E0,1.172377029E1,1.405847758E1
1.361990767E1,4.071982269E0,-6.337670746E0,1.182750458E1,1.402273064E1
1.362994167E1,5.007836151E0,-6.293063507E0,7.117848358E0,1.073987134E1
1.363997567E1,7.101083221E0,-5.606890411E0,1.787732391E0,9.222721405E0
1.365000967E1,8.334817657E0,-4.135899353E0,1.998793488E0,9.516828476E0
1.366004267E1,9.134454803E0,-3.883823547E0,4.109105072E0,1.074276940E1
1.367007667E1,9.460327148E0,-4.075724487E0,5.732628937E0,1.178865363E1
1.368011067E1,9.761201477E0,-4.246519318E0,6.051166534E0,1.224461502E1
1.369014467E1,1.046593597E1,-4.428690491E0,5.077441406E0,1.244706899E1
1.370017867E1,1.154279663E1,-4.656516724E0,3.895199890E0,1.304192793E1
1.371021167E1,1.283401154E1,-4.840334473E0,2.381846924E0,1.392170552E1
1.372024567E1,1.362227234E1,-5.005291443E0,2.478845215E-1,1.451484388E1
1.373027967E1,1.338127350E1,-5.386548615E0,-9.882449341E-1,1.445856198E1
1.374031367E1,1.283640656E1,-5.649701385E0,-1.233584747E0,1.407885614E1
1.375034767E1,1.174293045E1,-5.456752625E0,-1.747166748E0,1.306618370E1
1.376038167E1,1.010443771E1,-4.947361908E0,-2.666554871E0,1.156229070E1
1.377041467E1,8.609197083E0,-4.648882599E0,-2.961441650E0,1.022254961E1
1.378044867E1,7.696395264E0,-4.497547302E0,-2.654579773E0,9.301033575E0
1.379048267E1,7.320526886E0,-4.274810486E0,-1.836530914E0,8.673924393E0
1.380051667E1,7.212301941E0,-4.184248810E0,-3.303630066E-1,8.344721512E0
1.381055067E1,7.360194397E0,-4.129612427E0,1.010997620E0,8.499898620E0
1.382058367E1,7.834258575E0,-4.146227875E0,2.014810181E0,9.089899509E0
1.383061767E1,8.374934235E0,-3.988755341E0,2.436632996E0,9.590978728E0
1.384065167E1,8.627908173E0,-3.550616455E0,2.200873260E0,9.586006455E0
1.385068567E1,8.543633423E0,-2.995720367E0,1.573827209E0,9.189393052E0
1.386071967E1,8.055498505E0,-2.443069611E0,7.640112305E-1,8.452417313E0
1.387075267E1,7.411537628E0,-1.956581268E0,2.439926147E-1,7.669330653E0
1.388078667E1,7.107519836E0,-1.779200134E0,1.863624573E-1,7.329196566E0
1.389082067E1,7.371271362E0,-1.887724457E0,5.179229736E-1,7.626754836E0
1.390085467E1,7.798932037E0,-1.978286133E0,9.743238831E-1,8.104706286E0
1.391088867E1,8.326734467E0,-2.021246796E0,1.136137390E0,8.643538260E0
1.392092267E1,8.922495575E0,-2.105072479E0,1.004111938E0,9.222282701E0
1.393095567E1,9.805509338E0,-2.462529144E0,6.629713440E-1,1.013171230E1
1.394098967E1,1.083417023E1,-3.233276367E0,2.839595032E-1,1.130990511E1
1.395102367E1,1.130164810E1,-4.151317291E0,3.150947571E-1,1.204408443E1
1.396105767E1,1.090811646E1,-4.728067932E0,2.525248718E-1,1.189140024E1
1.397109167E1,9.673932953E0,-4.941973114E0,-3.028202820E-1,1.086737214E1
1.398112467E1,7.974816284E0,-5.063670044E0,-1.915716248E0,9.638901277E0
1.399115867E1,5.867648163E0,-5.252726898E0,-5.541177063E0,9.629386173E0
1.400119267E1,4.355792084E0,-5.539231110E0,-8.822204132E0,1.129102704E1
1.401122667E1,5.713169403E0,-6.009104004E0,-7.134613495E0,1.093857145E1
1.402126067E1,8.456664276E0,-6.392307129E0,-3.931873627E0,1.130647564E1
1.403129367E1,1.048838928E1,-6.416556702E0,-2.035317535E0,1.246278569E1
1.404132767E1,1.138158188E1,-6.262976074E0,-1.092877350E0,1.303685761E1
1.405136167E1,1.144654678E1,-5.982160034E0,-6.715036011E-1,1.293292655E1
1.406139567E1,1.098984650E1,-5.479804688E0,-6.465055847E-1,1.229727429E1
1.407142967E1,1.035052597E1,-4.583917694E0,-8.984317017E-1,1.135574167E1
1.408146367E1,1.021056702E1,-3.419788513E0,-1.111738129E0,1.082527570E1
1.409149667E1,1.103145996E1,-2.437082062E0,-3.122506714E-1,1.130176881E1
1.410153067E1,1.262953674E1,-1.748663635E0,4.912783813E-1,1.275948186E1
1.411156467E1,1.436622528E1,-1.532812500E0,1.824256439E0,1.456248106E1
1.412159867E1,1.564890793E1,-1.391356659E0,2.195933533E0,1.586336398E1
1.413163267E1,1.652428757E1,-1.366358643E0,1.511407013E0,1.664942542E1
1.414166567E1,1.716914658E1,-1.377285919E0,4.992118835E-1,1.723153281E1
1.415169967E1,1.734068985E1,-1.417103119E0,-1.617386627E0,1.747351268E1
1.416173367E1,1.586431000E1,-2.664758606E0,-4.905149689E0,1.681778117E1
1.417176767E1,1.314431625E1,-5.335654449E0,-5.399571533E0,1.517885473E1
1.418180167E1,1.206865311E1,-7.247029724E0,-2.874771881E0,1.436788575E1
1.419183567E1,1.163575333E1,-8.361312561E0,1.727407837E-1,1.432941529E1
1.420186867E1,1.099284027E1,-9.143735504E0,2.857707367E0,1.458138977E1
1.421190267E1,1.034678375E1,-9.576784973E0,4.368216248E0,1.475981225E1
1.422193667E1,9.896220703E0,-9.873318329E0,4.421355743E0,1.466171837E1
1.423197067E1,1.002959335E1,-1.031789383E1,3.607947235E0,1.483472140E1
1.424200467E1,1.020847137E1,-1.084210373E1,2.975362701E0,1.518607534E1
1.425203767E1,1.044872177E1,-1.113728989E1,3.162174225E0,1.559533130E1
1.426207167E1,1.083851120E1,-1.103041214E1,4.574636993E0,1.612670520E1
1.427210567E1,1.092563004E1,-1.086455704E1,5.675597534E0,1.642012176E1
1.428213967E1,1.037702087E1,-9.662257233E0,2.879561920E0,1.446836735E1
1.429217367E1,1.047925827E1,-6.596931610E0,-1.820214844E0,1.251589160E1
1.430220667E1,1.055664734E1,-4.272265778E0,-4.668940887E0,1.230829261E1
1.431224067E1,1.044767395E1,-3.077749786E0,-4.089196472E0,1.163391432E1
1.432227467E1,1.004231689E1,-2.152074738E0,-2.450853424E0,1.055870431E1
1.433230917E1,9.947114868E0,-1.492097168E0,9.795629883E-1,1.010598792E1
1.434234317E1,9.523645477E0,-8.794212341E-1,3.471431122E0,1.017467635E1
1.435237717E1,8.194409637E0,-4.099974060E-1,3.977528687E0,9.117959291E0
1.436241017E1,6.461014252E0,-2.445913696E-1,3.274740143E0,7.247651558E0
1.437244417E1,4.651876373E0,-3.920347595E-1,2.199975128E0,5.160768897E0
1.438247817E1,3.330574036E0,-9.270222473E-1,1.422192535E0,3.738278382E0
1.439251217E1,2.732268219E0,-1.767075348E0,1.225950623E0,3.477182744E0
1.440254617E1,2.738555145E0,-2.660267944E0,1.316811676E0,4.038651113E0
1.441257917E1,2.835703125E0,-3.420237579E0,1.241368561E0,4.613050316E0
1.442261317E1,2.819087677E0,-3.852987671E0,9.794132996E-1,4.873604388E0
1.443264717E1,2.725981293E0,-3.930825806E0,6.858737183E-1,4.832472274E0
1.444268117E1,2.461780701E0,-3.807781677E0,4.715194702E-1,4.558716500E0
1.445271517E1,2.020348663E0,-3.449127502E0,5.870791626E-1,4.040167223E0
1.446274817E1,1.475930786E0,-2.971171417E0,7.234455872E-1,3.395527175E0
1.447278217E1,8.596623230E-1,-2.424807587E0,3.800596619E-1,2.600606946E0
1.448281617E1,3.339555359E-1,-1.869761810E0,1.204994202E-1,1.903169892E0
1.449285017E1,-3.457809448E-2,-1.463955688E0,3.339555359E-1,1.501961452E0
1.450288417E1,-2.005828857E-1,-1.291364594E0,3.532653809E-1,1.353754940E0
1.451291817E1,1.202000427E-1,-1.302890625E0,-5.872288513E-1,1.434158204E0
1.452295117E1,7.026388550E-1,-1.320853271E0,-3.056044922E0,3.402611540E0
1.453298517E1,2.730172577E0,-1.829196167E0,-7.332651672E0,8.035395539E0
1.454301917E1,7.783663788E0,-3.666026459E0,-1.359622650E1,1.608982744E1
1.455305317E1,1.535731430E1,-7.345375214E0,-2.445808914E1,2.979932489E1
1.456308717E1,2.287198746E1,-1.183573746E1,-3.010988617E1,3.962092549E1
1.457312017E1,2.552941132E1,-1.485525833E1,-2.109608047E1,3.629702679E1
1.458315417E1,2.503933044E1,-1.546194672E1,-9.767338715E0,3.100710839E1
1.459318817E1,2.049537964E1,-1.390293869E1,-5.588478699E0,2.538864677E1
1.460322217E1,1.365280884E1,-1.103505249E1,-4.635709991E0,1.815657952E1
1.461325617E1,8.531209259E0,-8.019423523E0,-3.685485992E0,1.227499459E1
1.462328917E1,5.262306976E0,-5.917644196E0,-1.882485352E0,8.139664529E0
1.463332317E1,3.582649841E0,-5.134023743E0,7.493417358E-1,6.305163972E0
1.464335717E1,3.478316803E0,-5.183720398E0,3.143762512E0,6.989484078E0
1.465339117E1,4.627626801E0,-5.019960938E0,6.104755096E0,9.158764786E0
1.466342517E1,6.103557587E0,-4.082909546E0,6.857689362E0,1.004746082E1
1.467345917E1,7.551346893E0,-3.074905701E0,5.675298157E0,9.934127749E0
1.468349217E1,9.675729218E0,-2.399959259E0,4.233197021E-1,9.977912603E0
1.469352617E1,1.036145325E1,-2.151326294E0,-2.613115997E0,1.090028869E1
1.470356017E1,8.237220612E0,-2.390379181E0,-5.891748047E-1,8.597257876E0
1.471359417E1,6.328689423E0,-2.254162445E0,-2.924917603E-1,6.724515564E0
1.472362817E1,4.639003143E0,-3.229085083E0,1.985770569E0,5.990878516E0
1.473366117E1,3.917054443E0,-4.648583221E0,4.175566864E0,7.374822040E0
1.474369517E1,4.032614136E0,-5.860313416E0,4.007765808E0,8.165012974E0
1.475372917E1,5.322930908E0,-7.443421326E0,2.440375214E0,9.470667646E0
1.476376317E1,7.589816895E0,-9.229357452E0,1.647024994E0,1.206229874E1
1.477379717E1,1.029469208E1,-1.103924377E1,1.357227631E0,1.515544968E1
1.478383117E1,1.246877106E1,-1.245365250E1,2.869532776E-1,1.762515402E1
1.479386417E1,1.278341675E1,-1.178020294E1,-1.169068909E-1,1.738397516E1
1.480389817E1,1.067520081E1,-9.069639587E0,3.261717224E-1,1.401159029E1
1.481393217E1,8.601263580E0,-6.578070831E0,2.649490356E-2,1.082836336E1
1.482396617E1,7.283553772E0,-4.780009918E0,-2.824626160E-1,8.716560990E0
1.483400017E1,6.600374451E0,-3.821103973E0,1.471440125E-1,7.628068551E0
1.484403317E1,6.693630524E0,-3.532204742E0,1.108145599E0,7.649127179E0
1.485406717E1,7.366331635E0,-3.481609955E0,1.925446014E0,8.372084088E0
1.486410117E1,8.359216919E0,-3.494932251E0,2.448009338E0,9.385297473E0
1.487413517E1,9.185049591E0,-3.328328705E0,2.824177094E0,1.016950757E1
1.488416917E1,9.558073883E0,-2.919379120E0,2.889890442E0,1.040341375E1
1.489420317E1,9.518705750E0,-2.447859650E0,2.843636627E0,1.023152214E1
1.490423617E1,9.148375854E0,-2.024689636E0,2.609074402E0,9.726223220E0
1.491427017E1,8.777447205E0,-1.645977173E0,2.227368164E0,9.204020275E0
1.492430417E1,8.597671051E0,-1.414408722E0,1.872905273E0,8.912254131E0
1.493433817E1,8.670569458E0,-1.287622375E0,1.434017944E0,8.882181803E0
1.494437217E1,8.857380981E0,-1.276695099E0,1.083746338E0,9.014302766E0
1.495440517E1,9.192983093E0,-1.302291870E0,8.481362915E-1,9.323424126E0
1.496443917E1,9.682914276E0,-1.411414948E0,7.030879211E-1,9.810466536E0
1.497447317E1,1.030397278E1,-1.639989624E0,-6.271957397E-2,1.043385618E1
1.498450717E1,1.088057373E1,-2.042053528E0,-2.525847473E0,1.135503293E1
1.499454117E1,1.103160965E1,-2.780318298E0,-5.922583923E0,1.282589496E1
1.500457417E1,1.048764084E1,-3.614234161E0,-6.592590637E0,1.290409045E1
1.501460817E1,9.875713348E0,-4.078119507E0,-4.872218170E0,1.174305253E1
1.502464217E1,9.249715118E0,-4.204456787E0,-2.910697174E0,1.056914588E1
1.503467617E1,8.715326385E0,-4.088597717E0,-6.685098267E-1,9.649893817E0
1.504471017E1,8.683292999E0,-3.819756775E0,1.271006927E0,9.571080281E0
1.505474417E1,9.048683167E0,-3.638783112E0,2.355950775E0,1.003343977E1
1.506477717E1,9.293274536E0,-3.575913849E0,2.752925262E0,1.033105556E1
1.507481117E1,9.106163635E0,-3.510350189E0,2.606230316E0,1.010134699E1
1.508484517E1,8.869505768E0,-3.525169373E0,2.180216217E0,9.790214217E0
1.509487917E1,8.934320984E0,-3.670068054E0,1.768871613E0,9.819388868E0
1.510491317E1,9.255253601E0,-3.771257629E0,1.370699615E0,1.008766181E1
1.511494617E1,9.414971466E0,-3.722908173E0,9.072633362E-1,1.016488366E1
1.512498017E1,9.407936096E0,-3.623215485E0,-5.718109131E-2,1.008167752E1
1.513501417E1,9.270671539E0,-3.670966187E0,-1.573078766E0,1.009435091E1
1.514504817E1,8.835227051E0,-3.730841675E0,-4.045038300E0,1.040878242E1
1.515508217E1,8.872050476E0,-4.001478882E0,-5.369184723E0,1.111545129E1
1.516511517E1,1.062595322E1,-4.725074158E0,-2.661914520E0,1.192992022E1
1.517514917E1,1.296379166E1,-5.461842041E0,-9.639953613E-2,1.406772567E1
1.518518317E1,1.433104843E1,-5.967789917E0,1.865121460E-1,1.552508462E1
1.519521717E1,1.521960068E1,-6.479425964E0,-7.171586609E-1,1.655697805E1
1.520525117E1,1.515852768E1,-6.450086975E0,-2.808459778E0,1.671143410E1
1.521528517E1,1.406100998E1,-6.194718018E0,-7.281009064E0,1.700292992E1
1.522531817E1,1.292277695E1,-6.837331696E0,-8.720266113E0,1.702322854E1
1.523535217E1,1.249077530E1,-7.762108612E0,-3.561394043E0,1.513120369E1
1.524538617E1,1.242805573E1,-8.131540375E0,1.340462494E0,1.491225528E1
1.525542017E1,1.216026260E1,-8.383167114E0,3.823049927E0,1.525664407E1
1.526545417E1,1.198362991E1,-9.086255035E0,4.096381531E0,1.558678152E1
1.527548717E1,1.256292526E1,-9.945917358E0,3.382366333E0,1.637646987E1
1.528552117E1,1.343007202E1,-1.076561279E1,3.315156097E0,1.752870541E1
1.529555517E1,1.420111862E1,-1.181672699E1,3.812122650E0,1.886369757E1
1.530558917E1,1.410292282E1,-1.230351471E1,3.250490570E0,1.899564674E1
1.531562317E1,1.423779236E1,-1.119357285E1,5.282514954E-1,1.811877076E1
1.532565617E1,1.347767303E1,-8.735534363E0,-2.508034515E0,1.625569033E1
1.533569029E1,1.240575211E1,-6.888375549E0,-2.509232025E0,1.441001903E1
1.534572429E1,1.104044128E1,-6.085594940E0,-1.204245758E0,1.266396531E1
1.535575829E1,9.819580078E0,-5.596861267E0,1.547781372E-1,1.130367043E1
1.536579229E1,8.564889221E0,-5.090015259E0,9.166937256E-1,1.000529410E1
1.537582629E1,7.427554321E0,-4.348607025E0,1.521286469E0,8.740323723E0
1.538585929E1,6.676116943E0,-3.563938751E0,2.144440613E0,7.865800811E0
1.539589329E1,6.083199921E0,-2.951711884E0,2.384391632E0,7.169605831E0
1.540592729E1,5.485792236E0,-2.412682800E0,2.221979370E0,6.391568436E0
1.541596129E1,4.808151398E0,-1.879641266E0,1.671723633E0,5.426419727E0
1.542599529E1,4.122726746E0,-1.336420898E0,8.822653198E-1,4.422814571E0
1.543602829E1,3.712729340E0,-9.286688232E-1,2.059716797E-1,3.832650423E0
1.544606229E1,3.775748291E0,-7.120692444E-1,3.152444458E-1,3.855216833E0
1.545609629E1,3.863316193E0,-7.484436035E-1,4.553530884E-1,3.961404583E0
1.546613029E1,4.035158844E0,-9.684860229E-1,5.037025452E-1,4.180213909E0
1.547616429E1,4.413721619E0,-1.245709534E0,9.550140381E-1,4.684525865E0
1.548619829E1,4.723577271E0,-1.459165649E0,1.211879883E0,5.090186585E0
1.549623129E1,4.534221039E0,-1.464853821E0,1.299747162E0,4.939058598E0
1.550626529E1,3.877686310E0,-1.347797241E0,1.265169067E0,4.295772490E0
1.551629929E1,3.009641418E0,-1.205742645E0,1.217418365E0,3.463215886E0
1.552633329E1,2.282453613E0,-1.066981201E0,1.612746277E0,2.991486910E0
1.553636729E1,1.572629700E0,-9.141490173E-1,1.882784729E0,2.617959307E0
1.554640029E1,1.030906219E0,-7.441026306E-1,1.463806000E0,1.938861615E0
1.555643429E1,2.573149109E-1,-5.815406799E-1,1.602567444E0,1.724129617E0
1.556646829E1,3.844006348E-1,-6.541397095E-1,8.891510010E-1,1.168867875E0
1.557650229E1,1.083896027E0,-1.020278320E0,-1.496288452E0,2.110610712E0
1.558653629E1,2.482737122E0,-1.994452515E0,-5.645360413E0,6.481660176E0
1.559656929E1,6.268514557E0,-3.705993347E0,-1.243524078E1,1.441054735E1
1.560660329E1,1.278641052E1,-6.208339691E0,-2.148122955E1,2.575808609E1
1.561663729E1,2.045690964E1,-9.652377777E0,-2.911744995E1,3.687111933E1
1.562667129E1,2.318558533E1,-1.232342331E1,-2.237427246E1,3.449704621E1
1.563670529E1,2.280447784E1,-1.240994339E1,-8.989256744E0,2.747467273E1
1.564673929E1,2.035512131E1,-1.029978149E1,-3.158731384E0,2.303028541E1
1.565677229E1,1.429841629E1,-6.564598846E0,-4.080215149E0,1.625382484E1
1.566680629E1,7.940836945E0,-3.404819641E0,-5.514831848E0,1.025002724E1
1.567684029E1,4.744683380E0,-1.856738892E0,-4.332590332E0,6.688111742E0
1.568687429E1,3.625909882E0,-1.797761536E0,-2.682122498E0,4.855198256E0
1.569690829E1,4.683161316E0,-3.363505554E0,-2.024090881E0,6.110819374E0
1.570694129E1,6.800508270E0,-6.266867981E0,3.618874512E0,9.930599164E0
1.571697529E1,8.877139893E0,-7.856711884E0,9.139693909E0,1.496881889E1
1.572700929E1,1.095032867E1,-7.622598724E0,4.950355682E0,1.423094272E1
1.573704329E1,1.398706375E1,-6.456822968E0,-5.558091888E0,1.637745098E1
1.574707729E1,1.143457169E1,-4.915478210E0,-2.754122772E0,1.274741338E1
1.575711029E1,6.844965820E0,-3.244652710E0,2.093097382E0,7.858904818E0
1.576714429E1,3.974385223E0,-1.866468658E0,2.705473938E0,5.157424976E0
1.577717829E1,2.149679718E0,-1.827250214E0,2.768941956E0,3.953100781E0
1.578721229E1,1.736987915E0,-3.208877106E0,2.502645721E0,4.424619182E0
1.579724629E1,2.278561707E0,-4.942272491E0,1.871109009E0,5.754906581E0
1.580728029E1,3.699257355E0,-6.904841309E0,1.232985992E0,7.929791481E0
1.581731329E1,5.775888977E0,-8.779991913E0,7.379653931E-1,1.053535687E1
1.582734729E1,8.076754303E0,-1.057940002E1,2.209405518E-1,1.331189242E1
1.583738129E1,1.003123993E1,-1.237027588E1,-6.987469482E-1,1.594169838E1
1.584741529E1,1.076725937E1,-1.310674438E1,-1.313817902E0,1.701313434E1
1.585744929E1,1.005054977E1,-1.153082153E1,-1.078357544E0,1.533415309E1
1.586748229E1,8.707991638E0,-8.767118683E0,1.416055298E-1,1.235765109E1
1.587751629E1,7.632777557E0,-6.947203217E0,1.385219421E0,1.041353728E1
1.588755029E1,7.200775909E0,-5.932762756E0,2.067201233E0,9.556263316E0
1.589758429E1,7.105873260E0,-5.199587402E0,2.595752106E0,9.179709851E0
1.590761829E1,7.281607819E0,-4.545896759E0,2.937042389E0,9.072662661E0
1.591765229E1,7.610174561E0,-3.948938141E0,3.239862671E0,9.165455767E0
1.592768529E1,8.297694855E0,-3.429518280E0,3.619323578E0,9.680539174E0
1.593771929E1,9.106463013E0,-2.976111145E0,3.845203857E0,1.032329884E1
1.594775329E1,9.837542725E0,-2.655926971E0,3.948938141E0,1.092818866E1
1.595778729E1,1.052132080E1,-2.436632996E0,4.068539429E0,1.154072722E1
1.596782129E1,1.117755615E1,-2.329755249E0,3.759581909E0,1.202081433E1
1.597785429E1,1.172002808E1,-2.128723297E0,3.372636566E0,1.238003225E1
1.598788829E1,1.188947571E1,-2.045945435E0,2.971620483E0,1.242481604E1
1.599792229E1,1.174951675E1,-1.892664185E0,2.603086853E0,1.218233897E1
1.600795629E1,1.125359802E1,-1.641187134E0,2.104922791E0,1.156579715E1
1.601799029E1,1.048479675E1,-1.329684906E0,1.697619781E0,1.070424859E1
1.602802329E1,9.682016144E0,-1.117575989E0,1.363963623E0,9.841280885E0
1.603805729E1,9.098230133E0,-1.059796143E0,1.038839722E0,9.218467735E0
1.604809129E1,8.693172455E0,-1.284778290E0,6.056405640E-1,8.808444986E0
1.605812529E1,8.549471283E0,-1.904040527E0,-5.599855042E-1,8.776811113E0
1.606815929E1,8.729846191E0,-2.803220673E0,-2.318977661E0,9.457585213E0
1.607819329E1,8.971743164E0,-3.703298950E0,-3.312012634E0,1.025553637E1
1.608822629E1,9.141490173E0,-4.421954498E0,-3.184926910E0,1.064256941E1
1.609826029E1,9.340725861E0,-5.389692078E0,-3.774251404E0,1.142553780E1
1.610829429E1,9.486073608E0,-6.502627716E0,-5.562732239E0,1.277551368E1
1.611832829E1,9.533075867E0,-6.749763794E0,-5.470523987E0,1.289827428E1
1.612836229E1,9.291627960E0,-5.708079987E0,-2.867287445E0,1.127554276E1
1.613839529E1,9.295669556E0,-4.548291779E0,-2.350112915E-1,1.035140864E1
1.614842929E1,9.720486145E0,-3.943998413E0,1.280137939E0,1.056795759E1
1.615846329E1,1.011641281E1,-3.784430237E0,1.718276825E0,1.093691893E1
1.616849729E1,1.020203476E1,-3.891757050E0,1.577719116E0,1.103251938E1
1.617853129E1,1.023242157E1,-4.225113831E0,1.130598907E0,1.112799586E1
1.618856529E1,1.017284546E1,-4.496649170E0,5.801934814E-1,1.113747112E1
1.619859829E1,9.897867279E0,-4.603377228E0,-1.023870850E-1,1.091647112E1
1.620863229E1,9.686955872E0,-4.834496613E0,-1.534010010E0,1.093447110E1
1.621866629E1,9.606423340E0,-4.966522064E0,-3.631897430E0,1.140790909E1
1.622870029E1,1.080498093E1,-4.923561401E0,-3.598516846E0,1.240719119E1
1.623873429E1,1.361523697E1,-5.070555725E0,-1.982327728E0,1.466338420E1
1.624876729E1,1.554457489E1,-5.276228027E0,-1.434017944E0,1.647813091E1
1.625880129E1,1.655302780E1,-5.444777527E0,-1.804796906E0,1.751872209E1
1.626883529E1,1.718531296E1,-5.980214081E0,-3.201841736E0,1.847565242E1
1.627886929E1,1.656185944E1,-6.868766327E0,-5.746699677E0,1.882816231E1
1.628890329E1,1.383977005E1,-7.723039856E0,-6.021827545E0,1.695426161E1
1.629893629E1,1.195938034E1,-8.262967072E0,-3.244503021E0,1.489396532E1
1.630897029E1,1.150103348E1,-8.540489960E0,-6.110293579E-1,1.433830871E1
1.631900429E1,1.164159119E1,-8.521180115E0,1.818119202E0,1.454106988E1
1.632903829E1,1.198572556E1,-8.626111908E0,3.714226227E0,1.522704503E1
1.633907204E1,1.224034607E1,-8.854237518E0,4.701423340E0,1.582172479E1
1.634910504E1,1.222612564E1,-8.754694519E0,5.349276123E0,1.596050060E1
1.635913904E1,1.212613358E1,-8.772507477E0,6.381679230E0,1.627039744E1
1.636917304E1,1.209978836E1,-8.816216583E0,7.260801086E0,1.663880361E1
1.637920704E1,1.229273712E1,-9.010063477E0,6.869365082E0,1.671767946E1
1.638924104E1,1.239557327E1,-8.862919464E0,4.672832794E0,1.593853646E1
1.639927504E1,1.278506332E1,-7.741451569E0,-5.486091614E-1,1.495623243E1
1.640930804E1,1.290750870E1,-6.432124329E0,-3.923790436E0,1.494563935E1
1.641934204E1,1.191477310E1,-5.627547455E0,-3.355721741E0,1.359749892E1
1.642937604E1,1.044033920E1,-5.118306427E0,-2.104623413E0,1.181639467E1
1.643941004E1,9.071286163E0,-4.734205170E0,-1.856140137E-1,1.023403067E1
1.644944404E1,7.701933746E0,-4.419559479E0,1.517843628E0,9.008670196E0
1.645947704E1,6.477330322E0,-4.161346436E0,2.927612000E0,8.236718053E0
1.646951104E1,5.106481018E0,-4.066743164E0,3.565136261E0,7.438060561E0
1.647954504E1,3.985462189E0,-3.844006348E0,3.759881287E0,6.693056174E0
1.648957904E1,2.976560211E0,-3.436104584E0,2.973416748E0,5.432120448E0
1.649961304E1,2.449206848E0,-2.970123596E0,2.238295441E0,4.453112938E0
1.650964704E1,2.116598511E0,-2.613415375E0,1.641935577E0,3.742443268E0
1.651968004E1,1.997745667E0,-2.316133575E0,1.315763855E0,3.329669204E0
1.652971404E1,1.918260956E0,-2.017654266E0,1.244961090E0,3.049685549E0
1.653974804E1,1.871857452E0,-1.822609863E0,1.293160858E0,2.915136710E0
1.654978204E1,1.981130219E0,-1.698817291E0,1.560953979E0,3.040959463E0
1.655981604E1,2.076931000E0,-1.653760986E0,1.937720490E0,3.286841717E0
1.656984904E1,1.669328613E0,-1.471440125E0,2.138303375E0,3.086119794E0
1.657988304E1,1.318009186E0,-1.129251709E0,2.216440887E0,2.815131941E0
1.658991704E1,1.224004669E0,-6.343807983E-1,1.983225861E0,2.415328392E0
1.659995104E1,1.180744629E0,-6.571334839E-2,1.725461884E0,2.091816157E0
1.660998504E1,1.303489380E0,5.855822754E-1,2.291884003E0,2.700874571E0
1.662001804E1,1.421144714E0,1.171164551E0,3.659140778E0,4.096411837E0
1.663005204E1,1.758543091E0,1.495090942E0,3.452720032E0,4.153197123E0
1.664008604E1,3.152594147E0,1.732197876E0,-6.948550415E-1,3.663629739E0
1.665012004E1,6.522835693E0,1.232836304E0,-7.346722412E0,9.901595883E0
1.666015404E1,1.332124832E1,-1.860930176E0,-1.696781525E1,2.165237798E1
1.667018804E1,2.443922836E1,-7.693401489E0,-3.289514420E1,4.169598087E1
1.668022104E1,2.938269836E1,-1.329595093E1,-3.186992615E1,4.534112335E1
1.669025504E1,2.756802200E1,-1.536644531E1,-1.388213196E1,3.447951662E1
1.670028904E1,2.523093201E1,-1.447400116E1,-1.390009460E0,2.912093346E1
1.671032304E1,2.095567245E1,-1.151330795E1,-1.010548553E0,2.393152056E1
1.672035704E1,1.340372681E1,-7.300917664E0,-2.944077759E0,1.554448085E1
1.673039004E1,5.247787170E0,-4.068090363E0,-3.285068665E0,7.408124291E0
