"Time (s)","Acceleration x (m/s^2)","Acceleration y (m/s^2)","Acceleration z (m/s^2)","Absolute acceleration (m/s^2)"
4.962916668E-3,-1.807341614E0,3.124003601E-1,8.906029816E0,9.092933782E0
1.499691667E-2,-1.361119537E0,2.963836670E-2,9.077423401E0,9.178950944E0
2.503091667E-2,-1.264121246E0,1.098715210E-1,9.457183685E0,9.541928397E0
3.506491667E-2,-1.566492462E0,2.383044434E-1,1.043809387E1,1.055767452E1
4.509891667E-2,-1.724414063E0,1.983375549E-1,1.153216873E1,1.166206917E1
5.513291667E-2,-1.750160522E0,3.966751099E-2,1.097876953E1,1.111746445E1
6.516691667E-2,-2.561623077E0,-3.137475586E-1,1.002585114E1,1.035268281E1
7.520091667E-2,-3.212769012E0,-6.230044556E-1,9.468110962E0,1.001774149E1
8.523591667E-2,-3.385659485E0,-5.819897461E-1,9.565258942E0,1.016344336E1
9.526991667E-2,-3.674858093E0,-4.541555786E-1,9.538614349E0,1.023210648E1
1.053039167E-1,-3.053051147E0,-3.376977539E-1,9.001531219E0,9.511189483E0
1.153379167E-1,-2.310894470E0,-1.242416382E-1,8.174351349E0,8.495627653E0
1.253719167E-1,-2.311642914E0,2.406994629E-1,7.724536743E0,8.066603814E0
1.354059167E-1,-2.214644623E0,4.974156189E-1,7.804021454E0,8.127411885E0
1.454399167E-1,-1.736688538E0,8.066725159E-1,7.793992310E0,8.025778700E0
1.554739167E-1,-2.592608643E-1,7.741900635E-1,9.204060059E0,9.240200648E0
1.655079167E-1,-7.165599060E-1,-2.154020691E-1,9.980645142E0,1.000865294E1
1.755419167E-1,-2.335593109E0,-4.950205994E-1,1.003079086E1,1.031100412E1
1.855759167E-1,-3.256627808E0,-2.395019531E-3,9.222621460E0,9.780714545E0
1.956099167E-1,-3.397784271E0,2.463876343E-1,9.683662720E0,1.026542588E1
2.056439167E-1,-3.029100952E0,3.891906738E-1,1.017239639E1,1.062094960E1
2.156779167E-1,-2.285746765E0,3.643423462E-1,1.009066635E1,1.035272578E1
2.257119167E-1,-2.121687927E0,1.302291870E-1,9.994117126E0,1.021767569E1
2.357459167E-1,-2.687361603E0,-5.387297058E-1,9.653575287E0,1.003512122E1
2.457799167E-1,-3.195255432E0,-1.067280579E0,8.956025848E0,9.568654247E0
2.558139167E-1,-3.228935394E0,-9.363029480E-1,8.644074554E0,9.274842958E0
2.658479167E-1,-3.829336853E0,-9.195378113E-1,8.367150421E0,9.247625462E0
2.758819167E-1,-3.939208374E0,-8.379574585E-1,8.050109711E0,9.001322218E0
2.859159167E-1,-3.388353882E0,-9.339079285E-1,7.951315155E0,8.693476793E0
2.959509167E-1,-3.494034119E0,-1.246607666E0,7.837701416E0,8.671324500E0
3.059849167E-1,-4.018543396E0,-1.507814484E0,8.142767029E0,9.204718922E0
3.160189167E-1,-4.828359375E0,-1.796564026E0,8.673114166E0,1.008779490E1
3.260529167E-1,-5.900879059E0,-1.863325195E0,9.329199829E0,1.119492402E1
3.360869167E-1,-6.087840271E0,-2.007176056E0,9.675280151E0,1.160610188E1
3.461209167E-1,-5.812712402E0,-1.972747650E0,1.007779312E1,1.180005394E1
3.561549167E-1,-5.754483490E0,-1.853296051E0,9.891730042E0,1.159289048E1
3.661889167E-1,-5.801785126E0,-2.249073029E0,9.210646362E0,1.111553177E1
3.762229167E-1,-5.806874542E0,-2.730172577E0,8.277337189E0,1.047320129E1
3.862569167E-1,-5.001249847E0,-2.709365845E0,7.741002502E0,9.606054500E0
3.962909167E-1,-3.691772919E0,-1.773661652E0,7.918383636E0,8.914923575E0
4.063249167E-1,-3.042423248E0,-1.420545959E-1,8.604107666E0,9.127277111E0
4.163589167E-1,-2.546504517E0,1.002315674E0,9.200018463E0,9.598419749E0
4.263929167E-1,-2.224224701E0,1.183139648E0,9.825268250E0,1.014312038E1
4.364269167E-1,-2.574645996E0,6.092330933E-1,9.652078400E0,1.000812592E1
4.464609167E-1,-3.928131409E0,-6.755451965E-1,7.658673706E0,8.633762830E0
4.564949167E-1,-4.519102478E0,-1.750609589E0,6.675218811E0,8.248967651E0
4.665289167E-1,-4.877756653E0,-1.691183167E0,6.512058105E0,8.310205246E0
4.765629167E-1,-4.102219391E0,-1.589394836E0,5.666466522E0,7.173787195E0
4.865969167E-1,-3.853137360E0,-1.557511139E0,5.231471100E0,6.681376978E0
4.966309167E-1,-4.490960999E0,-1.038240967E0,5.278323669E0,7.007665500E0
5.066659167E-1,-5.009931793E0,-5.878276062E-1,5.548362122E0,7.498618546E0
5.167002917E-1,-5.808371429E0,-3.736230469E-1,5.880521393E0,8.273892959E0
5.267342917E-1,-7.023694153E0,-5.143304443E-1,5.878425751E0,9.173478330E0
5.367682917E-1,-8.234077148E0,-9.490264893E-1,6.016887817E0,1.024224667E1
5.468022917E-1,-8.786877594E0,-1.832339630E0,6.726711731E0,1.121674360E1
5.568362917E-1,-8.403524780E0,-2.788551178E0,7.174879761E0,1.139623385E1
5.668702917E-1,-8.039332123E0,-2.951562195E0,6.303392029E0,1.063368852E1
5.769042917E-1,-7.367978210E0,-2.972368927E0,4.443060608E0,9.102904345E0
5.869382917E-1,-7.392976227E0,-2.842738495E0,4.176914062E0,8.954544697E0
5.969722917E-1,-7.419022064E0,-2.570903778E0,3.985162811E0,8.805280078E0
6.070062917E-1,-7.883805542E0,-2.175725555E0,4.133953400E0,9.163937048E0
6.170402917E-1,-8.483907623E0,-1.905687103E0,4.234244843E0,9.671461176E0
6.270742917E-1,-8.998537445E0,-1.917811890E0,4.287384338E0,1.015053413E1
6.371082917E-1,-1.003408401E1,-1.966610413E0,3.668271790E0,1.086308503E1
6.471422917E-1,-1.159892990E1,-1.850152588E0,2.166744232E0,1.194374397E1
6.571762917E-1,-1.126527374E1,-2.238894196E0,3.071313171E0,1.188915490E1
6.672102917E-1,-7.846832428E0,-2.654729462E0,3.642974396E0,9.049399434E0
6.772442917E-1,-7.570956116E0,-1.338516541E0,3.133883057E0,8.302543348E0
6.872782917E-1,-7.937843170E0,-1.139430542E0,3.679049377E0,8.822871442E0
6.973122917E-1,-7.674840088E0,-1.767075348E0,4.539909210E0,9.090462106E0
7.073462917E-1,-1.017539017E1,-2.850671997E0,5.407804413E0,1.187051997E1
7.173812917E-1,-1.194291458E1,-4.681814117E0,6.102360077E0,1.420532966E1
7.274152917E-1,-1.166539169E1,-5.281916199E0,6.454278259E0,1.434007357E1
7.374492917E-1,-1.029723679E1,-4.594545593E0,5.951174469E0,1.274987891E1
7.474832917E-1,-7.513475647E0,-3.813619537E0,5.612279205E0,1.012391664E1
7.575172917E-1,-5.082381134E0,-2.589315491E0,5.700595551E0,8.064238484E0
7.675512917E-1,-3.895499268E0,-1.215173035E0,6.448290710E0,7.630990312E0
7.775852917E-1,-3.601360931E0,-7.295828247E-1,7.473658447E0,8.328124773E0
7.876192917E-1,-3.282673645E0,-7.903564453E-1,7.900271301E0,8.591559591E0
7.976532917E-1,-2.985990601E0,-1.337618408E0,7.867190094E0,8.520448512E0
8.076872917E-1,-6.430028687E0,-4.574337616E0,5.950575714E0,9.883278042E0
8.177212917E-1,-9.195527802E0,-9.001980286E0,2.482886810E0,1.310565174E1
8.277552917E-1,-1.103086121E1,-1.000609222E1,2.752775574E-1,1.489555498E1
8.377892917E-1,-1.195459030E1,-8.552465057E0,2.050735474E-1,1.470030418E1
8.478232917E-1,-1.044767395E1,-7.644303589E0,5.533992004E-1,1.295745033E1
8.578572917E-1,-9.060957642E0,-6.420298920E0,1.268462219E0,1.117721736E1
8.678912917E-1,-8.113128662E0,-5.001698914E0,1.810036011E0,9.701344189E0
8.779252917E-1,-7.404651947E0,-4.900359650E0,2.106419678E0,9.125754709E0
8.879592917E-1,-7.180268555E0,-5.037923584E0,2.527494049E0,9.128261429E0
8.979932917E-1,-8.084089050E0,-5.179379425E0,2.200573883E0,9.849923473E0
9.080272917E-1,-8.674161987E0,-5.180876312E0,9.401948547E-1,1.014724258E1
9.180612917E-1,-9.263187103E0,-5.370980988E0,1.197958832E0,1.077446878E1
9.280952917E-1,-8.866212616E0,-5.267695770E0,1.444945221E0,1.041375108E1
9.381302917E-1,-9.296567688E0,-4.895719299E0,2.100432129E0,1.071475867E1
9.481642917E-1,-7.569159851E0,-4.168681183E0,-1.047821045E-3,8.641185379E0
9.581982917E-1,-6.992558899E0,-2.646047516E0,-7.701484680E-1,7.516021293E0
9.682322917E-1,-7.383845215E0,-3.773053894E0,1.491947479E0,8.425141727E0
9.782662917E-1,-9.317224731E0,-4.527335358E0,3.011437683E0,1.078778008E1
9.883002917E-1,-9.521250458E0,-4.965623932E0,2.990630951E0,1.114699533E1
9.983342917E-1,-9.057215424E0,-5.911656647E0,1.941462708E0,1.098863563E1
1.008368292E0,-8.814869385E0,-6.218368835E0,-7.331753540E-1,1.081238084E1
1.018402292E0,-9.648485870E0,-5.680237885E0,-1.901196442E0,1.135662494E1
1.028436292E0,-1.129895370E1,-6.442153473E0,3.056643677E-1,1.301003947E1
1.038470292E0,-1.244526993E1,-7.184609528E0,5.721102905E-1,1.438160867E1
1.048504292E0,-1.147483795E1,-6.441854095E0,1.661544800E-2,1.315939460E1
1.058538292E0,-9.135502625E0,-5.903573456E0,9.581575012E-1,1.091914161E1
1.068572292E0,-7.000342712E0,-6.747069397E0,2.784210205E0,1.011333625E1
1.078606292E0,-7.183711395E0,-7.854167175E0,3.495081940E0,1.120309106E1
1.088640292E0,-8.739575958E0,-7.476352844E0,3.170706482E0,1.193018941E1
1.098674292E0,-9.718689880E0,-4.166735229E0,1.142274628E0,1.063576075E1
1.108708292E0,-1.060349991E1,-2.693947906E0,8.030799866E-1,1.096979959E1
1.118742292E0,-9.876012726E0,-4.321213989E0,1.883533173E0,1.094331828E1
1.128776292E0,-7.765102386E0,-5.206024017E0,1.244961090E0,9.431300507E0
1.138810292E0,-6.523883514E0,-4.848717041E0,3.302133179E-1,8.135118554E0
1.148845292E0,-6.675667877E0,-4.254901886E0,2.439926147E-2,7.916396086E0
1.158879292E0,-7.531438293E0,-4.176614685E0,3.100053406E-1,8.617585294E0
1.168913292E0,-8.027057648E0,-4.327201538E0,1.499282227E0,9.241546127E0
1.178947292E0,-8.427774353E0,-4.755011902E0,1.457369385E0,9.785777652E0
1.188981292E0,-8.237070923E0,-4.754413147E0,1.565145264E0,9.638644171E0
1.199015292E0,-8.040080566E0,-4.635260925E0,2.087858276E0,9.512501855E0
1.209049292E0,-7.799081726E0,-4.688699799E0,3.077151031E0,9.606166771E0
1.219083292E0,-7.825277252E0,-4.896617432E0,4.836741943E0,1.042141540E1
1.229117292E0,-8.494385834E0,-4.975054321E0,5.673651581E0,1.136204552E1
1.239151292E0,-9.063202972E0,-4.508175201E0,5.154082031E0,1.135913084E1
1.249185292E0,-9.663305054E0,-4.531975708E0,5.095553741E0,1.182721169E1
1.259219292E0,-9.476044464E0,-5.473817139E0,4.002077637E0,1.165224091E1
1.269253292E0,-8.541088715E0,-5.336402893E0,2.001038818E0,1.026798659E1
1.279287292E0,-8.387358398E0,-4.603975983E0,2.713257751E0,9.945156780E0
1.289321292E0,-7.601492615E0,-3.806733856E0,3.378923492E0,9.148280527E0
1.299355292E0,-7.706424408E0,-2.490670624E0,3.480412445E0,8.815082989E0
1.309389292E0,-7.701334991E0,-1.814227295E0,3.854933624E0,8.801278008E0
1.319423292E0,-7.438631287E0,-2.441423035E0,3.830085297E0,8.715694765E0
1.329457292E0,-5.144951019E0,-2.548450470E0,3.487447815E0,6.717694028E0
1.339491292E0,-4.193379822E0,-3.475173340E0,3.725153503E0,6.598335600E0
1.349525292E0,-5.400170288E0,-3.789369965E0,4.149820404E0,7.793726532E0
1.359559292E0,-6.158343658E0,-3.286415863E0,4.056714020E0,8.073577551E0
1.369593292E0,-5.626200256E0,-3.069816284E0,3.661835175E0,7.381526820E0
1.379628292E0,-6.047124939E0,-3.430416412E0,2.763702850E0,7.481545979E0
1.389662292E0,-6.247258759E0,-3.658542023E0,1.993704071E0,7.509196205E0
1.399696292E0,-5.899681549E0,-3.506757660E0,1.916315002E0,7.125717848E0
1.409730292E0,-5.775888977E0,-2.530936890E0,3.492686920E0,7.208702861E0
1.419764292E0,-6.401887207E0,-1.821711731E0,4.278103638E0,7.912329883E0
1.429798292E0,-8.138126678E0,-1.243015137E0,5.433101807E0,9.863710646E0
1.439832292E0,-7.400161285E0,-9.125024414E-1,5.253325653E0,9.120991074E0
1.449866292E0,-6.148464203E0,-1.414857788E0,4.927153931E0,8.005140878E0
1.459900292E0,-6.115382996E0,-2.926264801E0,6.483317871E0,9.380530128E0
1.469934292E0,-8.263266449E0,-5.557343445E0,9.220974884E0,1.357173594E1
1.479968292E0,-8.004754028E0,-6.298003235E0,7.278164978E0,1.251849101E1
1.490002292E0,-7.128476257E0,-5.102738800E0,6.251150665E0,1.076707953E1
1.500036292E0,-7.971074066E0,-4.832101593E0,6.514303436E0,1.137204365E1
1.510070292E0,-8.735684052E0,-5.011877747E0,7.126679993E0,1.233777379E1
1.520104167E0,-8.956923981E0,-5.112917633E0,7.525899811E0,1.276744226E1
1.530138167E0,-8.408015442E0,-4.712200928E0,7.331903229E0,1.211017614E1
1.540172167E0,-6.737189941E0,-4.683909760E0,6.793173523E0,1.065250888E1
1.550206167E0,-5.003644867E0,-5.173092499E0,6.380631409E0,9.618201762E0
1.560240167E0,-4.123175812E0,-5.536087646E0,5.674549713E0,8.935846891E0
1.570274167E0,-4.875211945E0,-5.566175079E0,4.681215363E0,8.755785161E0
1.580308167E0,-6.101461945E0,-5.144352264E0,3.095562744E0,8.560064648E0
1.590342167E0,-7.887697449E0,-5.856571198E0,2.712509308E0,1.019180573E1
1.600376167E0,-9.208700409E0,-6.600823517E0,2.781815186E0,1.166659891E1
1.610410167E0,-8.887767792E0,-6.084247742E0,3.313509521E0,1.126897654E1
1.620445167E0,-9.218280487E0,-6.344406738E0,5.096451874E0,1.229642280E1
1.630479167E0,-9.551936646E0,-6.344855804E0,7.039411469E0,1.345548225E1
1.640513167E0,-9.944121094E0,-6.152954865E0,8.269852753E0,1.432252989E1
1.650547167E0,-1.026924500E1,-6.082750854E0,8.034991150E0,1.438813169E1
1.660581167E0,-1.222657471E1,-5.313201141E0,6.269562378E0,1.473182432E1
1.670615167E0,-1.497126709E1,-4.361031189E0,3.774101715E0,1.604373009E1
1.680649167E0,-1.497081802E1,-4.040847015E0,2.090702362E0,1.564688062E1
1.690683167E0,-1.325688217E1,-4.179009705E0,1.195114746E0,1.395124891E1
1.700717167E0,-1.155102951E1,-4.068539429E0,1.360520782E0,1.232194435E1
1.710751167E0,-1.056907150E1,-3.549718323E0,1.174906769E0,1.121098473E1
1.720785167E0,-9.703122253E0,-3.424728241E0,9.490264893E-1,1.033344068E1
1.730819167E0,-8.330027618E0,-4.194577332E0,8.282276917E-1,9.363215272E0
1.740853167E0,-7.217541046E0,-5.202431488E0,9.174421692E-1,8.944265888E0
1.750887167E0,-6.430926819E0,-6.035449219E0,1.463656311E0,8.940120627E0
1.760921167E0,-6.155499573E0,-6.353088684E0,1.985321503E0,9.066058255E0
1.770955167E0,-6.562503204E0,-5.824687500E0,2.370620270E0,9.089184410E0
1.780989167E0,-7.502847748E0,-4.756957855E0,2.491419067E0,9.226512956E0
1.791023167E0,-7.933502197E0,-3.977678375E0,2.144889679E0,9.130330449E0
1.801057167E0,-7.177125092E0,-4.141737213E0,1.617087250E0,8.442753277E0
1.811091167E0,-6.198011169E0,-4.787943420E0,1.256038055E0,7.932047419E0
1.821125167E0,-6.050717468E0,-5.070855103E0,1.114731903E0,7.972915437E0
1.831159167E0,-6.706653442E0,-4.917274475E0,1.388362885E0,8.431271562E0
1.841193167E0,-7.749235382E0,-5.127587128E0,1.533860321E0,9.417830230E0
1.851227167E0,-8.574169922E0,-5.370382233E0,1.806293793E0,1.027716364E1
1.861262167E0,-9.120683441E0,-5.239554291E0,1.989063721E0,1.070496007E1
1.871296167E0,-9.620943146E0,-5.444029083E0,2.059567108E0,1.124463500E1
1.881330167E0,-9.538314972E0,-5.992189178E0,2.396217041E0,1.151640742E1
1.891364167E0,-9.042545929E0,-5.578299866E0,2.930007019E0,1.102134327E1
1.901398167E0,-8.392747192E0,-4.893923035E0,3.176244965E0,1.022140989E1
1.911432167E0,-7.853269043E0,-4.536466370E0,3.097359009E0,9.583683771E0
1.921466167E0,-7.413333893E0,-4.373904419E0,2.640658722E0,9.003423669E0
1.931500167E0,-6.935677185E0,-4.158352661E0,2.859353943E0,8.577378378E0
1.941534167E0,-6.658303986E0,-4.087250519E0,3.688330078E0,8.639583759E0
1.951568167E0,-5.892646179E0,-2.691253510E0,3.727997589E0,7.474228420E0
1.961602167E0,-5.020559692E0,-1.742077332E0,2.755020905E0,5.985899535E0
1.971636167E0,-4.525688782E0,-2.273023224E0,2.374661865E0,5.593524157E0
1.981670167E0,-4.660558319E0,-2.725981293E0,2.463576965E0,5.934727400E0
1.991704167E0,-5.227130127E0,-3.003055115E0,3.031346283E0,6.747613628E0
2.001738167E0,-5.878575439E0,-3.194057922E0,3.893553314E0,7.740763051E0
2.011772167E0,-6.284082184E0,-3.516936493E0,5.216801605E0,8.892330975E0
2.021806167E0,-6.446494446E0,-4.000730438E0,5.591322784E0,9.424755973E0
2.031840167E0,-5.961353302E0,-3.832480316E0,4.233346710E0,8.255111322E0
2.041874167E0,-5.138065338E0,-3.362457733E0,3.308120728E0,6.974919367E0
2.051908167E0,-5.006189575E0,-3.505709839E0,3.130440216E0,6.866701645E0
2.061942167E0,-5.503754883E0,-4.054618378E0,3.137176208E0,7.521510657E0
2.071976167E0,-6.450985107E0,-5.050497437E0,3.377276917E0,8.861643898E0
2.082010167E0,-7.768694916E0,-5.672903137E0,4.008663940E0,1.042131649E1
2.092044167E0,-8.921597443E0,-5.828878784E0,4.718338165E0,1.165476057E1
2.102078167E0,-9.508826294E0,-5.418582001E0,5.164859619E0,1.210184214E1
2.112113167E0,-9.434580688E0,-4.902604980E0,5.395829315E0,1.192316327E1
2.122147167E0,-9.401349792E0,-5.136867828E0,5.404660950E0,1.199929785E1
2.132181167E0,-9.052874451E0,-5.284161530E0,5.186115417E0,1.169498576E1
2.142215167E0,-8.250991974E0,-5.556744690E0,5.215454407E0,1.123197422E1
2.152249167E0,-7.572752380E0,-6.022126923E0,5.699547729E0,1.122931145E1
2.162283167E0,-7.244634705E0,-6.373446350E0,6.251450043E0,1.149722480E1
2.172317167E0,-7.342381439E0,-6.814129944E0,6.959627380E0,1.219751390E1
2.182351167E0,-8.295599213E0,-7.016060028E0,7.541168060E0,1.322540284E1
2.192385167E0,-9.733209686E0,-6.783593445E0,7.456444244E0,1.401253266E1
2.202419167E0,-1.074196198E1,-6.268364868E0,6.729406128E0,1.414097069E1
2.212453167E0,-1.148756149E1,-5.765410767E0,5.321583710E0,1.391126463E1
2.222487167E0,-1.168275558E1,-5.036127319E0,3.850442963E0,1.329192490E1
2.232521167E0,-1.086066513E1,-4.796625366E0,3.604803772E0,1.240791168E1
2.242555167E0,-1.017464172E1,-5.065765686E0,4.246669006E0,1.213340487E1
2.252589167E0,-9.808054047E0,-4.945565643E0,4.576433258E0,1.189959180E1
2.262623167E0,-9.614506531E0,-4.883145447E0,3.989803162E0,1.149792914E1
2.272657167E0,-9.904902649E0,-5.003195801E0,2.894830170E0,1.146817799E1
2.282691167E0,-1.025981461E1,-5.079986115E0,1.757944336E0,1.158276405E1
2.292725167E0,-1.004605911E1,-5.104535065E0,1.032403107E0,1.131571642E1
2.302759167E0,-9.753717041E0,-4.409829712E0,8.982820129E-1,1.074190415E1
2.312793167E0,-1.007779312E1,-3.227588196E0,6.715036011E-1,1.060330877E1
2.322827167E0,-9.921518097E0,-3.389551392E0,6.888674927E-1,1.050714606E1
2.332861167E0,-9.376950531E0,-3.858077087E0,9.180409241E-1,1.018109813E1
2.342895167E0,-8.924291840E0,-4.101470947E0,1.096320190E0,9.882659902E0
2.352929167E0,-8.698261871E0,-4.134103088E0,1.006656647E0,9.683177450E0
2.362964167E0,-8.664881287E0,-4.314328308E0,8.569679260E-1,9.717406572E0
2.372998167E0,-8.753796387E0,-4.729864197E0,1.013392639E0,1.000137646E1
2.383032167E0,-9.138197021E0,-4.631668396E0,1.160836029E0,1.031050616E1
2.393066167E0,-9.252110138E0,-4.491410065E0,1.323847046E0,1.036951674E1
2.403100167E0,-8.771609344E0,-4.711153107E0,3.192860413E-1,9.961829032E0
2.413134167E0,-8.267757111E0,-3.877536621E0,-1.532513123E0,9.259573120E0
2.423168167E0,-7.998167725E0,-2.767445068E0,-1.466500397E0,8.589532151E0
2.433202167E0,-7.535779266E0,-2.055824890E0,-4.279600525E-1,7.822885333E0
2.443236167E0,-7.017257538E0,-1.783690796E0,2.182461548E-1,7.243692953E0
2.453270167E0,-6.585106201E0,-2.301314392E0,4.885839844E-1,6.992738085E0
2.463304167E0,-6.050867157E0,-2.359243927E0,7.735913086E-1,6.540448667E0
2.473338167E0,-5.653593292E0,-2.396366730E0,9.635462952E-1,6.215634487E0
2.483372167E0,-5.144052887E0,-2.643802185E0,1.107995911E0,5.888856004E0
2.493406167E0,-4.772824860E0,-2.689307556E0,1.159189453E0,5.599638601E0
2.503440167E0,-4.606071625E0,-2.289039917E0,1.285975800E0,5.301823584E0
2.513474167E0,-4.746779022E0,-2.014510803E0,1.829345856E0,5.471441412E0
2.523508417E0,-5.337450714E0,-2.099084930E0,2.069296875E0,6.097255713E0
2.533542417E0,-6.234086151E0,-2.265688477E0,2.175875244E0,6.980802783E0
2.543576417E0,-7.230414276E0,-2.160606995E0,2.292782135E0,7.886948910E0
2.553610417E0,-7.768994293E0,-1.869013367E0,2.503543854E0,8.373661990E0
2.563644417E0,-8.318351898E0,-2.151775360E0,2.606829071E0,8.978901565E0
2.573678417E0,-8.229287109E0,-2.388732605E0,2.518812103E0,8.931496190E0
2.583712417E0,-7.723039856E0,-1.773212585E0,2.597248993E0,8.338784673E0
2.593746417E0,-8.153843994E0,-1.820514221E0,2.560874634E0,8.738279167E0
2.603780417E0,-8.714877319E0,-2.122436371E0,2.808010712E0,9.398869453E0
2.613814417E0,-9.105115814E0,-2.830164642E0,3.027005310E0,1.000378564E1
2.623849417E0,-9.064101105E0,-3.956572266E0,2.979404297E0,1.032904850E1
2.633883417E0,-8.998238068E0,-4.372407532E0,2.452500000E0,1.030053359E1
2.643917417E0,-9.941726074E0,-3.472329254E0,2.076332245E0,1.073341248E1
2.653951417E0,-1.091051147E1,-3.010240173E0,2.275268555E0,1.154459413E1
2.663985417E0,-1.161270126E1,-2.631078644E0,3.112178192E0,1.230703289E1
2.674019417E0,-1.208377167E1,-2.205962677E0,4.049079895E0,1.293363279E1
2.684053417E0,-1.165730850E1,-2.884651337E0,4.826413422E0,1.294250058E1
2.694087417E0,-1.088686066E1,-3.982318726E0,5.341342621E0,1.276371961E1
2.704121417E0,-1.083267334E1,-4.079017639E0,5.624104614E0,1.286917827E1
2.714155417E0,-1.170505920E1,-3.548969879E0,5.454357605E0,1.339229686E1
2.724189417E0,-1.235440887E1,-3.522624664E0,5.153632965E0,1.384197370E1
2.734223417E0,-1.289209076E1,-3.799099731E0,4.338727570E0,1.412316253E1
2.744257417E0,-1.370669678E1,-4.136498108E0,2.987936554E0,1.462572795E1
2.754291417E0,-1.374771149E1,-4.086651764E0,1.591939545E0,1.443033490E1
2.764325417E0,-1.327005478E1,-4.202061768E0,3.031196594E-1,1.392277122E1
2.774359417E0,-1.291888504E1,-4.294569397E0,-7.497908020E-1,1.363462883E1
2.784393417E0,-1.299881882E1,-4.220772858E0,-1.396296387E0,1.373804418E1
2.794427417E0,-1.285661453E1,-4.242028656E0,-1.835183716E0,1.366218297E1
2.804461417E0,-1.196836166E1,-4.231550446E0,-1.749112701E0,1.281433164E1
2.814495417E0,-1.098116455E1,-4.261937256E0,-1.161734161E0,1.183637235E1
2.824529417E0,-9.825118561E0,-3.940854950E0,-7.833210754E-1,1.061493685E1
2.834563417E0,-8.583899689E0,-3.651806030E0,-7.219487000E-1,9.356293661E0
2.844597417E0,-7.832312622E0,-3.520529022E0,-4.772076416E-1,8.600405382E0
2.854631417E0,-7.657775574E0,-3.381019135E0,3.442840576E-2,8.371021589E0
2.864665417E0,-8.013585663E0,-3.328478394E0,5.462141418E-1,8.694519738E0
2.874700417E0,-8.711434479E0,-3.235521698E0,1.158890076E0,9.364866125E0
2.884734417E0,-9.354347534E0,-3.030897217E0,1.668729858E0,9.973706185E0
2.894768417E0,-9.921667786E0,-2.818638611E0,1.965113525E0,1.049980411E1
2.904802417E0,-1.029229706E1,-2.612666931E0,1.859882355E0,1.078037892E1
2.914836417E0,-1.038824753E1,-2.323318634E0,1.996248779E0,1.083044345E1
2.924870417E0,-1.028526169E1,-1.881736908E0,2.626887360E0,1.078091272E1
2.934904417E0,-9.639953613E0,-1.665287018E0,3.228785706E0,1.030179322E1
2.944938417E0,-8.994795227E0,-1.695524139E0,2.901117096E0,9.601959367E0
2.954972417E0,-8.565338287E0,-1.686093750E0,2.795137482E0,9.166281997E0
2.965006417E0,-7.710016937E0,-1.536554718E0,2.855911102E0,8.364304502E0
2.975040417E0,-6.845414886E0,-1.514849854E0,2.732417908E0,7.524664954E0
2.985074417E0,-6.324797516E0,-1.729353790E0,2.611319733E0,7.057812614E0
2.995108417E0,-6.194268951E0,-1.731000366E0,2.369273071E0,6.854107163E0
3.005142417E0,-6.005661163E0,-1.941462708E0,2.340682526E0,6.731718810E0
3.015176417E0,-6.016887817E0,-1.960323486E0,2.273771667E0,6.724272806E0
3.025210417E0,-6.009403381E0,-1.707798615E0,2.163451080E0,6.611355813E0
3.035244417E0,-5.627846832E0,-1.835183716E0,1.954186249E0,6.233731076E0
3.045278417E0,-5.551954651E0,-2.240540771E0,1.909129944E0,6.284027414E0
3.055312417E0,-5.581892395E0,-2.261497192E0,2.173480225E0,6.402804741E0
3.065346417E0,-5.318290558E0,-2.348915405E0,2.295177155E0,6.250556472E0
3.075380417E0,-5.683980103E0,-2.442770233E0,2.004032593E0,6.503145612E0
3.085414417E0,-5.878425751E0,-2.091151428E0,2.150428162E0,6.599480652E0
3.095448417E0,-6.102659454E0,-1.791773987E0,2.285597076E0,6.758465834E0
3.105482417E0,-6.573430481E0,-1.675615540E0,2.649340668E0,7.282628763E0
3.115517417E0,-6.957980804E0,-1.575024719E0,2.940634918E0,7.716316055E0
3.125551417E0,-7.305707703E0,-1.457219696E0,3.327879639E0,8.159144389E0
3.135585417E0,-7.749235382E0,-1.435814209E0,3.871549072E0,8.780723414E0
3.145619417E0,-7.946824493E0,-1.479972382E0,4.307143250E0,9.159357005E0
3.155653417E0,-8.057444458E0,-1.418450317E0,4.639751587E0,9.405408406E0
3.165687417E0,-8.446635132E0,-1.302291870E0,4.877606964E0,9.840358675E0
3.175721417E0,-8.888965302E0,-1.355880432E0,5.074896698E0,1.032505169E1
3.185755417E0,-9.332792358E0,-1.590292969E0,5.288502502E0,1.084427516E1
3.195789417E0,-1.001193008E1,-1.588646393E0,5.573360138E0,1.156827060E1
3.205823417E0,-1.076321777E1,-1.335672455E0,5.534291382E0,1.217617587E1
3.215857417E0,-1.144834305E1,-9.862989807E-1,5.299579468E0,1.265396723E1
3.225891417E0,-1.196461945E1,-8.107141113E-1,5.032534790E0,1.300522135E1
3.235925417E0,-1.257714569E1,-7.806266785E-1,5.076842651E0,1.358559174E1
3.245959417E0,-1.323128540E1,-1.029409332E0,5.381459198E0,1.432084844E1
3.255993417E0,-1.370549927E1,-1.203946381E0,5.282664642E0,1.473759623E1
3.266027417E0,-1.394559998E1,-1.261576538E0,4.560865631E0,1.472660278E1
3.276061417E0,-1.359263397E1,-1.066083069E0,3.511697388E0,1.407935545E1
3.286095417E0,-1.352183121E1,-9.839039612E-1,2.884351959E0,1.386100546E1
3.296129417E0,-1.416564240E1,-4.906796265E-1,1.786834259E0,1.428632100E1
3.306163417E0,-1.394574966E1,-4.337979126E-1,1.302441559E0,1.401315340E1
3.316197417E0,-1.298340088E1,-4.140390015E-1,1.065184937E0,1.303360064E1
3.326231417E0,-1.238958572E1,1.812730408E-1,1.076860657E0,1.243761726E1
3.336265417E0,-1.188049438E1,2.698887634E-1,7.867639160E-1,1.190957532E1
3.346299417E0,-1.167676804E1,-2.285746765E-1,3.944297791E-1,1.168566357E1
3.356334417E0,-1.119147720E1,-4.155358887E-1,8.054750061E-1,1.122811748E1
3.366368417E0,-1.078776672E1,-1.061742096E0,1.435814209E0,1.093456765E1
3.376402417E0,-1.047955765E1,-1.165775757E0,1.545086975E0,1.065680324E1
3.386436417E0,-9.981692963E0,-9.635462952E-1,1.485361176E0,1.013750037E1
3.396470417E0,-8.739575958E0,-6.860234070E-1,1.288221130E0,8.860605494E0
3.406504417E0,-8.369844818E0,-7.765850830E-1,7.310797119E-1,8.437527139E0
3.416538417E0,-9.261989594E0,-1.353934479E0,4.809498596E-1,9.372774540E0
3.426572417E0,-9.445807343E0,-1.796863403E0,1.857637024E-1,9.616990309E0
3.436606417E0,-8.802744598E0,-1.774859161E0,-2.395019531E-2,8.979922668E0
3.446640417E0,-7.790549469E0,-1.549877014E0,7.574249268E-2,7.943583367E0
3.456674417E0,-6.710994415E0,-1.346150665E0,8.147557068E-1,6.892996048E0
3.466708417E0,-5.826483765E0,-1.464554443E0,1.513203278E0,6.195370605E0
3.476742417E0,-5.580694885E0,-1.536405029E0,2.048041077E0,6.139964826E0
3.486776417E0,-5.684429169E0,-1.389710083E0,2.398162994E0,6.324177009E0
3.496810417E0,-5.882766724E0,-1.625469818E0,2.049837341E0,6.438239634E0
3.506844417E0,-5.979914703E0,-1.136137390E0,1.668580170E0,6.311445778E0
3.516878417E0,-6.252497864E0,-7.328759766E-1,1.087937622E0,6.388618395E0
3.526911792E0,-6.380032654E0,-8.187973022E-1,8.722361755E-1,6.491228053E0
3.536945792E0,-6.749165039E0,-8.144563293E-1,1.182391205E0,6.900189620E0
3.546979792E0,-6.907685394E0,-3.007246399E-1,1.870360565E0,7.162737009E0
3.557013792E0,-6.879244537E0,6.586303711E-3,2.003433838E0,7.165039841E0
3.567047792E0,-6.668183441E0,2.185455322E-2,2.118095398E0,6.996533152E0
3.577081792E0,-6.434519348E0,-3.092568970E-1,2.405797119E0,6.876520839E0
3.587115792E0,-7.154522095E0,-1.046623535E0,2.348316650E0,7.602446864E0
3.597149792E0,-7.684869232E0,-2.002835083E0,2.076481934E0,8.208552900E0
3.607184792E0,-5.847889252E0,-4.279600525E-1,3.139421539E0,6.651084581E0
3.617218792E0,-6.170618134E0,3.293151855E-3,3.557053070E0,7.122440982E0
3.627252792E0,-7.246430969E0,-1.904040527E-1,3.663930817E0,8.122278284E0
3.637286792E0,-7.164401550E0,-8.361611938E-1,3.141517181E0,7.867461174E0
3.647320792E0,-6.703509979E0,-1.319206696E0,2.613565063E0,7.314921373E0
3.657354792E0,-7.478897552E0,-1.178349609E0,2.528691559E0,7.982273949E0
3.667388792E0,-1.065768723E1,-7.189549255E-1,8.657995605E-1,1.071693996E1
3.677422792E0,-1.127141098E1,-1.268911285E0,6.500981140E-1,1.136122656E1
3.687456792E0,-1.240874588E1,-2.122885437E0,8.964857483E-1,1.262090740E1
3.697490792E0,-1.258582764E1,-2.286794586E0,1.853745117E0,1.292551189E1
3.707524792E0,-1.302202057E1,-2.093696136E0,3.092868347E0,1.354704462E1
3.717558792E0,-1.347003891E1,-1.766476593E0,4.023632812E0,1.416869820E1
3.727592792E0,-1.423075699E1,-1.421144714E0,4.583618317E0,1.501811085E1
3.737626792E0,-1.438269104E1,-1.563348999E0,4.451293488E0,1.513670623E1
3.747660792E0,-1.415711014E1,-1.878144379E0,3.510350189E0,1.470624875E1
3.757694792E0,-1.410397064E1,-2.884052582E0,1.820065155E0,1.451042330E1
3.767728792E0,-1.419692734E1,-3.789519653E0,4.499642944E-1,1.470087320E1
3.777762792E0,-1.452250031E1,-4.061204681E0,-5.186714172E-1,1.508858571E1
3.787796792E0,-1.440095306E1,-3.776796112E0,-1.285227356E0,1.494334124E1
3.797830792E0,-1.395862289E1,-3.375929718E0,-2.050436096E0,1.450669993E1
3.807864792E0,-1.374322083E1,-2.981050873E0,-3.291654968E0,1.444291437E1
3.817898792E0,-1.340642120E1,-3.397035828E0,-3.429667969E0,1.424902117E1
3.827932792E0,-1.251397705E1,-3.672014008E0,-3.267704773E0,1.344474630E1
3.837966792E0,-1.170940018E1,-3.759731598E0,-2.817141724E0,1.261673181E1
3.848000792E0,-1.089135132E1,-3.760929108E0,-2.246079254E0,1.173929271E1
3.858034792E0,-9.898016968E0,-3.380420380E0,-1.633702698E0,1.058616863E1
3.868068792E0,-9.063053284E0,-3.012485504E0,-6.912625122E-1,9.575586018E0
3.878102792E0,-8.719667358E0,-2.870879974E0,1.995350647E-1,9.182285386E0
3.888136792E0,-8.635392609E0,-2.662064209E0,7.472460938E-1,9.067246996E0
3.898170792E0,-8.685238953E0,-2.543660431E0,1.089284821E0,9.115378515E0
3.908204792E0,-9.140592041E0,-2.288740540E0,1.031654663E0,9.479085792E0
3.918238792E0,-9.211993561E0,-1.802401886E0,4.143383789E-1,9.395805139E0
3.928273792E0,-8.951235809E0,-1.490899658E0,-2.404000854E-1,9.077730802E0
3.938307792E0,-8.460406494E0,-1.081800385E0,-7.794291687E-1,8.564828075E0
3.948341792E0,-8.145162048E0,-7.321275330E-1,-9.889933777E-1,8.237583591E0
3.958375792E0,-8.011939087E0,-2.342628479E-1,-9.373507690E-1,8.069985965E0
3.968409792E0,-8.056097260E0,2.817141724E-1,-9.325607300E-1,8.114784991E0
3.978443792E0,-7.542365570E0,7.448510742E-1,-9.141490173E-1,7.633986504E0
3.988477792E0,-7.275320892E0,4.523593140E-1,-3.805087280E-1,7.299295166E0
3.998511792E0,-6.609206085E0,6.375242615E-1,-1.188528442E-1,6.640946338E0
4.008545792E0,-6.037544861E0,9.931846619E-1,4.002676392E-1,6.131767926E0
4.018579792E0,-6.017187195E0,9.262738037E-1,1.240021362E0,6.213065095E0
4.028613792E0,-5.683980103E0,8.069718933E-1,1.588197327E0,5.956610126E0
4.038647792E0,-6.323749695E0,7.876620483E-1,2.014660492E0,6.683492994E0
4.048681792E0,-7.056625671E0,9.509724426E-1,2.292033691E0,7.480222784E0
4.058715792E0,-7.477849731E0,9.009764099E-1,2.341430969E0,7.887477042E0
4.068749792E0,-7.504943390E0,5.837860107E-1,2.510429535E0,7.935189843E0
4.078783792E0,-7.598798218E0,1.384620667E-1,2.831960907E0,8.110543057E0
4.088817792E0,-7.842790833E0,-1.152603149E-1,2.606829071E0,8.265483095E0
4.098851792E0,-7.844287720E0,-1.032852173E-2,2.122735748E0,8.126436092E0
4.108885792E0,-8.010741577E0,-4.640350342E-3,1.989512787E0,8.254099786E0
4.118919792E0,-8.358618164E0,3.050656128E-1,1.957629089E0,8.590219688E0
4.128953792E0,-8.221652985E0,5.141807556E-1,1.528172150E0,8.378261739E0
4.138987792E0,-8.028404846E0,4.638853455E-1,1.260528717E0,8.139988123E0
4.149021792E0,-7.518265686E0,3.309617615E-1,1.049916687E0,7.598432711E0
4.159055792E0,-7.318431244E0,1.423539734E-1,6.747967529E-1,7.350853772E0
4.169089792E0,-8.110134888E0,-2.814147949E-2,1.354832611E0,8.222569625E0
4.179123792E0,-8.472231903E0,-8.831634521E-2,2.029329987E0,8.712329963E0
4.189157792E0,-9.365723877E0,-4.855902100E-1,2.484533386E0,9.701829092E0
4.199191792E0,-1.055155792E1,-8.833131409E-1,3.301534424E0,1.109124638E1
4.209225792E0,-1.143097916E1,-1.155896301E0,4.527185669E0,1.234904008E1
4.219259792E0,-1.186971680E1,-1.514700165E0,5.975573730E0,1.337505046E1
4.229293792E0,-1.196177536E1,-1.850302277E0,7.850874023E0,1.442719346E1
4.239327792E0,-1.208466980E1,-2.127076721E0,9.489217072E0,1.551157439E1
4.249362792E0,-1.245889160E1,-2.561174011E0,8.416547699E0,1.525194635E1
4.259396792E0,-1.339324860E1,-2.957100677E0,5.553301849E0,1.479738875E1
4.269430792E0,-1.452878723E1,-3.157084808E0,3.441194000E0,1.526088657E1
4.279464792E0,-1.504671021E1,-2.950813751E0,2.039957886E0,1.546842649E1
4.289498792E0,-1.489836868E1,-2.674787750E0,9.818083191E-1,1.516838246E1
4.299532792E0,-1.463087494E1,-2.563269653E0,1.070274353E-1,1.485410070E1
4.309566792E0,-1.440694061E1,-2.333497467E0,-4.876858521E-1,1.460284170E1
4.319600792E0,-1.404604111E1,-1.922751617E0,-1.058299255E0,1.421647783E1
4.329634792E0,-1.349518661E1,-1.558109894E0,-1.377435608E0,1.365449000E1
4.339668792E0,-1.255648865E1,-1.554667053E0,-1.586850128E0,1.275148972E1
4.349702792E0,-1.151690048E1,-1.652114410E0,-1.698068848E0,1.175805752E1
4.359736792E0,-1.075887680E1,-1.632505188E0,-1.541943512E0,1.099072759E1
4.369770792E0,-1.056263489E1,-1.754651184E0,-1.036744080E0,1.075745764E1
4.379804792E0,-1.069346283E1,-1.823957062E0,-5.379812622E-1,1.086123338E1
4.389838792E0,-1.072714279E1,-1.861977997E0,-1.531315613E-1,1.088861809E1
4.399872792E0,-1.073118439E1,-1.923200684E0,4.326004028E-2,1.090224246E1
4.409906792E0,-1.054706726E1,-1.948947144E0,1.466949463E-1,1.072662772E1
4.419940792E0,-1.003617966E1,-1.998045044E0,1.972897339E-1,1.023503832E1
4.429974792E0,-9.504485321E0,-2.130070496E0,2.279759216E-1,9.742916122E0
4.440008792E0,-9.000333710E0,-2.089205475E0,2.404000854E-1,9.242758171E0
4.450042792E0,-8.291856995E0,-1.844913483E0,3.086581421E-1,8.500227528E0
4.460076792E0,-7.484735413E0,-1.552721100E0,4.682263184E-1,7.658423003E0
4.470110792E0,-6.641239471E0,-1.409169617E0,6.102809143E-1,6.816470019E0
4.480144792E0,-5.779032440E0,-1.434167633E0,5.754034424E-1,5.982068360E0
4.490178792E0,-5.121150513E0,-1.424587555E0,4.960684204E-1,5.338699856E0
4.500212792E0,-4.719984741E0,-1.417701874E0,5.086422729E-1,4.954477926E0
4.510246792E0,-4.627177734E0,-1.301244049E0,4.810995483E-1,4.830679728E0
4.520281083E0,-4.651876373E0,-1.118773499E0,3.953279114E-1,4.800822022E0
4.530315083E0,-4.823120270E0,-8.957373047E-1,4.586462402E-1,4.926985978E0
4.540349083E0,-5.215753784E0,-9.262738037E-1,6.159690857E-1,5.333056217E0
4.550383083E0,-5.618117065E0,-9.946815491E-1,7.179071045E-1,5.750480098E0
4.560417083E0,-6.191873932E0,-8.211923218E-1,8.482859802E-1,6.303431504E0
4.570451083E0,-6.740932159E0,-5.816903687E-1,1.114881592E0,6.857221815E0
4.580485083E0,-7.063661041E0,-3.201841736E-1,1.330732727E0,7.195045156E0
4.590519083E0,-7.157665558E0,-1.743873596E-1,1.582060089E0,7.332496254E0
4.600554083E0,-7.363188171E0,-1.287322998E-1,1.726060638E0,7.563887716E0
4.610588083E0,-7.771688690E0,-1.694476318E-1,1.895657959E0,8.001335932E0
4.620622083E0,-8.272098083E0,-1.785786438E-1,2.012115784E0,8.515169227E0
4.630656083E0,-8.612041168E0,-1.700463867E-1,2.120939484E0,8.870995048E0
4.640690083E0,-8.976533203E0,-2.456391907E-1,2.352657623E0,9.282967459E0
4.650724083E0,-9.163045349E0,-5.718109131E-2,2.402653656E0,9.472983392E0
4.660758083E0,-9.284891968E0,1.799258423E-1,2.534379730E0,9.626249154E0
4.670792083E0,-9.730066223E0,3.125500488E-1,2.803370361E0,1.013068416E1
4.680826083E0,-1.020577698E1,3.248245239E-1,3.404071198E0,1.076341467E1
4.690860083E0,-1.061532532E1,3.890409851E-1,3.987108765E0,1.134607953E1
4.700894083E0,-1.113983459E1,3.335064697E-1,4.401596832E0,1.198253713E1
4.710928083E0,-1.186148392E1,5.987548828E-2,4.617148590E0,1.272856814E1
4.720962083E0,-1.250828888E1,-2.776725769E-1,4.854854279E0,1.342028326E1
4.730996083E0,-1.296079788E1,-5.565426636E-1,5.001100159E0,1.390334579E1
4.741030083E0,-1.309072769E1,-7.273374939E-1,5.211263123E0,1.410862979E1
4.751064083E0,-1.297097672E1,-9.825567627E-1,5.338199158E0,1.406086857E1
4.761098083E0,-1.268821472E1,-1.769769745E0,4.538562012E0,1.359122595E1
4.771132083E0,-1.311692322E1,-2.898422699E0,2.778821411E0,1.371773951E1
4.781166083E0,-1.473565704E1,-3.669319611E0,1.371298370E0,1.524742451E1
4.791200083E0,-1.651410873E1,-3.489992523E0,6.147715759E-1,1.689004971E1
4.801234083E0,-1.773077866E1,-3.037633209E0,2.474354553E-1,1.799080186E1
4.811268083E0,-1.818014420E1,-2.879262543E0,4.438270569E-1,1.841208240E1
4.821302083E0,-1.730581238E1,-2.853067017E0,6.384223938E-1,1.755103178E1
4.831336083E0,-1.581206863E1,-3.045267334E0,7.228468323E-1,1.611886085E1
4.841370083E0,-1.404544235E1,-3.612437897E0,8.484356689E-1,1.452735356E1
4.851404083E0,-1.234333191E1,-4.213737488E0,7.532336426E-1,1.306448572E1
4.861438083E0,-1.072789124E1,-4.452341309E0,3.489244080E-1,1.162035893E1
4.871472083E0,-9.476044464E0,-4.609065399E0,1.070274353E-1,1.053804334E1
4.881506083E0,-8.450676727E0,-4.686155090E0,6.586303711E-3,9.663023857E0
4.891540083E0,-7.584577789E0,-4.687202911E0,1.240919495E-1,8.916899135E0
4.901574083E0,-6.827452240E0,-4.302502899E0,3.016227722E-1,8.075680255E0
4.911608083E0,-6.244115295E0,-3.614982605E0,5.493576050E-2,7.215268047E0
4.921642083E0,-5.955365753E0,-3.143912201E0,-2.486329651E-1,6.738871087E0
4.931676083E0,-5.989943848E0,-2.744991760E0,-2.935395813E-1,6.595496384E0
4.941710083E0,-6.093229065E0,-2.252515869E0,-2.484832764E-1,6.501000855E0
4.951744083E0,-6.112089844E0,-1.738634491E0,-2.282752991E-1,6.358663520E0
4.961778083E0,-6.110592957E0,-1.379830627E0,-2.622546387E-1,6.269932722E0
4.971813083E0,-5.914800110E0,-9.571096802E-1,-3.318598938E-1,6.000920785E0
4.981847083E0,-5.728737030E0,-5.059478760E-1,-1.634600830E-1,5.753358186E0
4.991881083E0,-5.666017456E0,-1.612147522E-1,4.394860840E-1,5.685322509E0
5.001915083E0,-5.497617645E0,1.682501221E-1,1.003812561E0,5.591041722E0
5.011949083E0,-5.227728882E0,4.408332825E-1,1.405427399E0,5.431271437E0
5.021983083E0,-4.908742218E0,6.036946106E-1,1.801204376E0,5.263509718E0
5.032017083E0,-4.760849762E0,6.975494385E-1,2.009122009E0,5.214291603E0
5.042051083E0,-4.965474243E0,8.340655518E-1,2.267484741E0,5.522054586E0
5.052085083E0,-5.228327637E0,9.810598755E-1,2.735261993E0,5.981600666E0
5.062119083E0,-5.736371155E0,9.283694458E-1,3.214714966E0,6.640949944E0
5.072153083E0,-6.638245697E0,1.058299255E0,3.362757111E0,7.516278243E0
5.082187083E0,-7.524402924E0,1.047222290E0,3.664978638E0,8.434772214E0
5.092221083E0,-8.102949829E0,9.026229858E-1,3.904031525E0,9.039578880E0
5.102255083E0,-8.280780029E0,8.336164856E-1,4.094136200E0,9.275138035E0
5.112289083E0,-8.366851044E0,6.867718506E-1,4.336332550E0,9.448789973E0
5.122323083E0,-8.270301819E0,5.084925842E-1,4.442162476E0,9.401556485E0
5.132357083E0,-8.014483795E0,3.763174438E-1,4.655169525E0,9.275999603E0
5.142391083E0,-7.855214996E0,1.369651794E-1,4.717739410E0,9.164072634E0
5.152425083E0,-7.834857330E0,-3.426374817E-1,4.426145782E0,9.005173864E0
5.162459083E0,-7.823331299E0,-1.009650421E0,3.885021057E0,8.793025372E0
5.172493083E0,-7.930358734E0,-1.582359467E0,3.708388367E0,8.896437231E0
5.182527083E0,-8.340505829E0,-1.983974304E0,4.112996979E0,9.508782029E0
5.192561083E0,-9.079069977E0,-2.181713104E0,4.921016693E0,1.055489408E1
5.202595083E0,-9.831854553E0,-2.183659058E0,6.153254242E0,1.180238402E1
5.212629083E0,-1.083866089E1,-2.280058594E0,7.657176819E0,1.346505083E1
5.222663083E0,-1.221504868E1,-2.275118866E0,9.012159119E0,1.534935152E1
5.232697083E0,-1.355431366E1,-2.234852600E0,9.776020660E0,1.686074034E1
5.242731083E0,-1.474778183E1,-2.196232910E0,9.266779633E0,1.755544681E1
5.252765083E0,-1.553694077E1,-2.555036774E0,7.626490631E0,1.749537369E1
5.262799083E0,-1.588915833E1,-3.071612549E0,5.903423767E0,1.722644967E1
5.272833083E0,-1.589709183E1,-3.463946686E0,4.849315796E0,1.697740613E1
5.282867083E0,-1.555864563E1,-3.958817596E0,3.755091248E0,1.648770454E1
5.292901083E0,-1.495824417E1,-4.156406708E0,2.268233185E0,1.568979500E1
5.302935083E0,-1.405771683E1,-4.038601685E0,9.172924805E-1,1.465507187E1
5.312969083E0,-1.307426193E1,-3.579955444E0,-7.229965210E-2,1.355572327E1
5.323003083E0,-1.202733902E1,-2.952011261E0,-4.565505981E-1,1.239272742E1
5.333037083E0,-1.086979614E1,-2.400258636E0,-4.607418823E-1,1.114118453E1
5.343071083E0,-9.672885132E0,-2.054178314E0,-1.763333130E-1,9.890169299E0
5.353105083E0,-8.609646149E0,-1.967059479E0,7.589218140E-2,8.831822542E0
5.363139083E0,-8.054151306E0,-2.135309601E0,1.749861145E-1,8.334237847E0
5.373173083E0,-8.076604614E0,-2.337089996E0,1.968406677E-1,8.410248391E0
5.383207083E0,-8.605454865E0,-2.492466888E0,2.842588806E-1,8.963651473E0
5.393242083E0,-9.427994385E0,-2.565215607E0,3.903881836E-1,9.778538345E0
5.403276083E0,-1.020203476E1,-2.372865601E0,7.226971436E-1,1.049925214E1
5.413310083E0,-1.067535049E1,-2.145488434E0,1.074016571E0,1.094165163E1
5.423344083E0,-1.082084793E1,-1.930236053E0,1.199755096E0,1.105694232E1
5.433378083E0,-1.078162949E1,-1.606459351E0,1.274300079E0,1.097488436E1
5.443412083E0,-1.041564056E1,-1.343755646E0,1.425485687E0,1.059826670E1
5.453446083E0,-9.741592255E0,-1.241518250E0,1.497785339E0,9.933949272E0
5.463480083E0,-8.925788727E0,-1.082698517E0,1.405128021E0,9.100347533E0
5.473514083E0,-8.023914185E0,-8.999285889E-1,1.211430817E0,8.164596434E0
5.483548083E0,-7.113357697E0,-8.300239563E-1,9.306147766E-1,7.221830886E0
5.493582083E0,-6.206244049E0,-8.590635681E-1,6.313870239E-1,6.297150545E0
5.503616083E0,-5.271288300E0,-9.144483948E-1,4.113446045E-1,5.365808475E0
5.513650083E0,-4.546196136E0,-1.012943573E0,4.011657715E-1,4.674921173E0
5.523684292E0,-4.184548187E0,-1.088237000E0,4.385879517E-1,4.345924837E0
5.533718292E0,-4.049379272E0,-1.185534668E0,5.457650757E-1,4.254506371E0
5.543752292E0,-4.333488464E0,-1.094224548E0,8.819659424E-1,4.555690239E0
5.553786292E0,-4.956492920E0,-6.834786987E-1,1.303040314E0,5.170288121E0
5.563820292E0,-5.530549164E0,-4.337979126E-1,1.797462158E0,5.831468502E0
5.573854292E0,-6.012097778E0,-3.463796997E-1,2.263143768E0,6.433282079E0
5.583888292E0,-6.571185150E0,-3.055146790E-1,2.674638062E0,7.101232446E0
5.593922292E0,-6.957082672E0,-3.417393494E-1,3.148702240E0,7.644089932E0
5.603956292E0,-7.349865875E0,-3.333567810E-1,3.390449524E0,8.101037162E0
5.613990292E0,-7.766898651E0,-2.128573608E-1,3.567680969E0,8.549758500E0
5.624024292E0,-8.110733643E0,-9.071136475E-2,3.675905914E0,8.905308140E0
5.634058292E0,-8.398884430E0,-9.999206543E-2,3.639381866E0,9.154035091E0
5.644092292E0,-8.652157745E0,-1.095721436E-1,3.520379333E0,9.341568945E0
5.654126292E0,-9.228159943E0,5.837860107E-3,3.354973297E0,9.819104635E0
5.664160292E0,-9.982890472E0,7.813751221E-2,3.206931152E0,1.048563852E1
5.674194292E0,-1.071037766E1,1.101708984E-1,3.074007568E0,1.114333207E1
5.684228292E0,-1.139834702E1,-2.754272461E-2,3.137176208E0,1.182222263E1
5.694262292E0,-1.180789536E1,-1.519340515E-1,3.225941620E0,1.224157572E1
5.704296292E0,-1.219543945E1,-1.683998108E-1,3.436254272E0,1.267142239E1
5.714330292E0,-1.269300476E1,-1.628613281E-1,3.937861176E0,1.329081052E1
5.724364292E0,-1.296094757E1,-1.803749084E-1,4.331093445E0,1.366664068E1
5.734398292E0,-1.283880157E1,-3.698808289E-1,4.408632202E0,1.357967877E1
5.744432292E0,-1.256097931E1,-1.138532410E0,4.187841339E0,1.328956253E1
5.754466292E0,-1.263597336E1,-2.186503143E0,3.911216583E0,1.340694722E1
5.764500292E0,-1.357736572E1,-3.013383636E0,3.828139343E0,1.442497805E1
5.774534292E0,-1.472547821E1,-3.678001556E0,3.857178955E0,1.566030758E1
5.784568292E0,-1.525372971E1,-3.889212341E0,3.719165955E0,1.617511787E1
5.794602292E0,-1.521496033E1,-3.543880463E0,3.373684387E0,1.598236068E1
5.804636292E0,-1.455303680E1,-3.193159790E0,2.738255768E0,1.514876874E1
5.814670292E0,-1.348545685E1,-3.303630066E0,1.983375549E0,1.402516654E1
5.824704292E0,-1.244526993E1,-3.508703613E0,1.420096893E0,1.300816743E1
5.834738292E0,-1.134236343E1,-3.767365723E0,1.068328400E0,1.199931574E1
5.844772292E0,-1.003632935E1,-4.086352386E0,5.099894714E-1,1.084833037E1
5.854806292E0,-8.785380707E0,-4.126768341E0,-3.189866638E-1,9.711585020E0
5.864840292E0,-7.420518951E0,-4.090393982E0,-3.129991150E-1,8.478997163E0
5.874875292E0,-5.931864624E0,-4.129163361E0,3.348536682E-1,7.235270206E0
5.884909292E0,-4.817881165E0,-4.071982269E0,7.610174561E-1,6.353909512E0
5.894943292E0,-4.738695831E0,-3.999383240E0,1.227297821E0,6.321120504E0
5.904977292E0,-5.587879944E0,-3.925437012E0,1.922751617E0,7.094394392E0
5.915011292E0,-6.825057220E0,-3.464246063E0,2.225272522E0,7.970837136E0
5.925045292E0,-8.245154114E0,-2.739303589E0,2.321522369E0,8.993098277E0
5.935079292E0,-9.481582947E0,-1.867815857E0,2.505489807E0,9.983317606E0
5.945113292E0,-1.023197250E1,-9.750723267E-1,2.525548096E0,1.058406446E1
5.955147292E0,-1.044228516E1,-3.803590393E-1,2.626737671E0,1.077430940E1
5.965181292E0,-1.003602997E1,8.038284302E-2,2.746488647E0,1.040536202E1
5.975215292E0,-9.148076477E0,4.206253052E-1,2.844684448E0,9.589393020E0
5.985249292E0,-8.048163757E0,5.948629761E-1,2.710563354E0,8.513163661E0
5.995283292E0,-6.892716522E0,5.158273315E-1,2.282453613E0,7.279094270E0
6.005317292E0,-6.023025055E0,3.986210632E-1,1.751657410E0,6.285223405E0
6.015351292E0,-5.592370605E0,3.444337463E-1,1.562600555E0,5.816782967E0
6.025385292E0,-5.372328186E0,3.658392334E-1,1.739083557E0,5.658635887E0
6.035419292E0,-5.297783203E0,6.099815369E-1,1.937121735E0,5.673713507E0
6.045453292E0,-5.505251770E0,9.324110413E-1,2.196831665E0,6.000271391E0
6.055487292E0,-6.044879608E0,1.102158051E0,2.748584290E0,6.731273092E0
6.065521292E0,-6.689588928E0,1.361119537E0,3.436104584E0,7.642647521E0
6.075555292E0,-7.310198364E0,1.764081573E0,4.032314758E0,8.532909599E0
6.085589292E0,-7.790399780E0,2.075134735E0,4.479584656E0,9.222970866E0
6.095623292E0,-8.092920685E0,2.068698120E0,4.955145721E0,9.712278118E0
6.105657292E0,-8.305328979E0,1.978735199E0,5.084776154E0,9.937244637E0
6.115691292E0,-8.518485718E0,2.028880920E0,4.907694397E0,1.003824791E1
6.125725292E0,-8.471184082E0,1.948797455E0,4.342320099E0,9.716713185E0
6.135759292E0,-8.595276031E0,1.648821259E0,3.792812805E0,9.538491001E0
6.145793292E0,-8.869056702E0,1.014290771E0,3.251239014E0,9.500500391E0
6.155827292E0,-9.142238617E0,2.811154175E-1,2.731070709E0,9.545590606E0
6.165861292E0,-9.475445709E0,-2.372566223E-1,2.940036163E0,9.923919323E0
6.175895292E0,-9.994715881E0,-6.309379578E-1,3.942202148E0,1.076259198E1
6.185929292E0,-1.078357544E1,-1.012494507E0,5.318739624E0,1.206646740E1
6.195963292E0,-1.150013535E1,-1.483265533E0,6.928192749E0,1.350751807E1
6.205997292E0,-1.188678131E1,-2.233954468E0,8.359965363E0,1.470289575E1
6.216031292E0,-1.214873657E1,-3.122357025E0,9.094787292E0,1.549374292E1
6.226065292E0,-1.243868362E1,-3.830684052E0,8.783135376E0,1.570154316E1
6.236099292E0,-1.282248550E1,-4.465962982E0,8.070916443E0,1.579558964E1
6.246133292E0,-1.338741074E1,-5.078339539E0,7.394772491E0,1.611505380E1
6.256167292E0,-1.399589539E1,-5.714366913E0,6.988217926E0,1.665455693E1
6.266201292E0,-1.437984695E1,-5.994883575E0,6.480024719E0,1.687333245E1
6.276235292E0,-1.381372421E1,-5.799240417E0,5.338199158E0,1.590429301E1
6.286269292E0,-1.252490433E1,-5.554798737E0,3.984564056E0,1.426904931E1
6.296303292E0,-1.117486176E1,-5.310057678E0,2.655926971E0,1.265417701E1
6.306337292E0,-9.911938019E0,-4.836592255E0,1.565594330E0,1.113957923E1
6.316371292E0,-8.944350128E0,-4.386478271E0,8.632548523E-1,9.999389970E0
6.326405292E0,-8.067922668E0,-4.053570557E0,3.270698547E-1,9.034920317E0
6.336439292E0,-7.204368439E0,-3.813170471E0,6.765930176E-2,8.151550247E0
6.346473292E0,-6.720275116E0,-3.552113342E0,2.174977112E-1,7.604400837E0
6.356507292E0,-6.889872437E0,-3.389401703E0,5.292993164E-1,7.696657967E0
6.366541292E0,-7.746241608E0,-3.273542633E0,8.321195984E-1,8.450607282E0
6.376576292E0,-9.003926239E0,-3.171903992E0,1.106798401E0,9.610237528E0
6.386609292E0,-1.007390121E1,-3.169808350E0,1.110241241E0,1.061903038E1
6.396644292E0,-1.104942261E1,-3.293900299E0,9.984237671E-1,1.157308814E1
6.406678292E0,-1.179187866E1,-3.131488037E0,8.355624390E-1,1.222917758E1
6.416712292E0,-1.199066528E1,-2.740950165E0,7.451504517E-1,1.232250425E1
6.426746292E0,-1.168335434E1,-2.335293732E0,7.060816956E-1,1.193536413E1
6.436780292E0,-1.124222168E1,-1.875300293E0,7.732919312E-1,1.142375945E1
6.446814292E0,-1.073986633E1,-1.390159149E0,9.102571106E-1,1.086765105E1
6.456848292E0,-1.013153137E1,-1.035546570E0,1.014290771E0,1.023469933E1
6.466882292E0,-9.499246216E0,-8.184979248E-1,1.005159760E0,9.587281349E0
6.476916292E0,-8.784781952E0,-6.023474121E-1,9.888436890E-1,8.860757766E0
6.486950292E0,-8.090076599E0,-5.360353088E-1,8.907975769E-1,8.156604291E0
6.496984292E0,-7.428452454E0,-5.670208740E-1,8.815168762E-1,7.502032427E0
6.507018292E0,-6.850354614E0,-5.528004456E-1,9.434880066E-1,6.937082693E0
6.517052292E0,-6.489155731E0,-5.599855042E-1,1.093625793E0,6.604448746E0
6.527085583E0,-6.228847046E0,-6.352789307E-1,1.287322998E0,6.392129171E0
6.537119583E0,-5.932463379E0,-7.566764832E-1,1.282532959E0,6.116499966E0
6.547153583E0,-5.698200531E0,-9.433383179E-1,1.370549927E0,5.936142146E0
6.557187583E0,-5.624403992E0,-1.030307465E0,1.634151764E0,5.946924055E0
6.567221583E0,-5.770799561E0,-9.939331055E-1,1.903292084E0,6.157316895E0
6.577255583E0,-6.139931946E0,-9.668394470E-1,2.157463531E0,6.579376240E0
6.587289583E0,-6.695277100E0,-8.029302979E-1,2.381547546E0,7.151447491E0
6.597323583E0,-7.368427277E0,-5.908213806E-1,2.609074402E0,7.839008845E0
6.607357583E0,-7.793992310E0,-4.608915710E-1,2.747386780E0,8.276887777E0
6.617391583E0,-7.865543518E0,-5.358856201E-1,2.748135223E0,8.349023622E0
6.627425583E0,-7.951913910E0,-5.665718079E-1,2.595153351E0,8.383839178E0
6.637459583E0,-8.118816833E0,-6.836283875E-1,2.230062561E0,8.447231119E0
6.647493583E0,-8.467591553E0,-7.222480774E-1,1.835034027E0,8.694199151E0
6.657527583E0,-9.285790100E0,-4.977149963E-1,1.746567993E0,9.461718541E0
6.667561583E0,-1.019754410E1,-4.225712585E-1,1.943408661E0,1.038967321E1
6.677595583E0,-1.090197922E1,-6.047424316E-1,2.243235168E0,1.114679184E1
6.687629583E0,-1.141136993E1,-6.900650024E-1,2.664309540E0,1.173857312E1
6.697663583E0,-1.182196609E1,-5.813909912E-1,3.109334106E0,1.223784525E1
6.707697583E0,-1.224872864E1,-5.324427795E-1,3.594026184E0,1.277622295E1
6.717731583E0,-1.281051041E1,-6.598278809E-1,4.120930481E0,1.347318143E1
6.727765583E0,-1.386282211E1,-6.262976074E-1,4.468358002E0,1.457862507E1
6.737799583E0,-1.495120880E1,-4.610412598E-1,4.818180542E0,1.571515407E1
6.747833583E0,-1.564157318E1,-5.804928589E-1,5.313051453E0,1.652949785E1
6.757867583E0,-1.541644135E1,-8.961863708E-1,5.670807495E0,1.645077115E1
6.767901583E0,-1.460108688E1,-1.391057281E0,5.514233093E0,1.566951005E1
6.777935583E0,-1.372421036E1,-2.023941193E0,4.660708008E0,1.463463314E1
6.787969583E0,-1.316721863E1,-2.402503967E0,3.315156097E0,1.378905115E1
6.798003583E0,-1.278371613E1,-2.592159576E0,2.154170380E0,1.322055745E1
6.808037583E0,-1.217508179E1,-2.700085144E0,1.380130005E0,1.254702495E1
6.818071583E0,-1.133727402E1,-2.885399780E0,1.049467621E0,1.174566713E1
6.828105583E0,-1.059032730E1,-3.215762787E0,9.560618591E-1,1.110901512E1
6.838139583E0,-1.002764740E1,-3.640130310E0,7.438032532E-1,1.069380682E1
6.848173583E0,-9.637109528E0,-3.964206390E0,5.821394348E-1,1.043684333E1
6.858207583E0,-9.338480530E0,-4.199666748E0,7.509883118E-1,1.026685944E1
6.868241583E0,-8.958121490E0,-4.560566254E0,1.005459137E0,1.010235880E1
6.878275583E0,-8.603209534E0,-4.843028870E0,1.284329224E0,9.955884916E0
6.888309583E0,-8.115523682E0,-4.717589722E0,1.414857788E0,9.493113292E0
6.898343583E0,-7.506589966E0,-4.522844696E0,1.332079926E0,8.864505287E0
6.908377583E0,-6.935228119E0,-4.268972626E0,1.337169342E0,8.252850307E0
6.918412583E0,-6.591542816E0,-3.692221985E0,1.398242340E0,7.683490192E0
6.928446583E0,-6.560557251E0,-3.069217529E0,1.262923737E0,7.352277474E0
6.938480583E0,-6.748865662E0,-2.496358795E0,1.030756531E0,7.269212748E0
6.948514583E0,-6.789431305E0,-1.931732941E0,7.502398682E-1,7.098649833E0
6.958548583E0,-6.614894257E0,-1.408421173E0,3.183879089E-1,6.770660757E0
6.968582583E0,-6.589746552E0,-1.033450928E0,1.070274353E-1,6.671149474E0
6.978616583E0,-6.702312469E0,-6.484515381E-1,7.499404907E-2,6.734025983E0
6.988650583E0,-6.740932159E0,-1.974394226E-1,2.579136658E-1,6.748753082E0
6.998684583E0,-6.631360016E0,1.002914429E-1,8.286767578E-1,6.683689041E0
7.008718583E0,-6.587650909E0,3.387455750E-1,1.512903900E0,6.767626710E0
7.018752583E0,-6.539750519E0,4.234693909E-1,1.738185425E0,6.780040689E0
7.028786583E0,-6.314618683E0,1.678010559E-1,1.585203552E0,6.512713460E0
7.038820583E0,-6.253994751E0,-2.389031982E-1,1.539698181E0,6.445168390E0
7.048854583E0,-6.541696472E0,-4.561015320E-1,1.487905884E0,6.724260945E0
7.058888583E0,-6.978488159E0,-5.966592407E-1,1.997895355E0,7.283329259E0
7.068922583E0,-7.463030548E0,-5.173242188E-1,2.658920746E0,7.939414893E0
7.078956583E0,-7.985144806E0,-4.264631653E-1,3.531755676E0,8.741722174E0
7.088990583E0,-8.253836060E0,-2.404000854E-1,4.130809937E0,9.232940628E0
7.099024583E0,-8.266110535E0,-7.484436035E-3,4.579726410E0,9.450001766E0
7.109058583E0,-8.197403412E0,3.891906738E-2,4.927453308E0,9.564451552E0
7.119092583E0,-8.226143646E0,2.005828857E-2,5.231770477E0,9.748910911E0
7.129126583E0,-8.301886139E0,-6.212081909E-2,5.354814606E0,9.879231343E0
7.139160583E0,-8.394094391E0,-3.242257690E-1,5.422174530E0,9.998295836E0
7.149194583E0,-8.636889496E0,-4.999603271E-1,5.497767334E0,1.025042761E1
7.159228583E0,-9.075028381E0,-5.273533630E-1,5.441634064E0,1.059460348E1
7.169262583E0,-9.387578430E0,-6.403683472E-1,5.346282349E0,1.082217332E1
7.179296583E0,-9.395362244E0,-8.572673035E-1,5.270689545E0,1.080684539E1
7.189330583E0,-9.392218781E0,-1.319506073E0,5.364244995E0,1.089632939E1
7.199364583E0,-9.715546417E0,-2.003882904E0,5.624403992E0,1.140356563E1
7.209398583E0,-1.043914169E1,-2.392774200E0,5.984255676E0,1.226834804E1
7.219432583E0,-1.101095261E1,-2.626887360E0,6.353238373E0,1.298095730E1
7.229466583E0,-1.152438492E1,-2.829565887E0,6.668632507E0,1.361207370E1
7.239500583E0,-1.208691513E1,-3.020119629E0,6.978188782E0,1.427969743E1
7.249534583E0,-1.260169464E1,-2.969973907E0,6.861281891E0,1.465266672E1
7.259568583E0,-1.304836578E1,-2.976709900E0,6.549180908E0,1.490008128E1
7.269602583E0,-1.351793930E1,-3.002905426E0,5.980214081E0,1.508360316E1
7.279636583E0,-1.383767441E1,-3.000660095E0,5.134921875E0,1.506162729E1
7.289670583E0,-1.356389374E1,-3.078198853E0,3.892954559E0,1.444332430E1
7.299704583E0,-1.291678940E1,-3.041824493E0,2.577340393E0,1.351809262E1
7.309738583E0,-1.201521423E1,-2.784359894E0,1.703757019E0,1.245073576E1
7.319772583E0,-1.103819595E1,-2.418820038E0,1.144819336E0,1.135795191E1
7.329806583E0,-1.024409729E1,-2.059417419E0,8.975335693E-1,1.048753050E1
7.339840583E0,-9.589059448E0,-1.796564026E0,7.691006470E-1,9.786174902E0
7.349874583E0,-9.118138733E0,-1.645677795E0,4.650828552E-1,9.277123014E0
7.359908583E0,-8.786727905E0,-1.660047913E0,2.508782959E-1,8.945685344E0
7.369942583E0,-8.688681793E0,-1.729204102E0,2.778222656E-1,8.863437445E0
7.379976583E0,-8.951684875E0,-1.902992706E0,3.065625000E-1,9.156856661E0
7.390010583E0,-9.428144073E0,-2.156116333E0,3.986210632E-1,9.679753977E0
7.400044583E0,-9.835297394E0,-2.339335327E0,5.405259705E-1,1.012411640E1
7.410078583E0,-1.027852570E1,-2.330653381E0,5.944139099E-1,1.055620024E1
7.420112583E0,-1.063358734E1,-2.166893921E0,7.138655090E-1,1.087557874E1
7.430146583E0,-1.069211563E1,-1.863624573E0,9.843530273E-1,1.089786145E1
7.440180583E0,-1.056053925E1,-1.421893158E0,1.153201904E0,1.071805225E1
7.450214583E0,-1.027628036E1,-1.257085876E0,1.152752838E0,1.041686335E1
7.460248583E0,-9.887389069E0,-1.420545959E0,9.886940002E-1,1.003772530E1
7.470282583E0,-9.313183136E0,-1.347497864E0,4.854405212E-1,9.422673884E0
7.480316583E0,-8.376281433E0,-1.303489380E0,2.918930054E-1,8.482121005E0
7.490350583E0,-7.536378021E0,-1.428629150E0,1.190025330E-1,7.671514618E0
7.500384583E0,-6.712191925E0,-1.320553894E0,-2.817141724E-1,6.846659470E0
7.510418583E0,-5.955066376E0,-1.090781708E0,-4.688250732E-1,6.072266235E0
7.520453583E0,-5.357209625E0,-9.532177734E-1,-2.398013306E-1,5.446634169E0
7.530488042E0,-4.844525757E0,-8.931925964E-1,2.067201233E-1,4.930512756E0
7.540522042E0,-4.422553253E0,-8.660989380E-1,7.726931763E-1,4.572325381E0
7.550556042E0,-4.292324066E0,-7.056326294E-1,1.254391479E0,4.527191324E0
7.560590042E0,-4.756508789E0,-5.724096680E-1,1.711091766E0,5.087225543E0
7.570624042E0,-5.368885345E0,-6.777905273E-1,2.147733765E0,5.822120763E0
7.580658042E0,-5.882617035E0,-8.345146179E-1,2.318977661E0,6.378029102E0
7.590692042E0,-6.325096893E0,-9.749226379E-1,2.331252136E0,6.811171807E0
7.600726042E0,-6.662046204E0,-1.203647003E0,2.277214508E0,7.142641783E0
7.610760042E0,-6.868766327E0,-1.340163116E0,2.339185638E0,7.378873727E0
7.620794042E0,-7.082521820E0,-1.493743744E0,2.603685608E0,7.692370535E0
7.630828042E0,-7.388485565E0,-1.565444641E0,2.891537018E0,8.087108395E0
7.640862042E0,-7.688910828E0,-1.612746277E0,3.333268433E0,8.534106791E0
7.650896042E0,-7.981402588E0,-1.475930786E0,3.783532104E0,8.955237247E0
7.660930042E0,-8.288114777E0,-1.302591248E0,4.128265228E0,9.350516793E0
7.670964042E0,-8.783734131E0,-1.183588715E0,4.433031464E0,9.909926109E0
7.680998042E0,-9.612410889E0,-1.052012329E0,4.653073883E0,1.073108893E1
7.691032042E0,-1.070424042E1,-1.090033264E0,4.862039337E0,1.180713183E1
7.701066042E0,-1.185205353E1,-1.238524475E0,5.156027985E0,1.298421119E1
7.711100042E0,-1.302306839E1,-1.314716034E0,5.338648224E0,1.413612229E1
7.721134042E0,-1.422791290E1,-1.301543427E0,5.552104340E0,1.532818918E1
7.731168042E0,-1.500539612E1,-1.218765564E0,5.847290497E0,1.615048322E1
7.741202042E0,-1.528037430E1,-1.055904236E0,6.050418091E0,1.646852548E1
7.751236042E0,-1.541704010E1,-1.159937897E0,6.050418091E0,1.660235346E1
7.761270042E0,-1.542931458E1,-1.624571686E0,5.463488617E0,1.644848593E1
7.771304042E0,-1.528082336E1,-2.178569641E0,4.602628784E0,1.610695254E1
7.781338042E0,-1.496438141E1,-2.799328766E0,3.772305450E0,1.568436294E1
7.791372042E0,-1.424602524E1,-3.323688354E0,2.922073517E0,1.491759542E1
7.801406042E0,-1.332469116E1,-3.608545990E0,1.927391968E0,1.393857376E1
7.811440042E0,-1.268761597E1,-3.369642792E0,1.101110229E0,1.317355439E1
7.821474042E0,-1.244586868E1,-2.762655029E0,8.279283142E-1,1.277565558E1
7.831508042E0,-1.207838287E1,-2.400558014E0,5.984555054E-1,1.232915896E1
7.841542042E0,-1.129431335E1,-2.368674316E0,2.103126526E-1,1.154193933E1
7.851576042E0,-1.011671219E1,-2.586172028E0,-1.603166199E-1,1.044326830E1
7.861610042E0,-8.901090088E0,-3.156635742E0,-5.149291992E-1,9.458271832E0
7.871644042E0,-8.293653259E0,-3.763773193E0,-6.286926270E-1,9.129399074E0
7.881678042E0,-8.147108002E0,-4.128115540E0,-2.573149109E-1,9.136898690E0
7.891712042E0,-7.495213623E0,-4.298610992E0,-3.248245239E-2,8.640447837E0
7.901746042E0,-7.288792877E0,-4.166884918E0,4.745132446E-2,8.395932536E0
7.911780042E0,-7.564519501E0,-3.928131409E0,4.047583008E-1,8.533229220E0
7.921814042E0,-7.771838379E0,-3.609893188E0,9.014254761E-1,8.616575219E0
7.931848042E0,-8.022566986E0,-3.036884766E0,1.233884125E0,8.666413339E0
7.941882042E0,-8.289911041E0,-2.457140350E0,1.370549927E0,8.754345828E0
7.951916042E0,-8.481362915E0,-1.816921692E0,1.235081635E0,8.761286890E0
7.961950042E0,-8.216114502E0,-1.187330933E0,1.014290771E0,8.363197835E0
7.971984042E0,-7.908953247E0,-8.361611938E-1,9.746232605E-1,8.012527535E0
7.982018042E0,-7.388036499E0,-4.935237122E-1,7.505392456E-1,7.442443021E0
7.992052042E0,-6.672674103E0,-2.167492676E-1,4.935237122E-1,6.694410025E0
8.002086042E0,-5.971681824E0,-5.284011841E-2,5.583389282E-1,5.997959506E0
8.012120042E0,-5.404660950E0,1.480421448E-1,6.147715759E-1,5.441527410E0
8.022154042E0,-5.251828766E0,2.926414490E-1,9.325607300E-1,5.342004672E0
8.032188042E0,-5.354066162E0,5.625302124E-1,1.479523315E0,5.583140151E0
8.042222042E0,-5.522765350E0,7.819738770E-1,1.783840485E0,5.856151222E0
8.052256042E0,-5.944438477E0,8.756790161E-1,2.092798004E0,6.362622575E0
8.062290042E0,-6.449937286E0,9.806108093E-1,2.507435760E0,6.989314891E0
8.072324042E0,-6.879543915E0,9.457333374E-1,2.948867798E0,7.544425579E0
8.082358042E0,-7.323370972E0,8.725355530E-1,3.478466492E0,8.154312345E0
8.092392042E0,-7.716303864E0,8.759783936E-1,3.990850983E0,8.731298588E0
8.102426042E0,-7.959548035E0,8.845106506E-1,4.490212555E0,9.181436314E0
8.112460042E0,-8.127947845E0,1.006506958E0,4.761897583E0,9.473766992E0
8.122494042E0,-8.240364075E0,1.177002411E0,4.817282410E0,9.617439606E0
8.132528042E0,-8.322094116E0,9.837542725E-1,4.733606415E0,9.624554672E0
8.142562042E0,-8.685987396E0,6.602769470E-1,4.193379822E0,9.667821731E0
8.152596042E0,-9.317973175E0,3.366499329E-1,3.289259949E0,9.887223487E0
8.162630042E0,-9.916129303E0,1.451980591E-1,2.435435486E0,1.021185825E1
8.172665042E0,-1.043165726E1,1.272354126E-1,2.503992920E0,1.072872977E1
8.182698042E0,-1.080752563E1,-8.711883545E-2,3.138822784E0,1.125443950E1
8.192733042E0,-1.085647385E1,-5.870791626E-1,3.649860077E0,1.146861652E1
8.202767042E0,-1.093790451E1,-1.011746063E0,4.404590607E0,1.183477096E1
8.212801042E0,-1.128727798E1,-1.454375610E0,5.234913940E0,1.252685821E1
8.222835042E0,-1.175819870E1,-1.909579010E0,6.251000977E0,1.345275964E1
8.232869042E0,-1.218091965E1,-2.330204315E0,7.419620819E0,1.445183133E1
8.242903042E0,-1.301633240E1,-2.680625610E0,7.660769348E0,1.533942795E1
8.252937042E0,-1.403705978E1,-2.799029388E0,6.834786987E0,1.586152345E1
8.262971042E0,-1.479508347E1,-2.721490631E0,6.362070007E0,1.633330771E1
8.273005042E0,-1.534743484E1,-2.262545013E0,6.064788208E0,1.665666600E1
8.283039042E0,-1.503234009E1,-1.853745117E0,5.413043518E0,1.608442289E1
8.293073042E0,-1.385039795E1,-2.024390259E0,3.323388977E0,1.438668112E1
8.303107042E0,-1.265139130E1,-1.961221619E0,1.150806885E0,1.285412185E1
8.313141042E0,-1.166149979E1,-1.449735260E0,-1.107696533E-1,1.175179048E1
8.323175042E0,-1.090946365E1,-1.210233307E0,-7.943980408E-1,1.100509564E1
8.333209042E0,-1.018152740E1,-1.226399689E0,-1.197509766E0,1.032480441E1
8.343243042E0,-9.525741119E0,-1.110091553E0,-1.307081909E0,9.678869265E0
8.353277042E0,-9.109307098E0,-9.913883972E-1,-1.461560669E0,9.278927005E0
8.363311042E0,-9.073830872E0,-1.008752289E0,-1.564097443E0,9.262741963E0
8.373345042E0,-9.558972015E0,-1.059496765E0,-1.291065216E0,9.703779098E0
8.383379042E0,-1.028630951E1,-1.010997620E0,-8.619076538E-1,1.037174837E1
8.393413042E0,-1.091949280E1,-1.063238983E0,-4.417314148E-1,1.098002399E1
8.403447042E0,-1.133008896E1,-1.072669373E0,3.457809448E-2,1.138080538E1
8.413481042E0,-1.132844238E1,-1.007554779E0,4.661306763E-1,1.138270843E1
8.423515042E0,-1.110525650E1,-9.599537659E-1,7.580236816E-1,1.117241393E1
8.433549042E0,-1.079255676E1,-8.316705322E-1,8.797206116E-1,1.086024243E1
8.443583042E0,-1.025457550E1,-7.911048889E-1,9.136999512E-1,1.032555147E1
8.453617042E0,-9.418414307E0,-9.246272278E-1,9.589059448E-1,9.512148242E0
8.463651042E0,-8.472980347E0,-8.753796387E-1,1.156944122E0,8.596290198E0
8.473685042E0,-7.481591949E0,-7.292834473E-1,1.229543152E0,7.616944847E0
8.483719042E0,-6.576424255E0,-7.234455872E-1,1.035546570E0,6.696647385E0
8.493753042E0,-5.695805511E0,-8.035290527E-1,7.550299072E-1,5.801545443E0
8.503787042E0,-4.963677979E0,-8.583151245E-1,5.351371765E-1,5.065686106E0
8.513821042E0,-4.301604767E0,-9.686357117E-1,4.370910645E-1,4.430926236E0
8.523855167E0,-3.789220276E0,-1.117875366E0,4.644841003E-1,3.977886513E0
8.533889167E0,-3.569926300E0,-1.163380737E0,5.860313416E-1,3.800165952E0
8.543923167E0,-3.492836609E0,-1.046324158E0,7.273374939E-1,3.718026580E0
8.553957167E0,-3.731739807E0,-9.087602234E-1,9.927355957E-1,3.967020430E0
8.563991167E0,-4.349954224E0,-6.415658569E-1,1.352437592E0,4.600303896E0
8.574025167E0,-5.069058838E0,-3.826043701E-1,1.750908966E0,5.376562639E0
8.584059167E0,-5.844147034E0,-2.790197754E-1,2.207908630E0,6.253540366E0
8.594093167E0,-6.485263824E0,-2.883004761E-1,2.398911438E0,6.920732629E0
8.604127167E0,-7.154821472E0,-4.128414917E-1,2.432441711E0,7.568268037E0
8.614161167E0,-7.856113129E0,-5.267546082E-1,2.487976227E0,8.257482038E0
8.624195167E0,-8.525371399E0,-6.248007202E-1,2.541115723E0,8.917937124E0
8.634229167E0,-9.072783051E0,-6.698570251E-1,2.550695801E0,9.448288193E0
8.644263167E0,-9.442963257E0,-6.668632507E-1,2.429597626E0,9.773290453E0
8.654297167E0,-9.720486145E0,-5.914201355E-1,2.359992371E0,1.002033895E1
8.664331167E0,-1.008063721E1,-5.984555054E-1,2.356699219E0,1.036973610E1
8.674365167E0,-1.062280975E1,-8.262817383E-1,2.549198914E0,1.095560330E1
8.684399167E0,-1.132694550E1,-1.124910736E0,3.036585388E0,1.178074570E1
8.694433167E0,-1.192764633E1,-9.904902649E-1,3.278931427E0,1.240972237E1
8.704467167E0,-1.242221786E1,-5.906716919E-1,3.665876770E0,1.296530147E1
8.714501167E0,-1.282098862E1,-4.400848389E-1,4.202211456E0,1.349925942E1
8.724535167E0,-1.338486603E1,-5.258564758E-1,4.456981659E0,1.411721818E1
8.734569167E0,-1.410217438E1,-8.141569519E-1,4.455484772E0,1.481166831E1
8.744603167E0,-1.493848526E1,-1.283730469E0,4.175866241E0,1.556419496E1
8.754637167E0,-1.602672226E1,-1.995500336E0,3.490441589E0,1.652334804E1
8.764671167E0,-1.712034805E1,-2.654130707E0,2.505489807E0,1.750509087E1
8.774705167E0,-1.714040634E1,-3.152893524E0,1.693727875E0,1.751008227E1
8.784739167E0,-1.634690643E1,-3.236270142E0,1.566791840E0,1.673767102E1
8.794773167E0,-1.529085251E1,-3.052602081E0,1.690883789E0,1.568399305E1
8.804807167E0,-1.397628616E1,-2.910697174E0,1.820214844E0,1.439173079E1
8.814841167E0,-1.244841339E1,-2.883603516E0,2.168390808E0,1.296071309E1
8.824875167E0,-1.108879074E1,-3.079246674E0,2.342478790E0,1.174437087E1
8.834909167E0,-9.749974823E0,-3.553310852E0,2.034569092E0,1.057485217E1
8.844943167E0,-8.476423187E0,-4.412374420E0,1.541494446E0,9.679617926E0
8.854977167E0,-7.787705383E0,-5.174140320E0,1.279239807E0,9.436977147E0
8.865011167E0,-7.552993469E0,-5.482050018E0,1.367855530E0,9.432476425E0
8.875045167E0,-7.241790619E0,-5.392985229E0,1.359922028E0,9.131112143E0
8.885079167E0,-7.040908356E0,-5.185816040E0,1.545386353E0,8.880050532E0
8.895113167E0,-7.126380615E0,-4.857848053E0,2.043101349E0,8.863309286E0
8.905147167E0,-7.258106689E0,-4.293820953E0,2.388283539E0,8.764753810E0
8.915181167E0,-7.399113464E0,-3.768862610E0,2.496807861E0,8.670943139E0
8.925215167E0,-7.601043549E0,-3.344195709E0,2.510728912E0,8.675440487E0
8.935250167E0,-7.811206512E0,-2.992576904E0,2.352657623E0,8.689387873E0
8.945284167E0,-7.921826477E0,-2.655178528E0,2.040556641E0,8.600533655E0
8.955318167E0,-7.825426941E0,-2.298170929E0,1.740430756E0,8.339544091E0
8.965352167E0,-7.747588806E0,-2.040556641E0,1.479523315E0,8.147269049E0
8.975386167E0,-7.566166077E0,-1.766326904E0,1.204245758E0,7.862377991E0
8.985420167E0,-7.247329102E0,-1.532213745E0,9.361532593E-1,7.466447682E0
8.995454167E0,-6.988816681E0,-1.334474945E0,8.357121277E-1,7.163993072E0
9.005488167E0,-6.761589203E0,-1.134939880E0,1.044827271E0,6.935332804E0
9.015522167E0,-6.492897949E0,-9.611512756E-1,1.434467010E0,6.718573595E0
9.025556167E0,-6.275849304E0,-8.982820129E-1,1.795665894E0,6.589204130E0
9.035590167E0,-6.355483704E0,-7.450007629E-1,2.245181122E0,6.781448040E0
9.045624167E0,-6.603966980E0,-4.740641785E-1,2.530487823E0,7.088052295E0
9.055658167E0,-6.800508270E0,-2.426454163E-1,2.774779816E0,7.348822529E0
9.065692167E0,-7.114405518E0,-3.757186890E-2,3.197051697E0,7.799828015E0
9.075726167E0,-7.711214447E0,2.338137817E-1,3.649411011E0,8.534383273E0
9.085760167E0,-8.364306335E0,4.846920776E-1,4.184847565E0,9.365334806E0
9.095794167E0,-8.645571442E0,6.056405640E-1,4.685706024E0,9.852337133E0
9.105828167E0,-8.554111633E0,5.914201355E-1,4.855003967E0,9.853611883E0
9.115862167E0,-8.353229370E0,5.486091614E-1,4.941973114E0,9.721137340E0
9.125896167E0,-8.226742401E0,4.013154602E-1,5.143454132E0,9.710585206E0
9.135930167E0,-8.091872864E0,2.239343262E-1,5.141508179E0,9.589768474E0
9.145964167E0,-7.813601532E0,-2.469863892E-2,5.135670319E0,9.350298848E0
9.155998167E0,-7.687713318E0,-5.891748047E-1,5.069956970E0,9.227812671E0
9.166032167E0,-7.664361877E0,-1.309177551E0,4.690795441E0,9.080746154E0
9.176066167E0,-7.817493439E0,-1.931283875E0,4.357887726E0,9.156104330E0
9.186100167E0,-8.251291351E0,-2.289488983E0,4.225263519E0,9.548739214E0
9.196134167E0,-8.906778259E0,-2.608325958E0,4.358486481E0,1.025331496E1
9.206168167E0,-9.686955872E0,-2.963836670E0,4.761149139E0,1.119330081E1
9.216202167E0,-1.049856812E1,-3.192261658E0,5.303022308E0,1.218739154E1
9.226236167E0,-1.101708984E1,-3.267555084E0,5.933960266E0,1.293309976E1
9.236270167E0,-1.096679443E1,-3.129691772E0,6.220314789E0,1.299068385E1
9.246304167E0,-1.062221100E1,-3.210523682E0,6.058800659E0,1.264309670E1
9.256338167E0,-1.005638763E1,-3.677402802E0,5.587281189E0,1.207774543E1
9.266372167E0,-9.598639526E0,-4.199367371E0,4.816384277E0,1.153109382E1
9.276406167E0,-9.431736603E0,-4.599185944E0,3.925137634E0,1.120343127E1
9.286440167E0,-9.645791473E0,-4.844675446E0,3.249742126E0,1.127266593E1
9.296474167E0,-1.033271301E1,-4.720284119E0,2.846031647E0,1.171093235E1
9.306508167E0,-1.074360855E1,-4.636608124E0,2.403252411E0,1.194566372E1
9.316542167E0,-1.095706467E1,-4.685706024E0,1.978435822E0,1.208003789E1
9.326576167E0,-1.123832977E1,-4.601580963E0,1.760938110E0,1.227092117E1
9.336610167E0,-1.120854172E1,-4.368066559E0,1.848506012E0,1.217080061E1
9.346644167E0,-1.074405762E1,-4.281995544E0,2.114951935E0,1.175769032E1
9.356678167E0,-1.023810974E1,-4.062252502E0,2.317031708E0,1.125563958E1
9.366712167E0,-9.917626190E0,-3.853586426E0,2.490670624E0,1.092761995E1
9.376746167E0,-9.701026611E0,-3.723955994E0,2.465971985E0,1.067983068E1
9.386780167E0,-9.596843262E0,-3.729195099E0,2.377356262E0,1.056684056E1
9.396814167E0,-9.497599640E0,-3.691623230E0,2.153421936E0,1.041487912E1
9.406848167E0,-9.476044464E0,-3.585044861E0,1.825903015E0,1.029475047E1
9.416882167E0,-9.365424500E0,-3.509901123E0,1.579964447E0,1.012555527E1
9.426916167E0,-9.182355194E0,-3.345243530E0,1.517244873E0,9.889809563E0
9.436950167E0,-9.030121765E0,-3.154240723E0,1.438957672E0,9.672793434E0
9.446984167E0,-8.739575958E0,-2.942880249E0,1.422192535E0,9.330775086E0
9.457018167E0,-8.426576843E0,-2.604284363E0,1.439257050E0,8.936495689E0
9.467052167E0,-7.977360992E0,-2.374212799E0,1.643133087E0,8.483811712E0
9.477086167E0,-7.177873535E0,-2.197879486E0,1.943857727E0,7.754426193E0
9.487120167E0,-6.193670197E0,-2.021246796E0,2.228715363E0,6.885794165E0
9.497154167E0,-5.536387024E0,-1.835333405E0,2.289788361E0,6.266032295E0
9.507188167E0,-5.207371216E0,-1.861229553E0,2.300416260E0,5.989391071E0
9.517222167E0,-5.725743256E0,-1.805096283E0,2.450853424E0,6.484534750E0
9.527255792E0,-6.744225311E0,-1.710343323E0,2.677931213E0,7.455277655E0
9.537289792E0,-7.242988129E0,-1.854942627E0,3.368145905E0,8.200371700E0
9.547323792E0,-6.944957886E0,-1.954934692E0,4.383185120E0,8.441950099E0
9.557357792E0,-6.745722198E0,-1.750010834E0,5.199288025E0,8.694820404E0
9.567391792E0,-6.713838501E0,-1.660946045E0,5.669160919E0,8.942804633E0
9.577425792E0,-6.823859711E0,-1.941612396E0,5.774990845E0,9.147974601E0
9.587459792E0,-7.022945709E0,-1.998194733E0,5.115013275E0,8.915038386E0
9.597493792E0,-6.799909515E0,-1.876348114E0,4.301604767E0,8.262158025E0
9.607527792E0,-6.512656860E0,-1.801952820E0,3.931723938E0,7.817940040E0
9.617561792E0,-6.791976013E0,-1.843865662E0,3.933819580E0,8.062612184E0
9.627595792E0,-7.875872040E0,-1.837429047E0,3.977977753E0,9.012758340E0
9.637629792E0,-8.966354370E0,-1.724114685E0,3.604055328E0,9.816175271E0
9.647663792E0,-9.837991791E0,-1.931732941E0,3.448379059E0,1.060231073E1
9.657697792E0,-1.222582626E1,-1.554068298E0,3.216960297E0,1.273714213E1
9.667731792E0,-1.328981369E1,-1.599573669E0,3.379073181E0,1.380564810E1
9.677765792E0,-1.330253723E1,-1.784588928E0,4.209246826E0,1.406627219E1
9.687799792E0,-1.288340881E1,-1.754800873E0,4.761897583E0,1.384692086E1
9.697833792E0,-1.219499039E1,-1.876647491E0,5.393134918E0,1.346571575E1
9.707867792E0,-1.149175278E1,-1.869312744E0,6.012397156E0,1.310357324E1
9.717901792E0,-1.107322311E1,-1.782193909E0,6.449787598E0,1.293801551E1
9.727935792E0,-1.112576385E1,-2.036215668E0,6.333329773E0,1.296301900E1
9.737969792E0,-1.144954056E1,-2.750081177E0,5.127287750E0,1.284305280E1
9.748003792E0,-1.206056992E1,-3.373534698E0,3.021616516E0,1.288286651E1
9.758037792E0,-1.279179932E1,-3.736529846E0,2.019749908E0,1.347854498E1
9.768071792E0,-1.286484741E1,-3.748355255E0,3.193459167E0,1.377507341E1
9.778105792E0,-1.250514542E1,-3.236270142E0,4.043691101E0,1.353527037E1
9.788139792E0,-1.215173035E1,-2.714604950E0,4.281396790E0,1.316677595E1
9.798173792E0,-1.134580627E1,-2.528990936E0,3.825444946E0,1.223753015E1
9.808208792E0,-1.030112869E1,-2.594853973E0,2.635569305E0,1.094498721E1
9.818241792E0,-9.318122864E0,-2.855312347E0,1.506916351E0,9.861593137E0
9.828276792E0,-8.554111633E0,-3.240461426E0,6.256988525E-1,9.168692117E0
9.838310792E0,-7.765701141E0,-3.575165405E0,-1.657054138E-1,8.550753193E0
9.848344792E0,-6.914720764E0,-3.826343079E0,-6.518943787E-1,7.929642544E0
9.858378792E0,-6.236630859E0,-4.125570831E0,-4.276606750E-1,7.489912737E0
9.868412792E0,-6.104904785E0,-4.374203796E0,1.969903564E-1,7.512810825E0
9.878446792E0,-6.418352966E0,-4.563110962E0,1.410367126E0,8.000398233E0
9.888480792E0,-6.891968079E0,-4.795876923E0,2.946921844E0,8.898539645E0
9.898514792E0,-7.763156433E0,-5.043911133E0,4.185895386E0,1.016018491E1
9.908548792E0,-8.746910706E0,-5.060825958E0,4.811594238E0,1.119249058E1
9.918582792E0,-9.580676880E0,-4.794230347E0,5.036277008E0,1.183799393E1
9.928616792E0,-1.003004242E1,-4.343218231E0,4.922513580E0,1.198734481E1
9.938650792E0,-9.842482452E0,-3.648512878E0,4.631369019E0,1.147325961E1
9.948684792E0,-9.388027496E0,-2.835703125E0,4.378095703E0,1.073983214E1
9.958718792E0,-8.844807129E0,-2.224224701E0,4.258195038E0,1.006528756E1
9.968752792E0,-8.482410736E0,-1.523082733E0,4.207450562E0,9.590292651E0
9.978786792E0,-8.340206451E0,-1.081950073E0,4.256249084E0,9.425779325E0
9.988820792E0,-8.151299286E0,-9.503736877E-1,4.260440369E0,9.246525960E0
9.998854792E0,-7.902816010E0,-9.791139221E-1,4.116888885E0,8.964482085E0
1.000888879E1,-7.669451294E0,-1.066083069E0,4.050127716E0,8.738452425E0
1.001892279E1,-7.503147125E0,-1.019380188E0,4.191284180E0,8.654664397E0
1.002895679E1,-7.268884277E0,-8.704399109E-1,4.187991028E0,8.434074527E0
1.003899079E1,-6.885681152E0,-7.442523193E-1,3.969146118E0,7.982520739E0
1.004902479E1,-6.593039703E0,-6.057902527E-1,3.800596619E0,7.634113506E0
1.005905879E1,-6.450386353E0,-4.218228149E-1,3.717818756E0,7.457050012E0
1.006909279E1,-6.277795258E0,-3.218307495E-1,3.608396301E0,7.248090245E0
1.007912679E1,-6.193370819E0,-2.421963501E-1,3.452270966E0,7.094693510E0
1.008916079E1,-6.264922028E0,-3.254232788E-1,3.347039795E0,7.110402500E0
1.009919479E1,-6.330335999E0,-4.784051514E-1,3.227737885E0,7.121819795E0
1.010922879E1,-6.474037170E0,-6.285429382E-1,3.126248932E0,7.216762147E0
1.011926279E1,-6.705156555E0,-7.764353943E-1,3.120560760E0,7.436388627E0
1.012929679E1,-6.942263489E0,-9.195378113E-1,3.077300720E0,7.649205962E0
1.013933079E1,-7.146738281E0,-8.860075378E-1,3.194956055E0,7.878364146E0
1.014936479E1,-7.311695251E0,-8.979826355E-1,3.447630615E0,8.133475095E0
1.015939879E1,-7.518265686E0,-8.776249695E-1,3.833528137E0,8.484720531E0
1.016943279E1,-7.573051758E0,-8.364605713E-1,4.023932190E0,8.616426724E0
1.017946679E1,-7.614365845E0,-9.265731812E-1,4.233646088E0,8.761327769E0
1.018950079E1,-7.791297913E0,-1.010997620E0,4.630620575E0,9.119708672E0
1.019953479E1,-8.152496796E0,-1.282532959E0,5.072950745E0,9.687255754E0
1.020956879E1,-8.609795837E0,-1.812730408E0,5.494174805E0,1.037306766E1
1.021960279E1,-9.250014496E0,-2.329605560E0,5.951623535E0,1.124329369E1
1.022963679E1,-1.025801834E1,-2.539469147E0,6.287674713E0,1.229677588E1
1.023967079E1,-1.126976440E1,-2.544558563E0,6.363866272E0,1.319019188E1
1.024970479E1,-1.190070236E1,-2.371518402E0,6.291566620E0,1.366874635E1
1.025973879E1,-1.209694427E1,-2.197131042E0,6.185736694E0,1.376324032E1
1.026977279E1,-1.181567917E1,-2.170785828E0,5.658383331E0,1.327930297E1
1.027980679E1,-1.142903320E1,-2.494562531E0,4.861739960E0,1.266815526E1
1.028984079E1,-1.124641296E1,-3.140469360E0,4.553381195E0,1.253306158E1
1.029987479E1,-1.106753494E1,-3.241359558E0,4.032015381E0,1.221695091E1
1.030990879E1,-1.072789124E1,-3.033441925E0,3.322640533E0,1.163311482E1
1.031994279E1,-1.050725006E1,-3.068768463E0,2.904110870E0,1.132490634E1
1.032997679E1,-1.034364029E1,-2.990630951E0,2.822530518E0,1.113110266E1
1.034001079E1,-1.010249176E1,-2.812651062E0,2.774181061E0,1.084746175E1
1.035004479E1,-9.819280701E0,-2.820734253E0,2.851270752E0,1.060681668E1
1.036007879E1,-9.755812683E0,-3.090772705E0,2.874472504E0,1.062973891E1
1.037011279E1,-9.980794830E0,-3.306474152E0,2.620151367E0,1.083578469E1
1.038014679E1,-1.048554520E1,-3.543281708E0,2.245181122E0,1.129346455E1
1.039018079E1,-1.134386032E1,-3.996539154E0,1.799408112E0,1.216114147E1
1.040021479E1,-1.235515732E1,-4.148024139E0,1.636696472E0,1.313524998E1
1.041024879E1,-1.278117142E1,-3.942950592E0,1.732197876E0,1.348724255E1
1.042028279E1,-1.259346176E1,-3.856430511E0,1.772314453E0,1.328941059E1
1.043031679E1,-1.205368423E1,-3.814667358E0,1.889969788E0,1.278338674E1
1.044035079E1,-1.126542343E1,-3.733985138E0,1.833237762E0,1.200887883E1
1.045038479E1,-1.022448807E1,-3.540737000E0,1.461710358E0,1.091849678E1
1.046041879E1,-8.873547363E0,-3.404520264E0,1.162632294E0,9.575088244E0
1.047045279E1,-7.361840973E0,-3.304827576E0,8.425978088E-1,8.113480072E0
1.048048679E1,-5.999823303E0,-3.194806366E0,6.295907593E-1,6.826496313E0
1.049052079E1,-5.030289459E0,-3.138224030E0,4.442761230E-1,5.945556608E0
1.050055479E1,-4.413871307E0,-3.167563019E0,3.089575195E-1,5.441614663E0
1.051058879E1,-4.159849548E0,-3.058589630E0,3.885919189E-1,5.177868526E0
1.052062279E1,-3.932023315E0,-2.985092468E0,4.863386536E-1,4.960656175E0
1.053065733E1,-3.692820740E0,-2.890339508E0,1.014141083E0,4.797860942E0
1.054069133E1,-3.827690277E0,-2.487227783E0,1.749561768E0,4.888607295E0
1.055072533E1,-4.267924805E0,-2.020198975E0,2.585722961E0,5.383525728E0
1.056075933E1,-4.891378326E0,-1.569935303E0,3.087928619E0,5.993795287E0
1.057079333E1,-5.631139984E0,-1.232836304E0,3.250191193E0,6.617655602E0
1.058082733E1,-6.258335724E0,-1.088985443E0,3.154091034E0,7.092315953E0
1.059086133E1,-6.662345581E0,-1.115180969E0,3.092119904E0,7.429110494E0
1.060089533E1,-7.205116882E0,-1.185384979E0,3.343447266E0,8.031032714E0
1.061092933E1,-7.740254059E0,-1.345402222E0,3.804937592E0,8.729214748E0
1.062096333E1,-8.009843445E0,-1.498833160E0,4.138593750E0,9.139587030E0
1.063099733E1,-8.156388702E0,-1.317410431E0,4.219874725E0,9.277369757E0
1.064103133E1,-8.484207001E0,-9.870474243E-1,4.232598267E0,9.532623938E0
1.065106533E1,-9.000333710E0,-7.241940308E-1,4.393962708E0,1.004178132E1
1.066109933E1,-9.815688171E0,-5.935157776E-1,4.605472870E0,1.085865441E1
1.067113333E1,-1.060349991E1,-5.210664368E-1,4.699627075E0,1.161000496E1
1.068116733E1,-1.123473724E1,-5.291496277E-1,4.715943146E0,1.219587799E1
1.069120133E1,-1.156270523E1,-7.363188171E-1,4.875960388E0,1.257033442E1
1.070123533E1,-1.162722107E1,-1.016386414E0,4.985682220E0,1.269182171E1
1.071126933E1,-1.175295959E1,-1.230590973E0,4.924609222E0,1.280227282E1
1.072130333E1,-1.214649124E1,-1.372196503E0,4.617747345E0,1.306689570E1
1.073133733E1,-1.252909561E1,-1.543889465E0,4.153712311E0,1.328966356E1
1.074137133E1,-1.282877243E1,-1.911375275E0,3.727698212E0,1.349542483E1
1.075140533E1,-1.339130264E1,-2.479144592E0,3.367098083E0,1.402891635E1
1.076143933E1,-1.378348709E1,-3.243155823E0,3.060385895E0,1.448684016E1
1.077147333E1,-1.365774857E1,-3.757037201E0,2.807711334E0,1.444066021E1
1.078150733E1,-1.298025742E1,-3.951333160E0,2.714604950E0,1.383723948E1
1.079154133E1,-1.212718140E1,-4.060306549E0,2.935545502E0,1.312143457E1
1.080157533E1,-1.115076187E1,-3.943100281E0,3.119812317E0,1.223195647E1
1.081160933E1,-1.030322433E1,-3.923491058E0,3.181184692E0,1.147476143E1
1.082164333E1,-9.658814392E0,-4.291126556E0,3.241808624E0,1.105512486E1
1.083167733E1,-9.300309906E0,-4.749473419E0,3.303181000E0,1.095282004E1
1.084171133E1,-9.583520966E0,-5.104834442E0,3.230282593E0,1.132863339E1
1.085174533E1,-9.761500854E0,-5.952371979E0,3.038681030E0,1.183009778E1
1.086177933E1,-9.435478821E0,-7.022346954E0,2.481240234E0,1.202073918E1
1.087181333E1,-9.336384888E0,-7.611372070E0,1.859732666E0,1.218850578E1
1.088184733E1,-9.069489899E0,-8.266559601E0,1.310375061E0,1.234134261E1
1.089188133E1,-8.743018799E0,-8.278684387E0,1.106648712E0,1.209138802E1
1.090191533E1,-8.281827850E0,-7.846083984E0,1.166973267E0,1.146784779E1
1.091194933E1,-7.782615967E0,-7.249724121E0,1.327289886E0,1.071864308E1
1.092198333E1,-7.435787201E0,-6.328539734E0,1.936822357E0,9.954527980E0
1.093201733E1,-7.140750732E0,-5.441184998E0,2.781515808E0,9.398598055E0
1.094205133E1,-7.034621429E0,-4.721182251E0,3.470982056E0,9.155499819E0
1.095208533E1,-7.035968628E0,-4.044738922E0,3.599714355E0,8.878215526E0
1.096211933E1,-6.975494385E0,-3.509751434E0,3.518583069E0,8.564829470E0
1.097215433E1,-6.960226135E0,-3.193459167E0,3.296594696E0,8.337293679E0
1.098218833E1,-6.958429871E0,-2.932102661E0,2.882406006E0,8.082402901E0
1.099222233E1,-7.020101624E0,-2.740201721E0,2.452649689E0,7.925025096E0
1.100225633E1,-7.010371857E0,-2.605332184E0,2.269580383E0,7.815629500E0
1.101229033E1,-7.011868744E0,-2.468367004E0,2.358495483E0,7.798822981E0
1.102232433E1,-7.014263763E0,-2.337389374E0,2.543361053E0,7.818693668E0
1.103235833E1,-6.901099091E0,-2.234702911E0,2.661914520E0,7.726891657E0
1.104239233E1,-6.796316986E0,-2.140997772E0,2.710114288E0,7.623550058E0
1.105242633E1,-6.692732391E0,-2.000589752E0,2.647694092E0,7.470295190E0
1.106246033E1,-6.814129944E0,-1.902393951E0,2.604583740E0,7.538920752E0
1.107249433E1,-6.968908081E0,-1.773062897E0,2.468217316E0,7.602731654E0
1.108252833E1,-7.280709686E0,-1.693129120E0,2.713108063E0,7.952130225E0
1.109256233E1,-7.628137207E0,-1.630559235E0,2.916085968E0,8.327710252E0
1.110259633E1,-7.874375153E0,-1.509461060E0,3.144660645E0,8.612383370E0
1.111263033E1,-8.155041504E0,-1.586700439E0,3.419638824E0,8.984222276E0
1.112266433E1,-8.479416962E0,-1.661544800E0,3.479963379E0,9.315116116E0
1.113269833E1,-8.640182648E0,-1.546883240E0,3.491190033E0,9.446375590E0
1.114273233E1,-8.797206116E0,-1.466350708E0,3.572321320E0,9.607418980E0
1.115276633E1,-9.093140717E0,-1.291364594E0,3.630699921E0,9.875971472E0
1.116280033E1,-9.428443451E0,-1.180894318E0,3.710184631E0,1.020076111E1
1.117283433E1,-9.547895050E0,-1.204994202E0,3.619622955E0,1.028182772E1
1.118286833E1,-9.510921936E0,-1.375190277E0,3.521127777E0,1.023460430E1
1.119290233E1,-9.517358551E0,-1.525926819E0,3.744613037E0,1.034072982E1
1.120293633E1,-9.371112671E0,-1.714534607E0,4.015100555E0,1.033820168E1
1.121297033E1,-9.181756439E0,-2.091750183E0,4.032614136E0,1.024412255E1
1.122300433E1,-8.910370789E0,-2.448159027E0,4.216880951E0,1.015727696E1
1.123303833E1,-8.747060394E0,-2.838696899E0,4.345613251E0,1.017121527E1
1.124307233E1,-8.756191406E0,-3.115171967E0,4.380939789E0,1.027462008E1
1.125310633E1,-8.668623505E0,-3.446433105E0,4.572391663E0,1.038892199E1
1.126314033E1,-8.727750549E0,-3.682043152E0,4.550836487E0,1.050910006E1
1.127317433E1,-8.986712036E0,-3.619772644E0,4.322710876E0,1.060893852E1
1.128320833E1,-9.344468079E0,-3.438200226E0,4.213887177E0,1.081189852E1
1.129324233E1,-9.812844086E0,-3.415746918E0,4.351301422E0,1.126468198E1
1.130327633E1,-1.052566177E1,-3.344195709E0,4.585713959E0,1.195834325E1
1.131331033E1,-1.130060028E1,-3.369493103E0,4.428540802E0,1.259638933E1
1.132334433E1,-1.217717743E1,-3.368744659E0,3.706143036E0,1.316691258E1
1.133337833E1,-1.249302063E1,-3.499273224E0,2.841241608E0,1.328130759E1
1.134341233E1,-1.206176743E1,-3.748954010E0,2.070195007E0,1.279947643E1
1.135344633E1,-1.121692429E1,-3.755240936E0,1.326990509E0,1.190303023E1
1.136348033E1,-1.049512527E1,-3.748355255E0,3.827540588E-1,1.115097854E1
1.137351433E1,-1.035875885E1,-3.837420044E0,-7.340734863E-1,1.107106776E1
1.138354833E1,-1.022478745E1,-3.760030975E0,-1.434167633E0,1.098821860E1
1.139358233E1,-9.661359100E0,-3.864513702E0,-1.601968689E0,1.052818263E1
1.140361633E1,-9.706714783E0,-3.843856659E0,-1.483864288E0,1.054501774E1
1.141365033E1,-1.016835480E1,-3.719914398E0,-1.122515717E0,1.088546021E1
1.142368433E1,-1.030367340E1,-3.780089264E0,-6.161187744E-1,1.099246846E1
1.143371833E1,-1.042611877E1,-3.823049927E0,-3.938310242E-1,1.111192001E1
1.144375233E1,-1.071142548E1,-3.790567474E0,-2.748284912E-1,1.136567500E1
1.145378633E1,-1.100646194E1,-3.633244629E0,-2.679428101E-2,1.159065956E1
1.146382033E1,-1.129790588E1,-3.017574921E0,4.935237122E-1,1.170435822E1
1.147385433E1,-1.085362976E1,-2.737058258E0,1.046324158E0,1.124222225E1
1.148388833E1,-9.885742493E0,-2.677781525E0,1.532662811E0,1.035603562E1
1.149392233E1,-9.002429352E0,-2.511177979E0,1.762734375E0,9.510887527E0
1.150395633E1,-8.208779755E0,-2.300266571E0,1.850751343E0,8.723564174E0
1.151399033E1,-7.475754089E0,-2.080972595E0,1.878743134E0,7.984173214E0
1.152402433E1,-6.803651733E0,-1.889670410E0,1.941013641E0,7.323118538E0
1.153405817E1,-6.331084442E0,-1.869612122E0,2.080523529E0,6.921463563E0
1.154409217E1,-6.008355560E0,-1.772763519E0,2.220931549E0,6.646470039E0
1.155412617E1,-5.980363770E0,-1.495090942E0,2.593955841E0,6.687948463E0
1.156416017E1,-6.193670197E0,-1.053060150E0,3.113824768E0,7.011874990E0
1.157419417E1,-6.564000092E0,-7.024891663E-1,3.675007782E0,7.555479497E0
1.158422817E1,-6.853947144E0,-5.358856201E-1,4.065096588E0,7.986787534E0
1.159426217E1,-7.005432129E0,-4.891827393E-1,4.088597717E0,8.126008267E0
1.160429617E1,-6.998097382E0,-6.876699829E-1,3.744463348E0,7.966634342E0
1.161433017E1,-6.924899597E0,-9.967771912E-1,3.304677887E0,7.737486358E0
1.162436417E1,-6.913223877E0,-1.360670471E0,2.643203430E0,7.525331413E0
1.163439817E1,-7.065307617E0,-1.677860870E0,1.977687378E0,7.526289670E0
1.164443217E1,-7.342231750E0,-1.752256165E0,1.450184326E0,7.686468846E0
1.165446617E1,-7.794291687E0,-1.617236938E0,1.176403656E0,8.046761074E0
1.166450017E1,-8.390501862E0,-1.470991058E0,1.257984009E0,8.610857097E0
1.167453417E1,-9.062604218E0,-1.398691406E0,1.650467834E0,9.317251576E0
1.168456817E1,-9.398056641E0,-1.366208954E0,2.139650574E0,9.734890862E0
1.169460217E1,-9.532177734E0,-1.656605072E0,2.596949615E0,1.001752964E1
1.170463617E1,-1.000968475E1,-2.028431854E0,2.805316315E0,1.059141748E1
1.171467017E1,-1.075079361E1,-2.390828247E0,2.705024872E0,1.134075758E1
1.172470417E1,-1.142693756E1,-2.783461761E0,2.369273071E0,1.199733372E1
1.173473817E1,-1.201207077E1,-3.050805817E0,1.917662201E0,1.254092057E1
1.174477217E1,-1.233884125E1,-2.991678772E0,1.397044830E0,1.277297457E1
1.175480617E1,-1.228136078E1,-2.725083160E0,1.317260742E0,1.264883697E1
1.176484017E1,-1.172960815E1,-2.618953857E0,1.801952820E0,1.215276350E1
1.177487417E1,-1.102262833E1,-2.627785492E0,2.415975952E0,1.158622163E1
1.178490817E1,-1.051922516E1,-2.626887360E0,3.211122437E0,1.130778238E1
1.179494217E1,-1.020892044E1,-2.306254120E0,3.880530396E0,1.116240927E1
1.180497617E1,-1.011341904E1,-2.036664734E0,4.442312164E0,1.123224756E1
1.181501017E1,-1.028601013E1,-1.882784729E0,5.034031677E0,1.160553134E1
1.182504417E1,-1.062295944E1,-1.988315277E0,5.399272156E0,1.208109286E1
1.183507817E1,-1.089599167E1,-2.395318909E0,5.036277008E0,1.224027260E1
1.184511217E1,-1.146630569E1,-2.881657562E0,4.165088654E0,1.253507400E1
1.185514617E1,-1.216999237E1,-3.501069489E0,3.464994507E0,1.312906656E1
1.186518017E1,-1.269495071E1,-3.965403900E0,2.846929779E0,1.360114741E1
1.187521417E1,-1.279793655E1,-4.160747681E0,2.183659058E0,1.363331831E1
1.188524817E1,-1.229004272E1,-4.120032349E0,1.690883789E0,1.307206582E1
1.189528217E1,-1.151510422E1,-4.141138458E0,1.525627441E0,1.233183652E1
1.190531617E1,-1.083342178E1,-4.126768341E0,1.362167358E0,1.167256375E1
1.191535017E1,-1.019978943E1,-4.198618927E0,1.241368561E0,1.109977933E1
1.192538417E1,-9.657018127E0,-4.373754730E0,1.271156616E0,1.067724537E1
1.193541817E1,-9.272467804E0,-4.495751038E0,1.363065491E0,1.039463247E1
1.194545217E1,-8.854087830E0,-4.616250458E0,1.361867981E0,1.007766461E1
1.195548617E1,-8.532257080E0,-4.606221313E0,1.309177551E0,9.784203163E0
1.196552017E1,-8.389753418E0,-4.445006561E0,1.232836304E0,9.574232664E0
1.197555417E1,-8.368347931E0,-4.230802002E0,1.143472137E0,9.446505237E0
1.198558817E1,-8.265960846E0,-3.905827789E0,1.034648438E0,9.200657412E0
1.199562217E1,-8.089477844E0,-3.536396027E0,8.583151245E-1,8.870313044E0
1.200565617E1,-7.964787140E0,-3.255130920E0,7.617658997E-1,8.637939498E0
1.201569017E1,-7.917485504E0,-2.978356476E0,6.783892822E-1,8.486306383E0
1.202572417E1,-7.903115387E0,-2.644999695E0,6.147715759E-1,8.356626131E0
1.203575817E1,-7.795638885E0,-2.217937775E0,7.140151978E-1,8.136402848E0
1.204579217E1,-7.496261444E0,-1.817071381E0,6.541397095E-1,7.741032412E0
1.205582617E1,-7.228318634E0,-1.566492462E0,6.080355835E-1,7.421064356E0
1.206586017E1,-7.129374390E0,-1.361418915E0,5.046006775E-1,7.275717318E0
1.207589417E1,-7.098837891E0,-1.175056458E0,6.023474121E-1,7.220601047E0
1.208592817E1,-6.921905823E0,-9.842033386E-1,1.074315948E0,7.073584041E0
1.209596217E1,-6.752158813E0,-8.722361755E-1,1.398691406E0,6.950451945E0
1.210599617E1,-6.744524689E0,-7.921527100E-1,1.433119812E0,6.940457592E0
1.211603017E1,-6.908433838E0,-7.752378845E-1,1.620081024E0,7.138074978E0
1.212606417E1,-7.150630188E0,-7.379653931E-1,1.822310486E0,7.415990865E0
1.213609817E1,-7.470964050E0,-6.732998657E-1,1.966311035E0,7.754677017E0
1.214613217E1,-7.968529358E0,-7.583230591E-1,2.182012482E0,8.296607286E0
1.215616617E1,-8.423583069E0,-8.321195984E-1,2.457888794E0,8.814215340E0
1.216620017E1,-8.553812256E0,-7.876620483E-1,2.621348877E0,8.981068174E0
1.217623417E1,-8.477770386E0,-8.042774963E-1,2.681523743E0,8.928046964E0
1.218626817E1,-8.317304077E0,-8.916957092E-1,2.838098145E0,8.833315880E0
1.219630217E1,-8.072413330E0,-9.741741943E-1,3.084485779E0,8.696374236E0
1.220633617E1,-7.904761963E0,-1.009949799E0,3.254981232E0,8.608145161E0
1.221637017E1,-7.763904877E0,-1.024020538E0,3.409909058E0,8.541329919E0
1.222640417E1,-7.673792267E0,-1.005758514E0,3.602259064E0,8.536680169E0
1.223643817E1,-7.744595032E0,-1.001716919E0,3.775149536E0,8.673750228E0
1.224647217E1,-7.862549744E0,-1.095871124E0,4.030368805E0,8.903060973E0
1.225650617E1,-8.109985199E0,-1.316661987E0,4.240232391E0,9.245811454E0
1.226654017E1,-8.465944977E0,-1.615141296E0,4.363725586E0,9.660383364E0
1.227657417E1,-8.839867401E0,-2.010618896E0,4.517755280E0,1.012896622E1
1.228660817E1,-9.285341034E0,-2.519859924E0,4.647385712E0,1.068482317E1
1.229664217E1,-9.668095093E0,-2.994971924E0,4.866230621E0,1.123041050E1
1.230667617E1,-1.037477554E1,-3.338956604E0,5.009033661E0,1.199479124E1
1.231671017E1,-1.123563538E1,-3.672463074E0,5.083129578E0,1.286719447E1
1.232674417E1,-1.196372131E1,-4.000730438E0,5.201832733E0,1.364534849E1
1.233677817E1,-1.273611511E1,-4.114793243E0,5.193599854E0,1.435665807E1
1.234681217E1,-1.320793396E1,-4.224215698E0,4.994364166E0,1.473896846E1
1.235684617E1,-1.320389236E1,-4.587809601E0,4.650678864E0,1.473158459E1
1.236688017E1,-1.319027069E1,-5.010979614E0,4.287683716E0,1.474711461E1
1.237691417E1,-1.309716431E1,-5.354664917E0,3.807931366E0,1.465293454E1
1.238694817E1,-1.269031036E1,-5.559588776E0,3.269650726E0,1.423529488E1
1.239698217E1,-1.199500626E1,-5.752986603E0,2.860850830E0,1.360740598E1
1.240701617E1,-1.120045853E1,-5.625900879E0,2.468965759E0,1.277485123E1
1.241705017E1,-1.048464706E1,-5.146298218E0,1.978735199E0,1.184599520E1
1.242708417E1,-9.970765686E0,-4.650828552E0,1.666634216E0,1.112762527E1
1.243711817E1,-9.358089752E0,-4.334985352E0,1.503473511E0,1.042239773E1
1.244715217E1,-8.825946350E0,-4.068389740E0,1.322649536E0,9.808084719E0
1.245718617E1,-8.727600861E0,-3.773652649E0,1.071322174E0,9.568657288E0
1.246722017E1,-8.946445770E0,-3.518732758E0,8.298742676E-1,9.649303780E0
1.247725417E1,-9.221274261E0,-3.261866913E0,6.976991272E-1,9.806041956E0
1.248728817E1,-9.377998352E0,-3.201991425E0,5.983058167E-1,9.927616634E0
1.249732217E1,-9.627529449E0,-3.238365784E0,4.966671753E-1,1.016971064E1
1.250735617E1,-9.998158722E0,-3.188220062E0,5.008584595E-1,1.050613079E1
1.251739017E1,-1.035771103E1,-3.110232239E0,6.596781921E-1,1.083470801E1
1.252742429E1,-1.061293030E1,-3.057990875E0,7.241940308E-1,1.106842603E1
1.253745829E1,-1.075184143E1,-2.905458069E0,8.554710388E-1,1.117030042E1
1.254749229E1,-1.089883575E1,-2.735860748E0,1.015787659E0,1.128279129E1
1.255752629E1,-1.104403381E1,-2.499202881E0,1.081051941E0,1.137476906E1
1.256756029E1,-1.122560623E1,-2.318678284E0,1.149160309E0,1.152002924E1
1.257759429E1,-1.135628448E1,-2.311792603E0,1.125808868E0,1.164375489E1
1.258762829E1,-1.089329727E1,-2.075284424E0,1.020128632E0,1.113604029E1
1.259766229E1,-1.003498215E1,-1.773661652E0,1.074016571E0,1.024696316E1
1.260769629E1,-8.945697327E0,-1.520538025E0,1.058299255E0,9.135509502E0
1.261773029E1,-7.899522858E0,-1.504072266E0,9.111552429E-1,8.092891859E0
1.262776429E1,-7.029831390E0,-1.613943787E0,8.566685486E-1,7.263416891E0
1.263779829E1,-6.156397705E0,-1.643731842E0,7.496411133E-1,6.415999444E0
1.264783229E1,-5.391188965E0,-1.758543091E0,5.285508728E-1,5.695327759E0
1.265786629E1,-4.851860504E0,-1.975142670E0,3.478765869E-1,5.250024480E0
1.266790029E1,-4.594395905E0,-2.114353180E0,3.378474426E-1,5.068836552E0
1.267793429E1,-4.613406372E0,-2.035018158E0,4.773573303E-1,5.064848199E0
1.268796829E1,-4.815486145E0,-1.717827759E0,6.828799438E-1,5.158116327E0
1.269800229E1,-5.109624481E0,-1.322050781E0,8.677455139E-1,5.348744047E0
1.270803629E1,-5.543422394E0,-9.605525208E-1,1.119821320E0,5.736391964E0
1.271807029E1,-6.094127197E0,-7.653584290E-1,1.405277710E0,6.300711489E0
1.272810429E1,-6.852450256E0,-7.497908020E-1,1.792522430E0,7.122597660E0
1.273813829E1,-7.638016663E0,-9.460327148E-1,2.394869843E0,8.060377038E0
1.274817229E1,-8.159981232E0,-1.207239532E0,2.889441376E0,8.740228398E0
1.275820629E1,-8.338260498E0,-1.473535767E0,3.224145355E0,9.060519249E0
1.276824029E1,-8.308771820E0,-1.790277100E0,3.452570343E0,9.173931721E0
1.277827429E1,-8.309669952E0,-1.970202942E0,3.513643341E0,9.234609027E0
1.278830829E1,-8.434660034E0,-2.050885162E0,3.485052795E0,9.353887578E0
1.279834229E1,-8.800050201E0,-2.101929016E0,3.463946686E0,9.688029510E0
1.280837629E1,-9.472152557E0,-2.101030884E0,3.426075439E0,1.028950911E1
1.281841029E1,-1.018586838E1,-2.103874969E0,3.370690613E0,1.093342397E1
1.282844429E1,-1.071591614E1,-2.236648865E0,3.230881348E0,1.141367825E1
1.283847829E1,-1.111977631E1,-2.417472839E0,3.106040955E0,1.179580817E1
1.284851229E1,-1.125374771E1,-2.508633270E0,3.094365234E0,1.193797196E1
1.285854629E1,-1.148127457E1,-2.502196655E0,3.072360992E0,1.214578346E1
1.286858029E1,-1.206895248E1,-2.311942291E0,2.912792816E0,1.262889755E1
1.287861429E1,-1.255978180E1,-2.298919373E0,2.717598724E0,1.305444338E1
1.288864829E1,-1.295870224E1,-2.697540436E0,2.441722412E0,1.345981785E1
1.289868229E1,-1.338411758E1,-3.074157257E0,2.322121124E0,1.392757311E1
1.290871629E1,-1.381088013E1,-3.449576569E0,2.537523193E0,1.445956474E1
1.291875029E1,-1.414917664E1,-3.594026184E0,2.753374329E0,1.485588415E1
1.292878429E1,-1.407882294E1,-3.308420105E0,2.805915070E0,1.473200795E1
1.293881929E1,-1.362571518E1,-2.884052582E0,2.711910553E0,1.418916249E1
1.294885329E1,-1.293130920E1,-2.826123047E0,2.280807037E0,1.343159745E1
1.295888629E1,-1.196491882E1,-2.626288605E0,1.556762695E0,1.234828670E1
1.296892029E1,-1.155327484E1,-2.616109772E0,1.086889801E0,1.189552518E1
1.297895529E1,-1.178529236E1,-2.950664062E0,8.173004150E-1,1.217651487E1
1.298898929E1,-1.170401138E1,-3.224893799E0,4.909790039E-1,1.215009806E1
1.299902229E1,-1.090167984E1,-3.480412445E0,-2.109114075E-1,1.144571438E1
1.300905729E1,-9.557924194E0,-3.687282257E0,-1.553619232E0,1.036164553E1
1.301909129E1,-8.749605103E0,-4.153263245E0,-2.133663025E0,9.917545207E0
1.302912429E1,-8.433312836E0,-4.414619751E0,-1.898352356E0,9.706357432E0
1.303915929E1,-8.754993896E0,-4.553830261E0,-1.557660828E0,9.990675424E0
1.304919329E1,-9.273066559E0,-4.471202087E0,-9.755213928E-1,1.034084395E1
1.305922729E1,-9.371561737E0,-4.029770050E0,-5.008584595E-1,1.021352413E1
1.306926129E1,-9.279952240E0,-3.503165131E0,-1.666035461E-1,9.920556247E0
1.307929529E1,-9.144483948E0,-3.017125854E0,3.981719971E-1,9.637591817E0
1.308932929E1,-8.678053894E0,-2.383493500E0,9.186396790E-1,9.046190331E0
1.309936329E1,-8.016729126E0,-1.840123444E0,1.191222839E0,8.311017508E0
1.310939729E1,-7.278763733E0,-1.463656311E0,1.107696533E0,7.506642584E0
1.311943129E1,-6.739135895E0,-1.293909302E0,9.898915100E-1,6.933256024E0
1.312946529E1,-6.341263275E0,-1.289867706E0,9.845027161E-1,6.545580511E0
1.313949929E1,-6.021827545E0,-1.214873657E0,8.550219727E-1,6.202369512E0
1.314953329E1,-5.841302948E0,-1.177152100E0,7.896080017E-1,6.010822572E0
1.315956729E1,-5.936654663E0,-1.157542877E0,8.190966797E-1,6.103662300E0
1.316960129E1,-5.919739838E0,-1.064735870E0,5.513035583E-1,6.039943529E0
1.317963529E1,-6.432573395E0,-1.016985168E0,9.077124023E-1,6.575424026E0
1.318966929E1,-6.635102234E0,-7.616162109E-1,1.087039490E0,6.766557157E0
1.319970329E1,-6.829547882E0,-6.285429382E-1,1.274599457E0,6.975843625E0
1.320973729E1,-6.978488159E0,-6.054908752E-1,1.670975189E0,7.201255048E0
1.321977129E1,-7.110663300E0,-5.863307190E-1,2.223775635E0,7.473318831E0
1.322980529E1,-7.319029999E0,-5.105882263E-1,2.632126465E0,7.794677042E0
1.323983929E1,-7.572752380E0,-5.417234802E-1,2.708318024E0,8.060708992E0
1.324987329E1,-7.886499939E0,-6.897656250E-1,2.772534485E0,8.388063267E0
1.325990729E1,-8.325387268E0,-8.526269531E-1,2.861748962E0,8.844696321E0
1.326994129E1,-8.772806854E0,-1.140328674E0,2.896925812E0,9.308848949E0
1.327997529E1,-9.285640411E0,-1.498384094E0,3.040028229E0,9.884839117E0
1.329000929E1,-9.583221588E0,-1.801054688E0,3.210074615E0,1.026579335E1
1.330004329E1,-9.703721008E0,-2.085163879E0,3.421135712E0,1.049829888E1
1.331007729E1,-9.910441132E0,-2.186054077E0,3.682492218E0,1.079613008E1
1.332011129E1,-1.009366013E1,-2.097737732E0,4.049379272E0,1.107609818E1
1.333014529E1,-1.014425491E1,-2.035317535E0,4.475842438E0,1.127304709E1
1.334017929E1,-1.019140686E1,-2.088906097E0,4.887935486E0,1.149435582E1
1.335021329E1,-1.021026764E1,-2.219434662E0,5.052892456E0,1.160634213E1
1.336024729E1,-9.849667511E0,-2.338287506E0,4.979544983E0,1.128181753E1
1.337028129E1,-1.007270370E1,-2.471510468E0,4.932991791E0,1.148486534E1
1.338031529E1,-1.062924637E1,-2.754571838E0,4.975353699E0,1.205498606E1
1.339034929E1,-1.131901199E1,-3.074756012E0,4.876858521E0,1.270267319E1
1.340038329E1,-1.157872192E1,-3.157982941E0,4.619842987E0,1.286011691E1
1.341041729E1,-1.193483139E1,-3.098556519E0,4.518054657E0,1.313217692E1
1.342045129E1,-1.204844513E1,-3.049159241E0,4.590354309E0,1.324891523E1
1.343048529E1,-1.192001221E1,-3.121907959E0,4.562811584E0,1.313972031E1
1.344051929E1,-1.209080704E1,-3.309168549E0,4.415817261E0,1.329050990E1
1.345055329E1,-1.242895386E1,-3.448379059E0,3.820954285E0,1.345250548E1
1.346058729E1,-1.258492950E1,-3.443289642E0,2.854414215E0,1.335606135E1
1.347062129E1,-1.258133698E1,-3.363056488E0,1.994302826E0,1.317487885E1
1.348065529E1,-1.212179260E1,-3.210373993E0,1.207688599E0,1.259773269E1
1.349068929E1,-1.133697464E1,-2.900368652E0,7.126679993E-1,1.172378045E1
1.350072329E1,-1.042581940E1,-2.630928955E0,5.072950745E-1,1.076461079E1
1.351075729E1,-9.486672363E0,-2.413880310E0,4.790039062E-1,9.800674233E0
1.352079129E1,-8.794960785E0,-2.210004272E0,5.641767883E-1,9.085909395E0
1.353082479E1,-8.466992798E0,-2.167342987E0,6.170169067E-1,8.761737985E0
1.354085879E1,-8.519234161E0,-2.394720154E0,5.092410278E-1,8.864048834E0
1.355089279E1,-9.038654022E0,-2.676134949E0,2.944377136E-1,9.431100591E0
1.356092679E1,-9.714199219E0,-2.865940247E0,1.996847534E-1,1.013011125E1
1.357096079E1,-1.042207718E1,-2.843636627E0,1.803749084E-1,1.080455909E1
1.358099479E1,-1.102352646E1,-2.658172302E0,1.586700439E-1,1.134059927E1
1.359102879E1,-1.125569366E1,-2.352807312E0,2.926414490E-1,1.150269452E1
1.360106279E1,-1.099029556E1,-2.027384033E0,5.134323120E-1,1.118751515E1
1.361109679E1,-1.014949402E1,-1.752106476E0,6.026467896E-1,1.031723263E1
1.362113079E1,-9.059610443E0,-1.510957947E0,3.872447205E-1,9.192904534E0
1.363116479E1,-7.949967957E0,-1.303788757E0,1.380130005E-1,8.057350881E0
1.364119879E1,-6.857988739E0,-1.177002411E0,-1.098715210E-1,6.959124656E0
1.365123279E1,-5.919290771E0,-1.173110504E0,-2.866539001E-1,6.041221892E0
1.366126679E1,-5.298082581E0,-1.247206421E0,-4.445755005E-1,5.461030147E0
1.367130079E1,-5.007686462E0,-1.221909027E0,-6.536906433E-1,5.195892304E0
1.368133479E1,-5.008883972E0,-1.121168518E0,-7.735913086E-1,5.190797723E0
1.369136879E1,-5.114264832E0,-1.134640503E0,-8.264314270E-1,5.303404825E0
1.370140279E1,-5.359454956E0,-1.028511200E0,-7.186555481E-1,5.504367222E0
1.371143679E1,-5.708229675E0,-7.472460938E-1,-4.153862000E-1,5.771898167E0
1.372147079E1,-6.098767548E0,-3.412902832E-1,-3.128494263E-2,6.108389592E0
1.373150479E1,-6.585555267E0,-3.936813354E-2,4.757107544E-1,6.602831874E0
1.374153879E1,-7.014563141E0,2.088157654E-1,1.227297821E0,7.124181358E0
1.375157279E1,-7.403903503E0,3.854484558E-1,2.068997498E0,7.697214317E0
1.376160679E1,-7.908653870E0,4.770579529E-1,2.673590240E0,8.361965983E0
1.377164079E1,-8.348439331E0,5.439688110E-1,2.818039856E0,8.828006001E0
1.378167479E1,-8.689579926E0,4.903802490E-1,2.801274719E0,9.143107356E0
1.379170879E1,-9.060209198E0,4.031117249E-1,2.994073792E0,9.550621322E0
1.380174279E1,-9.397607574E0,3.290158081E-1,3.172353058E0,9.924066881E0
1.381177679E1,-9.442514191E0,2.047741699E-1,3.266058197E0,9.993505033E0
1.382181079E1,-9.248667297E0,-1.167572021E-2,3.354823608E0,9.838334439E0
1.383184479E1,-9.232051849E0,-2.371069336E-1,3.262465668E0,9.794421028E0
1.384187879E1,-9.647288361E0,-4.366419983E-1,3.160377960E0,1.016114254E1
1.385191279E1,-1.013662079E1,-7.417076111E-1,3.193159790E0,1.065351964E1
1.386194679E1,-1.053284683E1,-1.122216339E0,3.015628967E0,1.101336688E1
1.387198079E1,-1.124446701E1,-1.530716858E0,2.815046082E0,1.169211772E1
1.388201479E1,-1.224917770E1,-1.836830292E0,2.767295380E0,1.269150203E1
1.389204879E1,-1.341240875E1,-2.106719055E0,2.740201721E0,1.385062017E1
1.390208279E1,-1.452010529E1,-2.381397858E0,2.642604675E0,1.494951079E1
1.391211679E1,-1.543036240E1,-2.552192688E0,2.508782959E0,1.583994202E1
1.392215079E1,-1.579335754E1,-2.550097046E0,2.596799927E0,1.620729796E1
1.393218479E1,-1.564681229E1,-2.492317200E0,2.823129272E0,1.609361484E1
1.394221879E1,-1.521660690E1,-2.477048950E0,3.145259399E0,1.573447024E1
1.395225279E1,-1.459285400E1,-2.512824554E0,3.311264191E0,1.517333667E1
1.396228679E1,-1.391910507E1,-2.554288330E0,3.233875122E0,1.451632954E1
1.397232079E1,-1.330538132E1,-2.523602142E0,2.881956940E0,1.384584470E1
1.398235479E1,-1.295630722E1,-2.517614594E0,2.373314667E0,1.341032820E1
1.399238879E1,-1.270602768E1,-2.647993469E0,1.873354340E0,1.311352223E1
1.400242279E1,-1.213331863E1,-2.947071533E0,1.195863190E0,1.254323485E1
1.401245679E1,-1.142319534E1,-3.359763336E0,6.953041077E-1,1.192731526E1
1.402249079E1,-1.073088501E1,-3.857478333E0,2.351609802E-1,1.140558341E1
1.403252479E1,-1.017763550E1,-4.389172668E0,-3.394940186E-1,1.108892949E1
1.404255879E1,-9.481283569E0,-4.927004242E0,-7.755372620E-1,1.071314926E1
1.405259279E1,-8.469387817E0,-5.229824524E0,-1.107995911E0,1.001545054E1
1.406262679E1,-7.471862183E0,-5.382207642E0,-1.160237274E0,9.281327174E0
1.407266079E1,-6.799759827E0,-5.241500244E0,-7.641609192E-1,8.619396755E0
1.408269479E1,-6.455026703E0,-4.749024353E0,4.340972900E-3,8.013776943E0
1.409272879E1,-6.130800934E0,-4.060905304E0,5.545967102E-1,7.374635550E0
1.410276279E1,-6.067931671E0,-3.510050812E0,7.297325134E-1,7.047890536E0
1.411279679E1,-6.258036346E0,-3.030747528E0,5.424719238E-1,6.974433689E0
1.412283079E1,-6.550827484E0,-2.617756348E0,2.290237427E-1,7.058217969E0
1.413286479E1,-6.715185699E0,-2.321821747E0,-8.876541138E-2,7.105804282E0
1.414289879E1,-7.049590302E0,-2.054777069E0,-2.969824219E-1,7.348947597E0
1.415293279E1,-7.350314941E0,-1.954785004E0,-5.608836365E-1,7.626460818E0
1.416296679E1,-7.578141174E0,-1.958527222E0,-7.620652771E-1,7.864146236E0
1.417300079E1,-7.551197205E0,-1.649569702E0,-8.678952026E-1,7.777846843E0
1.418303479E1,-7.373516693E0,-1.350341949E0,-7.777825928E-1,7.536386240E0
1.419306879E1,-7.156917114E0,-1.095871124E0,-2.633024597E-1,7.245117272E0
1.420310279E1,-7.075486450E0,-7.702981567E-1,5.295986938E-1,7.136970123E0
1.421313679E1,-6.911577301E0,-4.444258118E-1,1.180295563E0,7.025703716E0
1.422317079E1,-6.966812439E0,-3.315605164E-1,1.794019318E0,7.201729879E0
1.423320479E1,-7.106472015E0,-2.326162720E-1,2.230661316E0,7.451973211E0
1.424323879E1,-7.262747040E0,-2.243833923E-1,2.252515869E0,7.607343177E0
1.425327279E1,-7.853568420E0,-2.782713318E-1,2.629432068E0,8.286729443E0
1.426330679E1,-8.394842834E0,-3.234773254E-1,3.114872589E0,8.959936107E0
1.427334079E1,-8.585246887E0,-3.553610229E-1,3.448977814E0,9.258952075E0
1.428337479E1,-8.492739258E0,-4.831951904E-1,3.647764435E0,9.255608195E0
1.429340879E1,-8.270301819E0,-6.155200195E-1,3.830534363E0,9.135083501E0
1.430344279E1,-8.232879639E0,-7.008425903E-1,3.895050201E0,9.134708728E0
1.431347679E1,-8.334667969E0,-8.955876160E-1,3.992198181E0,9.284740903E0
1.432351079E1,-8.486003265E0,-1.105301514E0,4.093986511E0,9.486551977E0
1.433354479E1,-8.800349579E0,-1.277742920E0,4.272415466E0,9.865714044E0
1.434357879E1,-9.371412048E0,-1.416803741E0,4.539011078E0,1.050872581E1
1.435361279E1,-9.836644592E0,-1.685195618E0,4.934039612E0,1.113302331E1
1.436364679E1,-1.018541931E1,-2.030377808E0,5.340444489E0,1.167842232E1
1.437368079E1,-1.039483383E1,-2.251468048E0,5.580844574E0,1.201114087E1
1.438371479E1,-1.044093796E1,-2.443368988E0,5.783373413E0,1.218321162E1
1.439374879E1,-1.046099625E1,-2.633623352E0,6.012546844E0,1.234986372E1
1.440378279E1,-1.048494644E1,-2.766247559E0,6.019282837E0,1.240233822E1
1.441381679E1,-1.067250641E1,-2.900069275E0,5.815556488E0,1.249533882E1
1.442385079E1,-1.111438751E1,-2.935994568E0,5.493126984E0,1.274064825E1
1.443388479E1,-1.161165344E1,-2.876867523E0,4.946763153E0,1.294516621E1
1.444391879E1,-1.214170120E1,-2.938688965E0,4.832550659E0,1.339441476E1
1.445395279E1,-1.244152771E1,-2.998714142E0,4.593048706E0,1.359705831E1
1.446398679E1,-1.266291733E1,-2.874472504E0,4.184398499E0,1.364262651E1
1.447402079E1,-1.278371613E1,-2.947969666E0,3.501817932E0,1.357853644E1
1.448405479E1,-1.266486328E1,-3.041824493E0,2.508333893E0,1.326435815E1
1.449408879E1,-1.246023880E1,-3.113824768E0,1.672322388E0,1.295183839E1
1.450412279E1,-1.233464996E1,-3.057841187E0,1.038240967E0,1.275036967E1
1.451415679E1,-1.209245361E1,-2.823728027E0,5.616320801E-1,1.243045876E1
1.452419079E1,-1.148322052E1,-2.600991211E0,3.086581421E-1,1.177814835E1
1.453422542E1,-1.067340454E1,-2.479144592E0,2.653981018E-1,1.096075538E1
1.454425942E1,-9.946665802E0,-2.410437469E0,2.031275940E-1,1.023658294E1
1.455429342E1,-9.474697266E0,-2.259401550E0,2.228865051E-1,9.742918558E0
1.456432742E1,-9.340276794E0,-2.075583801E0,4.107458496E-1,9.576927005E0
1.457436142E1,-9.402696991E0,-1.932780762E0,6.589297485E-1,9.621878226E0
1.458439542E1,-9.668693848E0,-1.820963287E0,9.090596008E-1,9.880583858E0
1.459442942E1,-9.997110901E0,-1.689536591E0,1.132395172E0,1.020191546E1
1.460446342E1,-1.018092865E1,-1.582359467E0,1.189276886E0,1.037157409E1
1.461449742E1,-1.021131546E1,-1.501228180E0,1.143322449E0,1.038421088E1
1.462453142E1,-1.009800110E1,-1.407223663E0,1.168021088E0,1.026226963E1
1.463456542E1,-9.816735992E0,-1.255888367E0,1.287921753E0,9.980195568E0
1.464459942E1,-9.069040833E0,-1.138382721E0,1.297950897E0,9.231906270E0
1.465463342E1,-8.184679871E0,-1.062191162E0,1.161135406E0,8.334594776E0
1.466466742E1,-7.352709961E0,-1.005608826E0,9.825567627E-1,7.485920830E0
1.467470142E1,-6.508166199E0,-1.046174469E0,8.105644226E-1,6.641364541E0
1.468473542E1,-5.688021698E0,-1.123713226E0,6.484515381E-1,5.834107614E0
1.469476942E1,-5.041665802E0,-1.206790466E0,4.104464722E-1,5.200308029E0
1.470480342E1,-4.663851471E0,-1.138682098E0,2.881507874E-1,4.809484207E0
1.471483742E1,-4.499493256E0,-1.002315674E0,4.583468628E-1,4.632510994E0
1.472487142E1,-4.384532318E0,-8.925938416E-1,7.575746155E-1,4.538145735E0
1.473490542E1,-4.323159943E0,-7.818241882E-1,8.933422852E-1,4.483193213E0
1.474493942E1,-4.407285004E0,-6.903643799E-1,9.131011963E-1,4.553517088E0
1.475497242E1,-4.896767120E0,-5.180726624E-1,1.078207855E0,5.040759833E0
1.476500642E1,-5.522316284E0,-4.414320374E-1,1.342558136E0,5.700289618E0
1.477504142E1,-6.016289062E0,-4.415817261E-1,1.631457367E0,6.249190479E0
1.478507542E1,-6.496490479E0,-5.004093933E-1,1.801653442E0,6.760233223E0
1.479510942E1,-7.045099640E0,-6.635700989E-1,1.963167572E0,7.343553712E0
1.480514342E1,-7.783214722E0,-8.204438782E-1,2.110610962E0,8.105938452E0
1.481517742E1,-8.487949219E0,-8.530760193E-1,2.366578674E0,8.852893044E0
1.482521142E1,-9.033863983E0,-9.178912354E-1,2.522404633E0,9.424210732E0
1.483524442E1,-9.626182251E0,-1.046922913E0,2.575394440E0,1.001958526E1
1.484527842E1,-1.029394363E1,-1.073118439E0,2.624642029E0,1.067734070E1
1.485531242E1,-1.097143478E1,-1.112935638E0,2.761457520E0,1.136823006E1
1.486534642E1,-1.151480484E1,-1.208736420E0,2.884501648E0,1.193197905E1
1.487538042E1,-1.188962540E1,-1.135688324E0,3.046464844E0,1.232614814E1
1.488541442E1,-1.218870346E1,-1.059197388E0,3.422033844E0,1.270420036E1
1.489544842E1,-1.235560638E1,-1.128054199E0,3.970044250E0,1.302669439E1
1.490548242E1,-1.234602631E1,-1.423390045E0,4.308041382E0,1.315331233E1
1.491551642E1,-1.213212112E1,-1.645228729E0,4.403093719E0,1.301085604E1
1.492555042E1,-1.175430679E1,-1.717079315E0,4.456233215E0,1.268739942E1
1.493558442E1,-1.186043610E1,-1.680405579E0,4.537514191E0,1.280947861E1
1.494561842E1,-1.220846237E1,-1.596280518E0,4.569098511E0,1.313283390E1
1.495565242E1,-1.238928635E1,-1.886227570E0,4.400099945E0,1.328206122E1
1.496568642E1,-1.236054611E1,-2.398911438E0,4.139791260E0,1.325427282E1
1.497572042E1,-1.189681046E1,-2.745440826E0,3.875291290E0,1.280973953E1
1.498575442E1,-1.172661438E1,-2.738405457E0,3.464844818E0,1.253066235E1
1.499578842E1,-1.242221786E1,-2.586321716E0,2.745590515E0,1.298225034E1
1.500582242E1,-1.337962692E1,-2.472258911E0,1.879940643E0,1.373537977E1
1.501585642E1,-1.388991577E1,-2.494712219E0,1.216220856E0,1.416448172E1
1.502589042E1,-1.416489395E1,-2.946023712E0,9.559121704E-1,1.449955325E1
1.503592442E1,-1.434571793E1,-3.486250305E0,7.981402588E-1,1.478480950E1
1.504595842E1,-1.386042709E1,-4.001628571E0,3.531156921E-1,1.443084062E1
1.505599242E1,-1.292921356E1,-4.638404388E0,2.730322266E-1,1.373877379E1
1.506602642E1,-1.184441940E1,-5.082680511E0,8.333171082E-1,1.291581703E1
1.507606042E1,-1.058044785E1,-5.343288574E0,1.370250549E0,1.193206587E1
1.508609442E1,-9.318422241E0,-5.483546906E0,1.407223663E0,1.090332785E1
1.509612842E1,-8.395441589E0,-5.478756866E0,1.194066925E0,1.009584133E1
1.510616242E1,-7.827522583E0,-5.209317169E0,1.051862640E0,9.461157972E0
1.511619642E1,-7.393425293E0,-4.716691589E0,1.029559021E0,8.830057128E0
1.512623042E1,-7.048991547E0,-4.041595459E0,8.918453979E-1,8.174237817E0
1.513626442E1,-6.896458740E0,-3.273692322E0,7.934999084E-1,7.675144733E0
1.514629842E1,-6.899452515E0,-2.913541260E0,5.599855042E-1,7.510309677E0
1.515633242E1,-7.059170380E0,-2.435136108E0,1.761836243E-1,7.469458815E0
1.516636642E1,-6.901847534E0,-1.944306793E0,-3.580554199E-1,7.179417245E0
1.517640042E1,-6.751560059E0,-1.566043396E0,-7.355703735E-1,6.969728755E0
1.518643442E1,-6.460415497E0,-1.304686890E0,-8.725355530E-1,6.648345250E0
1.519646842E1,-6.141578522E0,-8.619076538E-1,-7.458988953E-1,6.246457933E0
1.520650242E1,-5.926326141E0,-5.848338318E-1,-8.701405334E-1,6.018348336E0
1.521653642E1,-5.889802094E0,-6.102809143E-1,-7.632627869E-1,5.970325081E0
1.522657042E1,-5.955515442E0,-5.529501343E-1,-4.240681458E-1,5.996144747E0
1.523660442E1,-5.787415009E0,-4.180805969E-1,-5.035528564E-1,5.824305053E0
1.524663842E1,-5.917494507E0,-3.635939026E-1,-1.646575928E-1,5.930940388E0
1.525667242E1,-6.080056458E0,-2.504292297E-1,3.737727356E-1,6.096680030E0
1.526670642E1,-6.337371368E0,-1.281335449E-1,8.954379272E-1,6.401601608E0
1.527674042E1,-6.863227844E0,-1.922003174E-1,1.564247131E0,7.041853910E0
1.528677442E1,-7.376211090E0,-2.938389587E-1,2.138752441E0,7.685642028E0
1.529680842E1,-7.941735077E0,-4.125421143E-1,2.578537903E0,8.360036169E0
1.530684242E1,-8.467591553E0,-4.757107544E-1,2.970872040E0,8.986238818E0
1.531687642E1,-8.860075378E0,-5.563929749E-1,3.423231354E0,9.514674023E0
1.532691042E1,-9.084159393E0,-7.116201782E-1,3.767964478E0,9.860320049E0
1.533694442E1,-9.210945740E0,-7.544311523E-1,4.009562073E0,1.007408933E1
1.534697842E1,-9.333540802E0,-8.942404175E-1,4.223616943E0,1.028365645E1
1.535701242E1,-9.510173492E0,-1.078058167E0,4.435276794E0,1.054880512E1
1.536704642E1,-9.546547852E0,-1.351539459E0,4.602628784E0,1.068397990E1
1.537708042E1,-9.610165558E0,-1.612596588E0,4.802762604E0,1.086380589E1
1.538711442E1,-9.666747894E0,-1.830393677E0,5.067561951E0,1.106691194E1
1.539714842E1,-9.709858246E0,-2.021396484E0,5.406157837E0,1.129574847E1
1.540718242E1,-9.778864746E0,-2.103874969E0,5.865552521E0,1.159556777E1
1.541721642E1,-9.982591095E0,-2.090253296E0,6.133794708E0,1.190145879E1
1.542725042E1,-1.029753616E1,-2.128872986E0,6.285429382E0,1.225063157E1
1.543728442E1,-1.077145065E1,-2.221530304E0,6.246510315E0,1.264825036E1
1.544731842E1,-1.128578110E1,-2.141297150E0,5.924080811E0,1.292473373E1
1.545735242E1,-1.166868484E1,-2.136357422E0,5.440436554E0,1.305069266E1
1.546738642E1,-1.199500626E1,-2.545157318E0,4.952601013E0,1.322445680E1
1.547742042E1,-1.266261795E1,-3.016227722E0,4.521048431E0,1.377967351E1
1.548745442E1,-1.364861755E1,-3.358116760E0,3.625460815E0,1.451570444E1
1.549748842E1,-1.455079147E1,-3.481460266E0,2.106719055E0,1.510908214E1
1.550752242E1,-1.490495499E1,-3.381917267E0,7.902067566E-1,1.530423060E1
1.551755642E1,-1.459045898E1,-3.264710999E0,8.816665649E-2,1.495150844E1
1.552759042E1,-1.375444748E1,-3.137774963E0,-3.435356140E-1,1.411199752E1
1.553762417E1,-1.239437576E1,-3.005899200E0,-6.731501770E-1,1.277141776E1
1.554765817E1,-1.101005447E1,-2.712658997E0,-8.111631775E-1,1.136828061E1
1.555769217E1,-9.790390778E0,-2.394869843E0,-1.044078827E0,1.013297852E1
1.556772617E1,-8.787326660E0,-2.142494659E0,-1.140927429E0,9.116419725E0
1.557776017E1,-8.327482910E0,-2.060016174E0,-9.008267212E-1,8.625666759E0
1.558779417E1,-8.187523956E0,-2.046843567E0,-5.272036743E-1,8.455948252E0
1.559782817E1,-8.324339447E0,-1.877246246E0,-2.866539001E-1,8.538199527E0
1.560786217E1,-8.804091797E0,-1.568139038E0,-1.258882141E-1,8.943541818E0
1.561789617E1,-9.302555237E0,-1.297352142E0,1.172062683E-1,9.393316444E0
1.562793017E1,-9.832602997E0,-1.108894043E0,3.029699707E-1,9.899571632E0
1.563796417E1,-1.042013123E1,-1.055006104E0,3.282673645E-1,1.047854628E1
1.564799817E1,-1.086904770E1,-1.106948090E0,3.013233948E-1,1.092942486E1
1.565803217E1,-1.094523926E1,-1.154698792E0,1.210981750E-1,1.100664601E1
1.566806617E1,-1.040456360E1,-1.158441010E0,-1.532812500E-1,1.046997729E1
1.567810017E1,-9.602681122E0,-1.359023895E0,-4.334985352E-1,9.708056018E0
1.568813417E1,-8.910071411E0,-1.474733276E0,-7.524851990E-1,9.062584883E0
1.569816817E1,-8.492888947E0,-1.390009460E0,-7.129673767E-1,8.635369792E0
1.570820217E1,-8.063881073E0,-1.155447235E0,-3.198847961E-1,8.152518786E0
1.571823617E1,-7.440427551E0,-9.928852844E-1,1.142124939E-1,7.507251683E0
1.572827017E1,-6.819219360E0,-9.725276184E-1,7.059320068E-1,6.924297990E0
1.573830417E1,-6.469845886E0,-7.098239136E-1,1.260229340E0,6.629550043E0
1.574833817E1,-6.225104828E0,-4.321513367E-1,1.564097443E0,6.433124102E0
1.575837217E1,-6.091732178E0,-4.167333984E-1,1.510658569E0,6.290068121E0
1.576840617E1,-6.353238373E0,-5.447172546E-1,1.405876465E0,6.529689376E0
1.577844017E1,-6.958429871E0,-5.209167480E-1,1.568288727E0,7.151966866E0
1.578847417E1,-7.454198914E0,-5.523513794E-1,1.859433289E0,7.702445433E0
1.579850817E1,-7.891739044E0,-6.680607605E-1,2.219584351E0,8.225108207E0
1.580854217E1,-8.213270416E0,-7.514373779E-1,2.524500275E0,8.625286702E0
1.581857617E1,-8.392447815E0,-6.806346130E-1,2.671644287E0,8.833692716E0
1.582861017E1,-8.424032135E0,-6.689588928E-1,2.731070709E0,8.880910462E0
1.583864417E1,-8.213719482E0,-8.238867188E-1,2.802621918E0,8.717721415E0
1.584867817E1,-8.030799866E0,-1.011746063E0,2.806064758E0,8.566876678E0
1.585871217E1,-8.034242706E0,-1.257385254E0,2.768043823E0,8.590235163E0
1.586874617E1,-8.142767029E0,-1.615740051E0,2.601440277E0,8.699584031E0
1.587878017E1,-8.258775787E0,-1.833537140E0,2.335144043E0,8.776225479E0
1.588881417E1,-8.097111969E0,-1.758094025E0,2.131567383E0,8.555565227E0
1.589884817E1,-8.081095276E0,-1.807341614E0,2.318079529E0,8.599074210E0
1.590888217E1,-8.073910217E0,-1.761536865E0,2.725532227E0,8.701698929E0
1.591891617E1,-8.379125519E0,-1.446142731E0,3.088527374E0,9.046550425E0
1.592895017E1,-9.300908661E0,-9.361532593E-1,3.442990265E0,9.961800380E0
1.593898417E1,-1.027732819E1,-3.471281433E-1,3.632047119E0,1.090576631E1
1.594901817E1,-1.148935776E1,-3.712280273E-2,4.072730713E0,1.218990793E1
1.595905217E1,-1.307276505E1,-5.599855042E-1,4.760700073E0,1.392390157E1
1.596908617E1,-1.454929459E1,-1.734592896E0,5.496569824E0,1.564937907E1
1.597912017E1,-1.614003662E1,-2.693049774E0,5.897585907E0,1.739352807E1
1.598915417E1,-1.750849091E1,-3.300037537E0,5.962850189E0,1.878811017E1
1.599918817E1,-1.786924072E1,-3.493884430E0,5.739813995E0,1.909089985E1
1.600922217E1,-1.737781265E1,-3.163222046E0,5.019960938E0,1.836285256E1
1.601925617E1,-1.570489151E1,-2.371668091E0,3.763024750E0,1.632264630E1
1.602929017E1,-1.363469650E1,-1.495090942E0,2.455194397E0,1.393442590E1
1.603932417E1,-1.153112091E1,-1.109792175E0,1.701212311E0,1.170865114E1
1.604935817E1,-9.621541901E0,-6.286926270E-1,1.191971283E0,9.715457709E0
1.605939217E1,-8.409512329E0,-2.588117981E-1,5.897735596E-1,8.434139791E0
1.606942617E1,-7.652985535E0,-2.336640930E-1,5.358856201E-2,7.656739400E0
1.607946017E1,-7.073839874E0,-2.323168945E-1,-8.981323242E-3,7.077659385E0
1.608949417E1,-6.409671021E0,-3.740721130E-1,-2.195933533E-1,6.424331388E0
1.609952817E1,-6.145320740E0,-5.719606018E-1,-4.887336731E-1,6.191200734E0
1.610956217E1,-6.417454834E0,-9.680369568E-1,-2.168989563E-1,6.493679023E0
1.611959617E1,-6.894812164E0,-1.444496155E0,1.381626892E-1,7.045856431E0
1.612963017E1,-7.894583130E0,-1.918859711E0,2.604583740E-1,8.128610210E0
1.613966417E1,-9.215885468E0,-2.246378632E0,1.642085266E-1,9.487134781E0
1.614969817E1,-1.012898666E1,-2.355651398E0,1.161584473E-1,1.039994986E1
1.615973217E1,-1.049991531E1,-2.261497192E0,1.276844788E-1,1.074145681E1
1.616976617E1,-1.044647644E1,-2.138602753E0,1.213975525E-1,1.066382807E1
1.617980017E1,-1.001761826E1,-1.961520996E0,1.339714050E-1,1.020873099E1
1.618983417E1,-9.461824036E0,-1.796114960E0,-7.334747314E-3,9.630794195E0
1.619986817E1,-8.975784760E0,-1.656156006E0,-1.633103943E-1,9.128758681E0
1.620990217E1,-8.337811432E0,-1.522633667E0,-1.570234680E-1,8.477155722E0
1.621993617E1,-7.758067017E0,-1.433419189E0,1.627116394E-1,7.891056297E0
1.622997017E1,-7.426356812E0,-1.326092377E0,5.774990845E-1,7.565897282E0
1.624000417E1,-7.132966919E0,-1.183888092E0,9.141490173E-1,7.288105138E0
1.625003817E1,-6.829098816E0,-1.135089569E0,1.322948914E0,7.048064472E0
1.626007217E1,-6.612948303E0,-9.141490173E-1,1.673370209E0,6.882363078E0
1.627010617E1,-6.494993591E0,-6.237528992E-1,1.942061462E0,6.807761170E0
1.628014017E1,-6.563101959E0,-4.141886902E-1,2.393073578E0,6.998046924E0
1.629017417E1,-6.722370758E0,-2.615061951E-1,2.900368652E0,7.326035246E0
1.630020817E1,-6.852599945E0,-2.604583740E-2,3.335962830E0,7.621512474E0
1.631024217E1,-6.990912323E0,1.133143616E-1,3.707789612E0,7.914126551E0
1.632027617E1,-7.209158478E0,1.381626892E-1,3.833378448E0,8.166140166E0
1.633031017E1,-7.604935455E0,8.247848511E-2,3.876788177E0,8.536470732E0
1.634034417E1,-8.150101776E0,-3.562591553E-2,3.889661407E0,9.030774830E0
1.635037817E1,-8.608897705E0,-9.699829102E-2,3.862717438E0,9.436265912E0
1.636041217E1,-8.859776001E0,-7.993377686E-2,3.880530396E0,9.672669556E0
1.637044617E1,-8.909921722E0,-1.332229614E-2,4.014352112E0,9.772507634E0
1.638048017E1,-8.905431061E0,8.816665649E-2,4.211791534E0,9.851581785E0
1.639051417E1,-9.045090637E0,1.528321838E-1,4.330644379E0,1.002953155E1
1.640054817E1,-9.417665863E0,1.393601990E-1,4.542004852E0,1.045665624E1
1.641058217E1,-9.589358826E0,2.694396973E-3,4.575984192E0,1.062522665E1
1.642061617E1,-9.426347809E0,-1.637594604E-1,4.568200378E0,1.047622570E1
1.643065017E1,-9.355844421E0,-1.384620667E-1,4.827760620E0,1.052892536E1
1.644068417E1,-9.352551270E0,-1.664538574E-1,5.091961212E0,1.065016390E1
1.645071817E1,-9.530531158E0,-3.264710999E-1,5.260510712E0,1.089084847E1
1.646075217E1,-9.967322845E0,-4.456233215E-1,5.336103516E0,1.131459701E1
1.647078617E1,-1.067684738E1,-4.534071350E-1,5.369334412E0,1.195953177E1
1.648082017E1,-1.160177399E1,-5.204676819E-1,5.289700012E0,1.276138599E1
1.649085417E1,-1.263088394E1,-6.697073364E-1,5.265600128E0,1.370088617E1
1.650088817E1,-1.345566879E1,-7.021897888E-1,5.315446472E0,1.448454571E1
1.651092217E1,-1.371942032E1,-7.821235657E-1,5.072501678E0,1.464801981E1
1.652095617E1,-1.378378647E1,-1.084644470E0,4.643793182E0,1.458540497E1
1.653099017E1,-1.346614700E1,-1.476379852E0,3.958069153E0,1.411322515E1
1.654102417E1,-1.264705032E1,-1.760938110E0,3.106789398E0,1.314157241E1
1.655105817E1,-1.187435715E1,-1.955982513E0,2.298619995E0,1.225193369E1
1.656109217E1,-1.139415573E1,-1.982477417E0,1.683998108E0,1.168729443E1
