"Time (s)","Acceleration x (m/s^2)","Acceleration y (m/s^2)","Acceleration z (m/s^2)","Absolute acceleration (m/s^2)"
2.958154166E-2,-2.039957886E0,4.829407196E0,8.459059296E0,9.951898623E0
3.961654167E-2,-1.800455933E0,4.671934662E0,8.813522186E0,1.013640905E1
4.965154167E-2,-1.995650024E0,4.554129639E0,8.796757050E0,1.010473406E1
5.968654167E-2,-2.213896179E0,4.545896759E0,8.525221710E0,9.911907932E0
6.972154167E-2,-2.379601593E0,4.601580963E0,8.242759094E0,9.735508646E0
7.975654167E-2,-2.251168671E0,4.797673187E0,8.278385010E0,9.829399105E0
8.979154167E-2,-1.816322937E0,4.899760895E0,8.115823059E0,9.652630199E0
9.982654167E-2,-1.718127136E0,4.879403229E0,7.846083984E0,9.397955661E0
1.098615417E-1,-1.897005157E0,4.981191559E0,7.802225189E0,9.449106615E0
1.198965417E-1,-1.994452515E0,5.147645416E0,7.747738495E0,9.513335164E0
1.299315417E-1,-1.942660217E0,5.190157013E0,7.566465454E0,9.378862298E0
1.399665417E-1,-1.833088074E0,5.182223511E0,7.416327667E0,9.231336223E0
1.500015417E-1,-1.971400452E0,5.125042419E0,7.489375763E0,9.286723257E0
1.600365417E-1,-2.142494659E0,5.092559967E0,7.690407715E0,9.469256634E0
1.700715417E-1,-2.119143219E0,5.149890747E0,8.000113678E0,9.747510531E0
1.801065417E-1,-1.939217377E0,5.139262848E0,8.239615631E0,9.902719445E0
1.901415417E-1,-1.824406128E0,5.053191833E0,8.124654694E0,9.740288462E0
2.001765417E-1,-1.804198151E0,5.093757477E0,7.882907410E0,9.557286510E0
2.102115417E-1,-1.769470367E0,5.176984406E0,7.551795959E0,9.325331905E0
2.202465417E-1,-1.789828033E0,5.192402344E0,7.353608093E0,9.178239400E0
2.302815417E-1,-1.843715973E0,5.299878845E0,7.420668640E0,9.303457821E0
2.403165417E-1,-1.569635925E0,5.479205933E0,7.555837555E0,9.464467008E0
2.503515417E-1,-1.168170776E0,5.493875427E0,7.321574707E0,9.227824574E0
2.603865417E-1,-1.127305756E0,5.399571533E0,6.874005432E0,8.813520391E0
2.704215417E-1,-1.205592957E0,5.395380249E0,6.398743744E0,8.456210966E0
2.804565417E-1,-1.126557312E0,5.324278107E0,5.831273804E0,7.976266226E0
2.904915417E-1,-1.141526184E0,5.176984406E0,5.222340088E0,7.441578163E0
3.005265417E-1,-1.210981750E0,4.947810974E0,4.670288086E0,6.910781507E0
3.105615417E-1,-1.256487122E0,4.650978241E0,4.123624878E0,6.341501448E0
3.205965417E-1,-1.282682648E0,4.302502899E0,3.430865479E0,5.650455194E0
3.306315417E-1,-1.219663696E0,3.902384949E0,2.661615143E0,4.878563619E0
3.406655417E-1,-1.012195129E0,3.558549957E0,1.887125702E0,4.153198790E0
3.507005417E-1,-7.842192078E-1,3.310665436E0,1.197509766E0,3.606873304E0
3.607355417E-1,-4.595443726E-1,3.051703949E0,6.337820435E-1,3.150517053E0
3.707705417E-1,-1.718426514E-1,2.647095337E0,2.269281006E-1,2.662356096E0
3.808055417E-1,7.963439941E-2,2.039658508E0,-4.161346436E-2,2.041636635E0
3.908405417E-1,1.811233521E-1,1.382824402E0,-2.005828857E-1,1.408986334E0
4.008755417E-1,7.469467163E-2,9.530680847E-1,-1.085243225E-1,9.621307586E-1
4.109105417E-1,1.231938171E-1,6.336323547E-1,1.857637024E-1,6.716954895E-1
4.209455417E-1,7.506889343E-1,2.145039368E-1,5.629792786E-1,9.625442759E-1
4.309805417E-1,2.970422974E0,-1.073268127E-1,5.592370605E-1,3.024512816E0
4.410155417E-1,2.482437744E0,-3.848497009E-1,1.370998993E0,2.861860354E0
4.510505417E-1,1.983974304E0,-5.321434021E-1,2.315983887E0,3.095660189E0
4.610855417E-1,3.497476959E0,-9.737251282E-1,2.241438904E0,4.266677169E0
4.711205417E-1,4.220922546E0,-1.573527832E0,2.363884277E0,5.087251307E0
4.811555417E-1,4.020189972E0,-1.824555817E0,2.558928680E0,5.102846983E0
4.911905417E-1,4.248315582E0,-1.997146912E0,2.970872040E0,5.555435334E0
5.012255417E-1,6.022426300E0,-2.316432953E0,3.839665375E0,7.508562469E0
5.112605417E-1,7.590715027E0,-2.484832764E0,4.814438324E0,9.325886813E0
5.212955417E-1,9.345665588E0,-2.579885101E0,5.908064117E0,1.135352342E1
5.313305417E-1,1.100421661E1,-2.595901794E0,6.954238586E0,1.327376826E1
5.413655417E-1,1.224468704E1,-2.520009613E0,7.902217255E0,1.478945052E1
5.514005417E-1,1.262594421E1,-2.196232910E0,8.462951202E0,1.535771628E1
5.614355417E-1,1.226549377E1,-1.992356873E0,8.186326447E0,1.488044906E1
5.714705417E-1,1.165536255E1,-2.370021515E0,7.428901520E0,1.402330403E1
5.815055417E-1,1.132020950E1,-3.031945038E0,6.923702087E0,1.361166722E1
5.915405417E-1,1.118429214E1,-3.565884705E0,6.884034576E0,1.360859495E1
6.015755417E-1,1.175804901E1,-3.950285339E0,7.281158752E0,1.438303666E1
6.116095417E-1,1.248748215E1,-4.264182587E0,7.811805267E0,1.533443070E1
6.216455417E-1,1.293160858E1,-4.397405548E0,8.361761627E0,1.601507832E1
6.316795417E-1,1.333995941E1,-4.407285004E0,8.593180389E0,1.646880164E1
6.417145417E-1,1.353305786E1,-4.499642944E0,8.255632324E0,1.647865003E1
6.517495417E-1,1.375205246E1,-4.759053497E0,7.820038147E0,1.652030671E1
6.617845417E-1,1.405532181E1,-4.966372375E0,7.343129883E0,1.661741503E1
6.718195417E-1,1.433628754E1,-5.217999115E0,7.075336761E0,1.681716520E1
6.818545417E-1,1.464778976E1,-5.588329010E0,7.115752716E0,1.721688424E1
6.918894167E-1,1.490525436E1,-5.935008087E0,7.276817780E0,1.761655487E1
7.019244167E-1,1.525133469E1,-6.358926544E0,7.570956116E0,1.817576774E1
7.119594167E-1,1.546194672E1,-6.819369049E0,7.989336090E0,1.869238031E1
7.219944167E-1,1.542317734E1,-6.891219635E0,8.368946686E0,1.885212391E1
7.320294167E-1,1.540147247E1,-6.774911499E0,8.790769501E0,1.898374064E1
7.420644167E-1,1.534743484E1,-6.779402161E0,9.264534302E0,1.916600234E1
7.520994167E-1,1.494641876E1,-6.523883514E0,9.628726959E0,1.893855519E1
7.621344167E-1,1.451516556E1,-6.242468719E0,9.814490662E0,1.860060950E1
7.721694167E-1,1.406041122E1,-6.440207520E0,9.775721283E0,1.829579633E1
7.822044167E-1,1.345521973E1,-6.353388062E0,9.525292053E0,1.766747482E1
7.922394167E-1,1.297022827E1,-6.191574554E0,9.097930756E0,1.700984306E1
8.022744167E-1,1.252445526E1,-6.163133698E0,8.636141052E0,1.641429648E1
8.123094167E-1,1.225845840E1,-5.842650146E0,8.257877655E0,1.589336046E1
8.223444167E-1,1.200907700E1,-5.274431763E0,7.842042389E0,1.528185818E1
8.323794167E-1,1.146301254E1,-5.024152222E0,7.615713043E0,1.465066030E1
8.424144167E-1,1.090018295E1,-4.978048096E0,7.138505402E0,1.394823324E1
8.524494167E-1,1.098266144E1,-3.960314484E0,6.576124878E0,1.339956572E1
8.624844167E-1,1.031025970E1,-3.361559601E0,5.819448395E0,1.230721405E1
8.725194167E-1,9.782008209E0,-2.819536743E0,5.425168304E0,1.153559375E1
8.825544167E-1,9.362730103E0,-2.509980469E0,4.809648285E0,1.082097193E1
8.925884167E-1,8.964408417E0,-2.382295990E0,4.137845306E0,1.015665871E1
9.026234167E-1,8.485254822E0,-2.227966919E0,3.557053070E0,9.466573431E0
9.126584167E-1,8.154143372E0,-2.181413727E0,3.010090485E0,8.961543656E0
9.226934167E-1,7.937693481E0,-2.270777893E0,2.635569305E0,8.666581541E0
9.327284167E-1,7.823780365E0,-2.477797394E0,2.430795135E0,8.559192959E0
9.427634167E-1,7.755971375E0,-2.756218414E0,2.234104156E0,8.528953822E0
9.527984167E-1,7.558681641E0,-3.010090485E0,2.091151428E0,8.400430177E0
9.628334167E-1,7.410639496E0,-3.294349365E0,2.130070496E0,8.384957710E0
9.728684167E-1,7.184459839E0,-3.490291901E0,2.376009064E0,8.333307855E0
9.829034167E-1,7.017856293E0,-3.595074005E0,2.802921295E0,8.368466516E0
9.929384167E-1,6.859036560E0,-3.742667084E0,3.379222870E0,8.513112629E0
1.002973417E0,6.784491577E0,-3.803141327E0,3.959865417E0,8.727757102E0
1.013008417E0,6.793173523E0,-3.814966736E0,4.307143250E0,8.902396345E0
1.023043417E0,6.783294067E0,-3.814367981E0,4.512216797E0,8.995697967E0
1.033078417E0,6.722969513E0,-3.778742065E0,4.537663879E0,8.948050299E0
1.043113417E0,6.610553284E0,-3.722159729E0,4.320465546E0,8.730424405E0
1.053148417E0,6.552324371E0,-3.743864594E0,4.061803436E0,8.570164754E0
1.063183417E0,6.593189392E0,-3.749403076E0,3.754043427E0,8.462919817E0
1.073218417E0,6.775360565E0,-3.735032959E0,3.530857544E0,8.504289329E0
1.083253417E0,7.128027191E0,-3.764821014E0,3.467838593E0,8.775451750E0
1.093288417E0,7.568710785E0,-3.792962494E0,3.400328979E0,9.123277075E0
1.103323417E0,7.907007294E0,-3.890110474E0,3.273392944E0,9.400469414E0
1.113358417E0,8.110733643E0,-3.889811096E0,3.032693481E0,9.492726707E0
1.123393417E0,8.265811157E0,-3.882626038E0,2.673141174E0,9.515466503E0
1.133428417E0,8.452622681E0,-3.946543121E0,2.409090271E0,9.634612017E0
1.143462417E0,8.660240936E0,-4.026776276E0,2.402204590E0,9.848110841E0
1.153497417E0,8.872649231E0,-4.034709778E0,2.372266846E0,1.003147234E1
1.163532417E0,9.061706085E0,-4.118834839E0,2.402204590E0,1.023962424E1
1.173567417E0,9.181157684E0,-4.301904144E0,2.500849457E0,1.044290590E1
1.183602417E0,9.283095703E0,-4.407584381E0,2.703977051E0,1.062610737E1
1.193637417E0,9.199868774E0,-4.490661621E0,2.844684448E0,1.062524620E1
1.203672417E0,9.183852081E0,-4.462520142E0,2.960244141E0,1.063109921E1
1.213707417E0,9.317075043E0,-4.559518433E0,3.113076324E0,1.082997414E1
1.223742417E0,9.444609833E0,-4.733307037E0,3.157683563E0,1.102614238E1
1.233777417E0,9.456135864E0,-4.800367584E0,3.352428589E0,1.112208667E1
1.243812417E0,9.382938080E0,-4.890480194E0,3.462300110E0,1.113300703E1
1.253847417E0,9.316925354E0,-5.025798798E0,3.595672760E0,1.118000958E1
1.263882417E0,9.319919128E0,-5.163362732E0,3.906576233E0,1.134823974E1
1.273917417E0,9.293424225E0,-5.336402893E0,4.057163086E0,1.145886129E1
1.283952417E0,9.308842163E0,-5.594915314E0,4.032015381E0,1.158510975E1
1.293987417E0,9.244476013E0,-5.815855865E0,3.851191406E0,1.158085452E1
1.304022417E0,9.139544220E0,-5.867648163E0,3.644321594E0,1.145607452E1
1.314057417E0,9.154812469E0,-5.908213806E0,3.477718048E0,1.143731195E1
1.324092417E0,9.248367920E0,-5.863606567E0,3.386407928E0,1.146219655E1
1.334127417E0,9.341773682E0,-5.722749481E0,3.414100342E0,1.147495875E1
1.344162417E0,9.751771088E0,-5.802234192E0,3.549269257E0,1.188950265E1
1.354197417E0,1.034588562E1,-6.232888641E0,3.757186890E0,1.264921750E1
1.364232417E0,1.079525116E1,-6.789880371E0,4.077221375E0,1.338893787E1
1.374266417E0,1.094434113E1,-7.216493225E0,4.530329132E0,1.387012109E1
1.384301417E0,1.080363373E1,-7.407496033E0,4.975503387E0,1.401232076E1
1.394336417E0,1.052925430E1,-7.352260895E0,5.256469116E0,1.387628927E1
1.404371417E0,1.015832565E1,-7.133116608E0,5.398523712E0,1.353576710E1
1.414406417E0,9.793683929E0,-6.791976013E0,5.490432587E0,1.312219620E1
1.424441417E0,9.475745087E0,-6.305487671E0,5.517376556E0,1.264872973E1
1.434476417E0,9.276659088E0,-5.897286530E0,5.442831573E0,1.226616516E1
1.444511417E0,9.233848114E0,-5.621110840E0,5.267995148E0,1.202549837E1
1.454546417E0,9.286987610E0,-5.480553131E0,5.147196350E0,1.194898455E1
1.464581417E0,9.283095703E0,-5.428311768E0,4.991071014E0,1.185551451E1
1.474616417E0,9.178612976E0,-5.447621613E0,4.689747620E0,1.165835538E1
1.484651417E0,8.931776276E0,-5.646707611E0,4.335733795E0,1.142193162E1
1.494686417E0,8.703500977E0,-5.899232483E0,4.068090363E0,1.127391823E1
1.504721417E0,8.456514587E0,-6.042334900E0,3.934118958E0,1.111304378E1
1.514756417E0,8.207133179E0,-6.094576263E0,3.951782227E0,1.095981193E1
1.524791417E0,8.008196869E0,-6.137836304E0,4.011807404E0,1.085812370E1
1.534826417E0,7.909701691E0,-6.117478638E0,4.091741180E0,1.080413215E1
1.544861417E0,7.986941071E0,-6.083948364E0,4.103416901E0,1.084636739E1
1.554896417E0,8.134683838E0,-6.055956573E0,4.011807404E0,1.090606665E1
1.564931417E0,8.256979523E0,-5.997278595E0,4.105961609E0,1.100018100E1
1.574966417E0,8.312663727E0,-5.836213531E0,4.244124298E0,1.100792250E1
1.585001417E0,8.272996216E0,-5.611979828E0,4.309987335E0,1.088635728E1
1.595036417E0,8.090226288E0,-5.354814606E0,4.411775665E0,1.065784056E1
1.605070417E0,7.868537292E0,-5.058730316E0,4.478686523E0,1.037127111E1
1.615105417E0,7.690557404E0,-4.793930969E0,4.556225281E0,1.014325570E1
1.625140417E0,7.505093079E0,-4.578528900E0,4.625381470E0,9.933957054E0
1.635175417E0,7.302863617E0,-4.447551270E0,4.691394196E0,9.753035876E0
1.645210417E0,7.069349213E0,-4.360282745E0,4.790937195E0,9.588578785E0
1.655245417E0,6.831643524E0,-4.304897919E0,4.805756378E0,9.396743782E0
1.665280417E0,6.605314178E0,-4.359085236E0,4.778513031E0,9.244781570E0
1.675315417E0,6.386169891E0,-4.469256134E0,4.701722717E0,9.102945281E0
1.685350417E0,6.141129456E0,-4.570595398E0,4.543950806E0,8.902320046E0
1.695384833E0,5.920937347E0,-4.703818359E0,4.272265778E0,8.685370522E0
1.705419833E0,5.744005280E0,-4.887636108E0,4.016447754E0,8.544848503E0
1.715454833E0,5.519621887E0,-5.008434906E0,3.892954559E0,8.408670596E0
1.725489833E0,5.320086823E0,-5.036576385E0,3.780238953E0,8.243823872E0
1.735524833E0,5.131628723E0,-5.096002808E0,3.603157196E0,8.079950479E0
1.745559833E0,4.984933777E0,-5.155878296E0,3.362906799E0,7.920971399E0
1.755594833E0,4.881498871E0,-5.175786896E0,3.068319397E0,7.748056862E0
1.765629833E0,4.824766846E0,-5.204377441E0,2.755619659E0,7.612973097E0
1.775664833E0,4.793032837E0,-5.252726898E0,2.423759766E0,7.512583780E0
1.785699833E0,4.782554626E0,-5.264252930E0,2.148182831E0,7.429661980E0
1.795734833E0,4.807852020E0,-5.321883087E0,1.947899323E0,7.431836409E0
1.805769833E0,4.867278442E0,-5.384752350E0,1.792073364E0,7.476462014E0
1.815803833E0,4.961582336E0,-5.320535889E0,1.689087524E0,7.468495035E0
1.825838833E0,5.118605804E0,-5.175038452E0,1.566941528E0,7.445566071E0
1.835873833E0,5.414690094E0,-5.169200592E0,1.288819885E0,7.596088485E0
1.845908833E0,5.780379639E0,-5.251679077E0,9.827064514E-1,7.871380684E0
1.855943833E0,6.224655762E0,-5.388793945E0,7.592211914E-1,8.268122904E0
1.865978833E0,6.643035736E0,-5.680836639E0,6.137237549E-1,8.762333340E0
1.876013833E0,6.932833099E0,-6.073320465E0,6.403683472E-1,9.239018772E0
1.886048833E0,7.004683685E0,-6.404132538E0,8.343649292E-1,9.527574294E0
1.896083833E0,7.001540222E0,-6.639892273E0,1.019829254E0,9.703081293E0
1.906118833E0,7.073690186E0,-6.735842743E0,1.140628052E0,9.834109144E0
1.916153833E0,7.312443695E0,-6.735243988E0,1.213376770E0,1.001536957E1
1.926188833E0,7.704777832E0,-6.750512238E0,1.173110504E0,1.031063554E1
1.936223833E0,8.065527649E0,-6.849755859E0,1.030906219E0,1.063177592E1
1.946258833E0,8.521629181E0,-7.158563690E0,7.834707642E-1,1.115692720E1
1.956293833E0,9.041198730E0,-7.774682465E0,5.697152710E-1,1.193790339E1
1.966328833E0,9.271419983E0,-8.444389801E0,5.671705627E-1,1.255343101E1
1.976363833E0,9.160800018E0,-8.876990204E0,9.189390564E-1,1.278927914E1
1.986398833E0,9.017547913E0,-8.994495850E0,1.587897949E0,1.283505145E1
1.996433833E0,8.891809387E0,-8.755143585E0,2.503693542E0,1.272734437E1
2.006468833E0,8.901988220E0,-8.156837769E0,3.582350464E0,1.259415069E1
2.016502833E0,9.144034882E0,-7.297774200E0,4.427043915E0,1.250878092E1
2.026537833E0,9.579479370E0,-6.469247131E0,4.832700348E0,1.252886971E1
2.036572833E0,1.020308258E1,-5.861660614E0,4.888085175E0,1.274187333E1
2.046607833E0,1.091964249E1,-5.441933441E0,4.867577820E0,1.313569737E1
2.056642833E0,1.161898819E1,-5.130281525E0,4.809648285E0,1.358136192E1
2.066677833E0,1.223196350E1,-4.972958679E0,4.627926178E0,1.399174577E1
2.076712833E0,1.259136612E1,-4.911436615E0,4.257147217E0,1.416996869E1
2.086747833E0,1.262414795E1,-4.899611206E0,3.778742065E0,1.405895419E1
2.096782833E0,1.231010101E1,-4.942571869E0,3.176993408E0,1.364041388E1
2.106817833E0,1.173724228E1,-4.939578094E0,2.683469696E0,1.301396549E1
2.116852833E0,1.103220840E1,-4.931494904E0,2.364782410E0,1.231346662E1
2.126887833E0,1.049946625E1,-4.837939453E0,2.355651398E0,1.179803132E1
2.136922833E0,1.029020142E1,-4.581971741E0,2.757715302E0,1.159688337E1
2.146957833E0,1.031774414E1,-4.173770599E0,3.241359558E0,1.159235166E1
2.156992833E0,1.029005173E1,-3.703149261E0,3.535647583E0,1.149344521E1
2.167027833E0,1.019529877E1,-3.318000183E0,3.772754517E0,1.136604235E1
2.177062833E0,1.004067032E1,-2.989283752E0,3.877087555E0,1.117061707E1
2.187097833E0,9.820927277E0,-2.794688416E0,3.950884094E0,1.094853328E1
2.197132833E0,9.559121704E0,-2.695295105E0,3.961212616E0,1.069264368E1
2.207166833E0,9.271419983E0,-2.744243317E0,3.970343628E0,1.045245083E1
2.217201833E0,8.944649506E0,-2.972069550E0,4.019291840E0,1.024669015E1
2.227236833E0,8.586743774E0,-3.174598389E0,4.086951141E0,1.002563780E1
2.237271833E0,8.318651276E0,-3.406466217E0,4.074077911E0,9.869249311E0
2.247306833E0,8.168363800E0,-3.681294708E0,3.967349854E0,9.798671479E0
2.257341833E0,8.093669128E0,-3.824846191E0,3.716022491E0,9.692561659E0
2.267376833E0,8.141120453E0,-3.912713470E0,3.429817657E0,9.661822711E0
2.277411833E0,8.354726257E0,-4.050726471E0,3.229683838E0,9.830599853E0
2.287446833E0,8.459208984E0,-4.153113556E0,3.145409088E0,9.934795780E0
2.297481833E0,8.465495911E0,-4.052971802E0,3.122207336E0,9.891379079E0
2.307516833E0,8.488248596E0,-3.906725922E0,3.060984650E0,9.832725903E0
2.317551833E0,8.584348755E0,-3.710334320E0,2.968626709E0,9.811746473E0
2.327586833E0,8.572074280E0,-3.503015442E0,2.949765930E0,9.718677569E0
2.337621833E0,8.426726532E0,-3.284320221E0,3.066223755E0,9.549775258E0
2.347656833E0,8.279732208E0,-3.053649902E0,3.149450684E0,9.370047106E0
2.357691833E0,8.099506989E0,-2.975961456E0,3.207679596E0,9.205844254E0
2.367726833E0,7.951464844E0,-2.968327332E0,3.301235046E0,9.106860773E0
2.377761833E0,7.954458618E0,-2.915487213E0,3.306474152E0,9.094297604E0
2.387796833E0,8.063881073E0,-2.993624725E0,3.217858429E0,9.183821635E0
2.397831833E0,8.436605988E0,-3.263962555E0,3.139870605E0,9.575414329E0
2.407865833E0,8.912017365E0,-3.579955444E0,3.044518890E0,1.007517889E1
2.417900833E0,9.520951080E0,-3.940405884E0,2.894979858E0,1.070309378E1
2.427935833E0,1.022388931E1,-4.333488464E0,2.798730011E0,1.145163415E1
2.437970833E0,1.081605789E1,-4.597239990E0,2.714305573E0,1.206188951E1
2.448005833E0,1.143307480E1,-4.714895325E0,2.491119690E0,1.261551087E1
2.458040833E0,1.202778809E1,-4.825964355E0,2.279010773E0,1.315870466E1
2.468075833E0,1.268971161E1,-5.163362732E0,2.130220184E0,1.386459280E1
2.478110833E0,1.332379303E1,-5.929469604E0,2.103276215E0,1.473451191E1
2.488145833E0,1.376492569E1,-6.960974579E0,2.300416260E0,1.559552055E1
2.498180833E0,1.373139542E1,-7.803422699E0,2.521506500E0,1.599383071E1
2.508215833E0,1.329340622E1,-8.221952362E0,2.648442535E0,1.585337180E1
2.518250833E0,1.276844788E1,-8.067623291E0,2.847378845E0,1.536969008E1
2.528285833E0,1.226489502E1,-7.214547272E0,3.115920410E0,1.456661602E1
2.538320833E0,1.212972610E1,-6.405928802E0,3.146007843E0,1.407350506E1
2.548355833E0,1.218600906E1,-5.859564972E0,3.108735352E0,1.387434878E1
2.558390833E0,1.213855774E1,-5.488636322E0,3.174748077E0,1.369484348E1
2.568425833E0,1.201072357E1,-5.337151337E0,3.245999908E0,1.353806413E1
2.578460833E0,1.179083084E1,-5.485941925E0,3.263812866E0,1.340789786E1
2.588494833E0,1.153576126E1,-5.876330109E0,3.164569244E0,1.332739817E1
2.598529833E0,1.131197662E1,-6.424190826E0,3.062780914E0,1.336456770E1
2.608564833E0,1.104014191E1,-6.944359131E0,3.057092743E0,1.339606932E1
2.618599833E0,1.077534256E1,-7.338639221E0,3.116968231E0,1.340444418E1
2.628634833E0,1.056413177E1,-7.661517792E0,3.031046906E0,1.339727511E1
2.638669833E0,1.047102539E1,-7.886799316E0,2.842289429E0,1.341352248E1
2.648704833E0,1.032792297E1,-7.973618774E0,2.712509308E0,1.332675114E1
2.658739833E0,1.009755203E1,-7.887248383E0,2.665507050E0,1.308717586E1
2.668774833E0,9.817035370E0,-7.706574097E0,2.722987518E0,1.277419777E1
2.678809833E0,9.518705750E0,-7.505242767E0,2.754422150E0,1.243065845E1
2.688845667E0,9.147627411E0,-7.238647156E0,2.735561371E0,1.198166916E1
2.698880667E0,8.738528137E0,-6.918912048E0,2.811303864E0,1.149507057E1
2.708915667E0,8.303682404E0,-6.578669586E0,2.929557953E0,1.099146691E1
2.718950667E0,7.899073792E0,-6.252497864E0,3.047362976E0,1.052499489E1
2.728985667E0,7.573201447E0,-5.979465637E0,3.135829010E0,1.014597521E1
2.739020667E0,7.389982452E0,-5.805826721E0,3.182232513E0,9.921999210E0
2.749055667E0,7.209906921E0,-5.703140259E0,3.166365509E0,9.722882143E0
2.759090667E0,6.909481659E0,-5.589825897E0,3.102747803E0,9.413508075E0
2.769124667E0,6.637048187E0,-5.415887604E0,3.087030487E0,9.105602913E0
2.779159667E0,6.399492188E0,-5.222040710E0,3.031795349E0,8.798579003E0
2.789194667E0,6.159391479E0,-5.081033936E0,2.930605774E0,8.505495838E0
2.799229667E0,5.954766998E0,-5.044060822E0,2.864443359E0,8.313052107E0
2.809264667E0,5.780679016E0,-5.050198059E0,2.821782074E0,8.178215233E0
2.819299667E0,5.662873993E0,-5.075196075E0,2.750530243E0,8.086480921E0
2.829334667E0,5.467979279E0,-5.164560242E0,2.659669189E0,7.977801707E0
2.839369667E0,5.240452423E0,-5.266947327E0,2.570305023E0,7.861904582E0
2.849404667E0,5.013823700E0,-5.330265656E0,2.500699768E0,7.733282575E0
2.859439667E0,4.799319763E0,-5.373525696E0,2.388732605E0,7.590407898E0
2.869474667E0,4.600832520E0,-5.451214142E0,2.212399292E0,7.468474149E0
2.879509667E0,4.406536560E0,-5.503605194E0,2.063608704E0,7.346136091E0
2.889544667E0,4.271816711E0,-5.494025116E0,1.878743134E0,7.208495388E0
2.899579667E0,4.165537720E0,-5.511089630E0,1.658850403E0,7.104618080E0
2.909614667E0,4.151766357E0,-5.454656982E0,1.472787323E0,7.011387108E0
2.919649667E0,4.234394531E0,-5.367538147E0,1.337468719E0,6.966303567E0
2.929684667E0,4.338727570E0,-5.377417603E0,1.262474670E0,7.023889185E0
2.939719667E0,4.451592865E0,-5.485043793E0,1.273102570E0,7.177964516E0
2.949753667E0,4.493206329E0,-5.669759674E0,1.349593506E0,7.359108676E0
2.959788667E0,4.574936371E0,-5.877527618E0,1.369801483E0,7.573092486E0
2.969823667E0,4.669090576E0,-6.160289612E0,1.336720276E0,7.844513752E0
2.979858667E0,4.750072174E0,-6.408473511E0,1.287472687E0,8.080179721E0
2.989893667E0,4.972659302E0,-6.578819275E0,1.191971283E0,8.332406562E0
2.999928667E0,5.247787170E0,-6.629264374E0,1.079555054E0,8.523605777E0
3.009963667E0,5.635181580E0,-6.648873596E0,9.939331055E-1,8.772154499E0
3.019998667E0,6.220913544E0,-6.735992432E0,9.033714294E-1,9.213546510E0
3.030033667E0,6.902745667E0,-6.970854034E0,7.824229431E-1,9.841386557E0
3.040068667E0,7.626041565E0,-7.422165527E0,5.834866333E-1,1.065765020E1
3.050103667E0,8.198002167E0,-8.044870605E0,3.742218018E-1,1.149205049E1
3.060138667E0,8.566685486E0,-8.650361481E0,2.547702026E-1,1.217709989E1
3.070173667E0,8.626261597E0,-8.929081879E0,4.197271729E-1,1.242244192E1
3.080208667E0,8.425678711E0,-8.657845917E0,1.019080811E0,1.212389720E1
3.090243667E0,8.439749451E0,-8.038883057E0,1.808838501E0,1.179512223E1
3.100278667E0,8.744964752E0,-7.252867584E0,2.536175995E0,1.164090569E1
3.110313667E0,9.099128265E0,-6.464008026E0,3.030747528E0,1.156559404E1
3.120347667E0,9.555828552E0,-5.842350769E0,3.290008392E0,1.167352034E1
3.130382667E0,1.003543121E1,-5.471272430E0,3.313958588E0,1.190071524E1
3.140417667E0,1.023227188E1,-5.501060486E0,3.152893524E0,1.203751602E1
3.150452667E0,1.040261765E1,-5.867797852E0,2.838547211E0,1.227610915E1
3.160487667E0,1.064167053E1,-6.329138489E0,2.761457520E0,1.268577130E1
3.170522667E0,1.088955505E1,-6.611152039E0,2.963686981E0,1.307949468E1
3.180557667E0,1.105855362E1,-6.749165039E0,3.120411072E0,1.332590718E1
3.190592667E0,1.116049164E1,-6.760691071E0,3.190914459E0,1.343299864E1
3.200627667E0,1.120599701E1,-6.534960480E0,3.176544342E0,1.335554235E1
3.210662667E0,1.120285355E1,-6.097869415E0,2.936593323E0,1.308860265E1
3.220697667E0,1.119192627E1,-5.567522278E0,2.466720428E0,1.274131970E1
3.230732667E0,1.113040421E1,-5.044060822E0,1.874551849E0,1.236294431E1
3.240767667E0,1.094853241E1,-4.577181702E0,1.448837128E0,1.195491879E1
3.250802667E0,1.073013657E1,-4.164639587E0,1.377884674E0,1.159217925E1
3.260837667E0,1.049123337E1,-3.893553314E0,1.589694214E0,1.130278119E1
3.270872667E0,1.015802628E1,-3.731739807E0,2.011966095E0,1.100724250E1
3.280907667E0,9.769434357E0,-3.679199066E0,2.460882568E0,1.072540426E1
3.290941667E0,9.425449677E0,-3.768563232E0,2.790796509E0,1.052756931E1
3.300976667E0,9.145531769E0,-3.943399658E0,3.118465118E0,1.043628176E1
3.311011667E0,8.909472656E0,-4.086352386E0,3.467090149E0,1.039700404E1
3.321046667E0,8.759185181E0,-4.136498108E0,3.741768951E0,1.038435248E1
3.331081667E0,8.728199615E0,-4.161496124E0,3.842210083E0,1.040490734E1
3.341116667E0,8.765921173E0,-4.175716553E0,3.779041443E0,1.041917161E1
3.351151667E0,8.807983704E0,-4.199217682E0,3.670666809E0,1.042534416E1
3.361186667E0,8.835376740E0,-4.166136475E0,3.691772919E0,1.044268943E1
3.371221667E0,8.949589233E0,-4.100872192E0,3.799997864E0,1.055235917E1
3.381256667E0,9.021589508E0,-4.028572540E0,3.958368530E0,1.064364390E1
3.391291667E0,9.115444336E0,-3.920497284E0,4.174369354E0,1.076508170E1
3.401326667E0,9.185498657E0,-3.822750549E0,4.359234924E0,1.086230806E1
3.411361667E0,9.176966400E0,-3.650309143E0,4.449796600E0,1.083245858E1
3.421396667E0,9.125623169E0,-3.394341431E0,4.457430725E0,1.070827907E1
3.431431667E0,9.051976318E0,-3.132685547E0,4.416565704E0,1.054789299E1
3.441465667E0,8.962013397E0,-2.904709625E0,4.264481964E0,1.034121988E1
3.451500667E0,8.924291840E0,-2.671644287E0,4.091441803E0,1.017450559E1
3.461535667E0,9.016500092E0,-2.505040741E0,3.934118958E0,1.015134449E1
3.471570667E0,9.308842163E0,-2.543211365E0,3.807332611E0,1.037392154E1
3.481605667E0,9.668843536E0,-2.762505341E0,3.544030151E0,1.066199422E1
3.491640667E0,1.012120285E1,-3.129242706E0,3.275189209E0,1.108863253E1
3.501675667E0,1.061607376E1,-3.551065521E0,3.090772705E0,1.161309452E1
3.511710667E0,1.112845825E1,-3.943549347E0,2.971171417E0,1.217464678E1
3.521745667E0,1.163904648E1,-4.231101379E0,2.905757446E0,1.272057578E1
3.531780667E0,1.216475327E1,-4.331991577E0,2.935096436E0,1.324243800E1
3.541815667E0,1.257669662E1,-4.291425934E0,3.019670563E0,1.362747390E1
3.551850667E0,1.278700928E1,-4.217180328E0,3.173700256E0,1.383345906E1
3.561885667E0,1.319416260E1,-4.521946564E0,3.357518005E0,1.434596998E1
3.571920667E0,1.373364075E1,-5.391488342E0,3.550317078E0,1.517517005E1
3.581955667E0,1.408271484E1,-6.381379852E0,3.674409027E0,1.589170060E1
3.591990667E0,1.417627029E1,-7.054979095E0,3.756887512E0,1.627432251E1
3.602024667E0,1.382659744E1,-7.187752991E0,3.766916656E0,1.603210064E1
3.612059667E0,1.316527267E1,-6.830895081E0,3.674558716E0,1.528031132E1
3.622094667E0,1.240320740E1,-6.152954865E0,3.536396027E0,1.429001414E1
3.632129667E0,1.192255692E1,-5.522465973E0,3.477418671E0,1.359181498E1
3.642164667E0,1.166449356E1,-5.148094482E0,3.454965363E0,1.320984756E1
3.652199667E0,1.147962799E1,-5.068460083E0,3.384911041E0,1.299726006E1
3.662234667E0,1.124716141E1,-5.206473083E0,3.268453217E0,1.281751880E1
3.672269667E0,1.109103607E1,-5.538482666E0,3.175795898E0,1.279732593E1
3.682304667E0,1.105526047E1,-5.970334625E0,3.060685272E0,1.293180088E1
3.692339458E0,1.107367218E1,-6.492598572E0,2.947221222E0,1.317065544E1
3.702374458E0,1.099538498E1,-6.917714539E0,2.940934296E0,1.331924772E1
3.712409458E0,1.091814560E1,-7.207960968E0,2.905458069E0,1.340157794E1
3.722444458E0,1.086216202E1,-7.468419342E0,2.808759155E0,1.347786998E1
3.732479458E0,1.071741302E1,-7.602091370E0,2.691702576E0,1.341268049E1
3.742514458E0,1.053164932E1,-7.565567322E0,2.633922729E0,1.323219541E1
3.752548458E0,1.032732422E1,-7.454198914E0,2.684068451E0,1.301625639E1
3.762583458E0,1.009919861E1,-7.308851166E0,2.828069000E0,1.278323481E1
3.772618458E0,9.813293152E0,-7.089407501E0,2.989433441E0,1.246984898E1
3.782653458E0,9.483977966E0,-6.809040527E0,3.157982941E0,1.209469831E1
3.792688458E0,9.189689941E0,-6.527775421E0,3.300037537E0,1.174531825E1
3.802723458E0,8.863817596E0,-6.276897125E0,3.392245789E0,1.137866562E1
3.812758458E0,8.511600037E0,-6.070326691E0,3.422632599E0,1.100048250E1
3.822793458E0,8.179440765E0,-5.898783417E0,3.406915283E0,1.064452764E1
3.832828458E0,7.854616241E0,-5.757626953E0,3.401526489E0,1.031579599E1
3.842863458E0,7.495063934E0,-5.598507843E0,3.336262207E0,9.932266557E0
3.852898458E0,7.161108398E0,-5.495671692E0,3.180286560E0,9.570689810E0
3.862933458E0,6.826404419E0,-5.460943909E0,3.066074066E0,9.264044249E0
3.872968458E0,6.474935303E0,-5.457650757E0,3.004402313E0,8.985386593E0
3.883003458E0,6.165379028E0,-5.428012390E0,2.921923828E0,8.718535194E0
3.893038458E0,5.950276337E0,-5.434449005E0,2.808459778E0,8.533842675E0
3.903072458E0,5.764662323E0,-5.535339203E0,2.714604950E0,8.440402350E0
3.913107458E0,5.545218658E0,-5.616769867E0,2.599644012E0,8.309976095E0
3.923142458E0,5.296585693E0,-5.629343719E0,2.429148560E0,8.102104260E0
3.933177458E0,5.058880005E0,-5.586383057E0,2.228415985E0,7.859120839E0
3.943212458E0,4.879403229E0,-5.563929749E0,2.038460999E0,7.676015461E0
3.953247458E0,4.730313263E0,-5.598208466E0,1.861229553E0,7.561744312E0
3.963282458E0,4.570445709E0,-5.592819672E0,1.749711456E0,7.431695368E0
3.973317458E0,4.525688782E0,-5.567073212E0,1.616787872E0,7.354465726E0
3.983352458E0,4.461472321E0,-5.537883911E0,1.472787323E0,7.262368483E0
3.993387458E0,4.438120880E0,-5.473068695E0,1.392254791E0,7.182601986E0
4.003422458E0,4.510719910E0,-5.477259979E0,1.381626892E0,7.228821747E0
4.013457458E0,4.597090302E0,-5.543721771E0,1.391805725E0,7.335067382E0
4.023492458E0,4.620292053E0,-5.647605743E0,1.433868256E0,7.436297968E0
4.033527458E0,4.748874664E0,-5.827232208E0,1.421294403E0,7.650393687E0
4.043561458E0,4.940326538E0,-6.103856964E0,1.403331757E0,7.977044325E0
4.053596458E0,5.105283508E0,-6.421346741E0,1.446591797E0,8.330080521E0
4.063631458E0,5.285059662E0,-6.652915192E0,1.500030670E0,8.628048921E0
4.073666458E0,5.529501343E0,-6.831344147E0,1.504371643E0,8.916601482E0
4.083701458E0,5.848188629E0,-6.954238586E0,1.545536041E0,9.216909797E0
4.093736458E0,6.257437592E0,-7.154821472E0,1.652713165E0,9.647717674E0
4.103771458E0,6.788084106E0,-7.454947357E0,1.736838226E0,1.023088134E1
4.113806458E0,7.420069885E0,-7.980354767E0,1.773961029E0,1.104040022E1
4.123841458E0,7.933352509E0,-8.706794128E0,1.819466400E0,1.191875849E1
4.133876458E0,8.063581696E0,-9.228309631E0,1.817520447E0,1.238896400E1
4.143911458E0,7.855813751E0,-9.291627960E0,1.887125702E0,1.231297703E1
4.153946458E0,7.485932922E0,-8.904383240E0,2.128872986E0,1.182621380E1
4.163981458E0,7.280559998E0,-8.228239288E0,2.509531403E0,1.126979252E1
4.174015458E0,7.362888794E0,-7.397167511E0,3.007396088E0,1.086161359E1
4.184050458E0,7.451953583E0,-6.519243164E0,3.457061005E0,1.048729777E1
4.194085458E0,7.612419891E0,-5.705834656E0,3.773353271E0,1.023443602E1
4.204120458E0,7.987839203E0,-5.089566193E0,4.005520477E0,1.028364981E1
4.214155458E0,8.528514862E0,-4.704417114E0,4.162843323E0,1.059227882E1
4.224190458E0,9.120084686E0,-4.521347809E0,4.265679474E0,1.103696299E1
4.234225458E0,9.680070190E0,-4.548291779E0,4.132157135E0,1.146583794E1
4.244260458E0,1.013272888E1,-4.823569336E0,3.721560974E0,1.182324117E1
4.254295458E0,1.044348267E1,-5.285359039E0,3.135679321E0,1.211750119E1
4.264330458E0,1.056413177E1,-5.629493408E0,2.613714752E0,1.225249285E1
4.274365458E0,1.059421921E1,-5.793851624E0,2.205962677E0,1.227487143E1
4.284400458E0,1.070798264E1,-5.946234741E0,1.900447998E0,1.239476915E1
4.294435458E0,1.077803696E1,-5.995632019E0,1.617236938E0,1.243901681E1
4.304470458E0,1.069121750E1,-5.842051392E0,1.381626892E0,1.226134532E1
4.314504458E0,1.051129166E1,-5.588927765E0,1.327140198E0,1.197850854E1
4.324539458E0,1.029454239E1,-5.366640015E0,1.528621216E0,1.170961617E1
4.334574458E0,1.007614655E1,-5.213807831E0,1.998643799E0,1.151985670E1
4.344609458E0,9.831106110E0,-5.112468567E0,2.584824829E0,1.137845779E1
4.354644458E0,9.645641785E0,-4.944817200E0,2.959645386E0,1.123606352E1
4.364679458E0,9.544901276E0,-4.732408905E0,3.137924652E0,1.110618771E1
4.374714458E0,9.584868164E0,-4.539160767E0,3.205434265E0,1.107919162E1
4.384749458E0,9.650431824E0,-4.310586090E0,3.082090759E0,1.100959901E1
4.394784458E0,9.659113770E0,-4.113446045E0,2.881956940E0,1.088690006E1
4.404819458E0,9.702673187E0,-3.954177246E0,2.791844330E0,1.084305213E1
4.414854458E0,9.847721558E0,-3.847000122E0,2.777324524E0,1.093117383E1
4.424889458E0,9.908794556E0,-3.763623505E0,2.849624176E0,1.097585666E1
4.434924458E0,9.974058838E0,-3.721111908E0,3.000360718E0,1.106032043E1
4.444959458E0,1.006596771E1,-3.627107391E0,3.041375427E0,1.112337981E1
4.454993458E0,1.016251694E1,-3.473826141E0,2.972219238E0,1.114353201E1
4.465028458E0,1.027717850E1,-3.360811157E0,2.868934021E0,1.118687767E1
4.475063458E0,1.038375687E1,-3.249592438E0,2.837349701E0,1.124423457E1
4.485098458E0,1.050500473E1,-3.092568970E0,2.863694916E0,1.131900419E1
4.495133458E0,1.057820251E1,-2.931204529E0,2.962190094E0,1.136947222E1
4.505168458E0,1.064421524E1,-2.771786041E0,3.098257141E0,1.142721809E1
4.515203458E0,1.068014053E1,-2.655926971E0,3.221151581E0,1.146713423E1
4.525238458E0,1.068373306E1,-2.570754089E0,3.279679871E0,1.146766013E1
4.535273458E0,1.058538757E1,-2.476450195E0,3.248993683E0,1.134632961E1
4.545308458E0,1.044378204E1,-2.404150543E0,3.152145081E0,1.117087919E1
4.555343458E0,1.030771500E1,-2.457589417E0,3.069516907E0,1.103225581E1
4.565378458E0,1.023721161E1,-2.638413391E0,3.028502197E0,1.099697924E1
4.575413458E0,1.033181488E1,-2.971021729E0,3.024610291E0,1.116788414E1
4.585447458E0,1.065544189E1,-3.426225128E0,3.103945312E0,1.161515980E1
4.595482458E0,1.109343109E1,-3.878285065E0,3.196602631E0,1.217881672E1
4.605517458E0,1.144684616E1,-4.144730988E0,3.243904266E0,1.259888872E1
4.615552458E0,1.179756683E1,-4.156406708E0,3.309318237E0,1.293869727E1
4.625587458E0,1.214155151E1,-4.047433319E0,3.258274384E0,1.320664006E1
4.635622458E0,1.245455063E1,-3.911665649E0,3.211122437E0,1.344352137E1
4.645657458E0,1.301318893E1,-4.157753906E0,3.321143646E0,1.405916068E1
4.655692458E0,1.346390167E1,-4.881349182E0,3.514541473E0,1.474639684E1
4.665727458E0,1.355700806E1,-5.531297607E0,3.744163971E0,1.511312292E1
4.675762458E0,1.336585556E1,-5.941594391E0,3.885470123E0,1.513424979E1
4.685797458E0,1.297546738E1,-6.025719452E0,3.985462189E0,1.485112647E1
4.695831917E0,1.251487518E1,-5.680537262E0,4.016597443E0,1.431864726E1
4.705866917E0,1.210727280E1,-5.186863861E0,3.967649231E0,1.375615687E1
4.715900917E0,1.193632828E1,-4.898413696E0,3.905827789E0,1.348057418E1
4.725935917E0,1.177960419E1,-4.834795990E0,3.779640198E0,1.328231934E1
4.735970917E0,1.159249329E1,-4.870272217E0,3.741619263E0,1.311888588E1
4.746005917E0,1.145777344E1,-4.980293427E0,3.697311401E0,1.302896797E1
4.756040917E0,1.141870468E1,-5.317691803E0,3.600313110E0,1.310064568E1
4.766075917E0,1.147872986E1,-5.840105438E0,3.560046844E0,1.336196109E1
4.776110917E0,1.153815628E1,-6.334676971E0,3.512745209E0,1.362338290E1
4.786145917E0,1.145882126E1,-6.801705780E0,3.442541199E0,1.376295303E1
4.796180917E0,1.130344437E1,-7.142546997E0,3.469036102E0,1.381369044E1
4.806215917E0,1.120629639E1,-7.320676575E0,3.601510620E0,1.386161112E1
4.816250917E0,1.111962662E1,-7.448061676E0,3.726800079E0,1.389275918E1
4.826285917E0,1.097278198E1,-7.507937164E0,3.844455414E0,1.384019156E1
4.836319917E0,1.074660233E1,-7.490573273E0,3.952530670E0,1.368285965E1
4.846354917E0,1.047880920E1,-7.411088562E0,4.011957092E0,1.344713634E1
4.856389917E0,1.021251297E1,-7.308102722E0,4.047133942E0,1.319405471E1
4.866424917E0,9.935588837E0,-7.192992096E0,4.084256744E0,1.292811719E1
4.876459917E0,9.638157349E0,-7.014563141E0,4.044738922E0,1.258801359E1
4.886494917E0,9.304201813E0,-6.867269440E0,3.960314484E0,1.222340590E1
4.896529917E0,8.927884369E0,-6.708150330E0,3.864962769E0,1.181712052E1
4.906564917E0,8.535550232E0,-6.536756744E0,3.769760742E0,1.139280047E1
4.916599917E0,8.173902283E0,-6.390959930E0,3.676205292E0,1.100779418E1
4.926634917E0,7.874375153E0,-6.323749695E0,3.525169373E0,1.069684128E1
4.936669917E0,7.674241333E0,-6.358178101E0,3.434008942E0,1.054100689E1
4.946704917E0,7.516918488E0,-6.427633667E0,3.412603455E0,1.046252362E1
4.956739917E0,7.222480774E0,-6.425538025E0,3.373834076E0,1.023887317E1
4.966773917E0,6.905589752E0,-6.365363159E0,3.307971039E0,9.957293325E0
4.976808917E0,6.670428772E0,-6.302793274E0,3.205883331E0,9.720983026E0
4.986843917E0,6.433022461E0,-6.227499847E0,3.132386169E0,9.485640487E0
4.996878917E0,6.261928253E0,-6.118676147E0,3.026406555E0,9.263319053E0
5.006913917E0,6.112089844E0,-5.994434509E0,2.891237640E0,9.036046837E0
5.016948917E0,5.928421783E0,-5.898034973E0,2.774929504E0,8.810972429E0
5.026983917E0,5.810916138E0,-5.781726837E0,2.584226074E0,8.594959917E0
5.037018917E0,5.699547729E0,-5.705834656E0,2.342179413E0,8.398047264E0
5.047053917E0,5.532794495E0,-5.621110840E0,2.231110382E0,8.196740543E0
5.057088917E0,5.351671143E0,-5.513334961E0,2.154918823E0,7.980032678E0
5.067123917E0,5.231620789E0,-5.490133209E0,2.056423645E0,7.857499407E0
5.077158917E0,5.151986389E0,-5.555547180E0,1.937570801E0,7.820565762E0
5.087193917E0,5.057383118E0,-5.641767883E0,1.807341614E0,7.789297308E0
5.097227917E0,4.981191559E0,-5.791157227E0,1.657203827E0,7.816399164E0
5.107262917E0,4.910239105E0,-5.996081085E0,1.471140747E0,7.888453052E0
5.117297917E0,4.860243073E0,-6.278094635E0,1.322200470E0,8.048891169E0
5.127332917E0,4.824467468E0,-6.530469818E0,1.225950623E0,8.211301805E0
5.137367917E0,4.785997467E0,-6.675069122E0,1.192719727E0,8.299692759E0
5.147402917E0,4.701573029E0,-6.757846985E0,1.232387238E0,8.324185433E0
5.157437917E0,4.696932678E0,-6.791377258E0,1.274749146E0,8.355176062E0
5.167472917E0,4.847070465E0,-6.822512512E0,1.294807434E0,8.468606459E0
5.177507917E0,5.191504211E0,-6.980434113E0,1.393751678E0,8.810262205E0
5.187542917E0,5.758375397E0,-7.217990112E0,1.464255066E0,9.348920332E0
5.197577917E0,6.362369385E0,-7.511080627E0,1.456321564E0,9.950726048E0
5.207611917E0,6.828050995E0,-7.770042114E0,1.345701599E0,1.043104729E1
5.217646917E0,7.070846100E0,-7.793692932E0,1.235680389E0,1.059553775E1
5.227681917E0,7.137158203E0,-7.440277863E0,1.155147858E0,1.037454233E1
5.237716917E0,7.183561707E0,-6.794820099E0,1.130000153E0,9.952388623E0
5.247751917E0,7.433541870E0,-5.948330383E0,1.266366577E0,9.604366892E0
5.257786917E0,7.797734528E0,-5.126838684E0,1.529369659E0,9.456643707E0
5.267821917E0,8.201145630E0,-4.485721893E0,1.790726166E0,9.517730336E0
5.277856917E0,8.641529846E0,-4.126019897E0,2.020797729E0,9.786914822E0
5.287891917E0,9.069340210E0,-4.096381531E0,2.202070770E0,1.019227105E1
5.297926917E0,9.448651428E0,-4.450694733E0,2.403551788E0,1.071740447E1
5.307961917E0,9.879904633E0,-5.202431488E0,2.467169495E0,1.143524089E1
5.317996917E0,1.033555710E1,-6.121220856E0,2.437531128E0,1.225702424E1
5.328031917E0,1.080303497E1,-6.909631348E0,2.448757782E0,1.305545804E1
5.338065917E0,1.130224686E1,-7.460785217E0,2.494861908E0,1.377056411E1
5.348100917E0,1.181627792E1,-7.772886200E0,2.565215607E0,1.437437007E1
5.358135917E0,1.225486588E1,-7.570956116E0,2.440524902E0,1.461017714E1
5.368170917E0,1.257505005E1,-7.099436646E0,2.084864502E0,1.459042646E1
5.378205917E0,1.263327896E1,-6.465953979E0,1.715432739E0,1.429513930E1
5.388240917E0,1.243853394E1,-5.722749481E0,1.563049622E0,1.378078779E1
5.398275917E0,1.214649124E1,-5.099894714E0,1.677561493E0,1.328007485E1
5.408310917E0,1.177915512E1,-4.557273102E0,1.898202667E0,1.277185996E1
5.418345917E0,1.138921600E1,-4.049229584E0,2.304457855E0,1.230532516E1
5.428380917E0,1.102637054E1,-3.529809723E0,2.665207672E0,1.188039292E1
5.438415917E0,1.076067307E1,-3.179388428E0,2.770588531E0,1.155754111E1
5.448450917E0,1.048779053E1,-2.877466278E0,2.780018921E0,1.122506425E1
5.458484917E0,1.024409729E1,-2.577939148E0,2.777623901E0,1.092256811E1
5.468519917E0,1.005429199E1,-2.394570465E0,2.704426117E0,1.068347677E1
5.478554917E0,9.889335022E0,-2.263592834E0,2.532583466E0,1.045642284E1
5.488589917E0,9.616302795E0,-2.142494659E0,2.404898987E0,1.014135602E1
5.498624917E0,9.367520142E0,-2.109862518E0,2.399510193E0,9.897454350E0
5.508659917E0,9.214687958E0,-2.151775360E0,2.469714203E0,9.779575635E0
5.518694917E0,8.983269196E0,-2.200274506E0,2.552492065E0,9.594558306E0
5.528729917E0,8.859476624E0,-2.258054352E0,2.585124207E0,9.501157964E0
5.538764917E0,8.904383240E0,-2.389780426E0,2.597099304E0,9.578309671E0
5.548799917E0,8.912616119E0,-2.498903503E0,2.716251526E0,9.646619468E0
5.558834917E0,8.815917206E0,-2.514171753E0,2.976709900E0,9.638581722E0
5.568868917E0,8.676257629E0,-2.518512726E0,3.160078583E0,9.571125819E0
5.578903917E0,8.506211243E0,-2.463127899E0,3.278182983E0,9.442939819E0
5.588938917E0,8.377928009E0,-2.380799103E0,3.482208710E0,9.379960532E0
5.598973917E0,8.502918091E0,-2.386936340E0,3.692521362E0,9.572449799E0
5.609008917E0,8.771908722E0,-2.548899536E0,3.852837982E0,9.914011902E0
5.619043917E0,8.994645538E0,-2.811453552E0,3.944896545E0,1.021616994E1
5.629078917E0,9.379944305E0,-3.049009552E0,3.895199890E0,1.060435743E1
5.639113917E0,1.002525238E1,-3.436403961E0,3.830534363E0,1.126887532E1
5.649148917E0,1.072938812E1,-3.874393158E0,3.892505493E0,1.205331037E1
5.659183917E0,1.125509491E1,-4.211192780E0,4.187691650E0,1.272588179E1
5.669218917E0,1.176807816E1,-4.423750763E0,4.656666412E0,1.340678098E1
5.679253917E0,1.220636673E1,-4.427043915E0,4.980293427E0,1.390674042E1
5.689287917E0,1.263507523E1,-4.237537994E0,5.097050629E0,1.426820869E1
5.699322792E0,1.301752991E1,-3.969295807E0,5.305716705E0,1.460691699E1
5.709357792E0,1.361388977E1,-3.925736389E0,5.620063019E0,1.524252306E1
5.719392792E0,1.430111069E1,-4.274062042E0,6.000422058E0,1.608708917E1
5.729427792E0,1.471799377E1,-4.846621399E0,6.553821259E0,1.682443618E1
5.739462792E0,1.463087494E1,-5.324727173E0,7.035968628E0,1.708566872E1
5.749497792E0,1.401206177E1,-5.498815155E0,7.251969452E0,1.670825856E1
5.759532792E0,1.310015808E1,-5.326373749E0,6.991660767E0,1.577554181E1
5.769567792E0,1.228345642E1,-5.078938293E0,6.220015411E0,1.467540485E1
5.779602792E0,1.187076462E1,-5.032385101E0,5.294490051E0,1.393813393E1
5.789637792E0,1.159608582E1,-5.055437164E0,4.677922211E0,1.348738697E1
5.799671792E0,1.151375702E1,-5.210215302E0,4.446503448E0,1.339717646E1
5.809706792E0,1.160955780E1,-5.550008698E0,4.273463287E0,1.355901609E1
5.819741792E0,1.173978699E1,-5.993386688E0,4.058061218E0,1.379170560E1
5.829776792E0,1.185459824E1,-6.460265808E0,3.905977478E0,1.405429449E1
5.839811792E0,1.192839478E1,-6.955286407E0,3.803889771E0,1.432243654E1
5.849846792E0,1.196207474E1,-7.422015839E0,3.704795837E0,1.455689058E1
5.859881792E0,1.188558380E1,-7.690707092E0,3.711980896E0,1.463532986E1
5.869916792E0,1.182076859E1,-7.898475037E0,3.757935333E0,1.470505205E1
5.879951792E0,1.174622360E1,-7.916138306E0,3.835773468E0,1.467488237E1
5.889986792E0,1.158485916E1,-7.671996002E0,3.923491058E0,1.443822242E1
5.900021792E0,1.135344040E1,-7.323820038E0,4.046984253E0,1.410379489E1
5.910056792E0,1.109373047E1,-6.957531738E0,4.199067993E0,1.375173719E1
5.920090792E0,1.075558365E1,-6.564299469E0,4.328399048E0,1.332319952E1
5.930125792E0,1.039019348E1,-6.218368835E0,4.347708893E0,1.286572206E1
5.940160792E0,1.001971390E1,-5.989195404E0,4.298161926E0,1.243942620E1
5.950195792E0,9.607620850E0,-5.865402832E0,4.207300873E0,1.201710071E1
5.960230792E0,9.193282471E0,-5.801336060E0,4.086801453E0,1.161352181E1
5.970265792E0,8.753646698E0,-5.800587616E0,3.945495300E0,1.121784651E1
5.980300792E0,8.265811157E0,-5.833070068E0,3.792214050E0,1.080413013E1
5.990335792E0,7.829169159E0,-5.900429993E0,3.590882721E0,1.044056524E1
6.000370792E0,7.446265411E0,-5.981261902E0,3.403622131E0,1.013937898E1
6.010405792E0,7.091802521E0,-6.015989685E0,3.251388702E0,9.851767526E0
6.020440792E0,6.805747375E0,-6.079308014E0,3.136577454E0,9.649575192E0
6.030474792E0,6.633305969E0,-6.177354126E0,2.967279510E0,9.537567812E0
6.040509792E0,6.434968414E0,-6.230942688E0,2.809058533E0,9.387453069E0
6.050544792E0,6.294560394E0,-6.238427124E0,2.664010162E0,9.253994472E0
6.060579792E0,6.217919769E0,-6.249354401E0,2.518213348E0,9.168334372E0
6.070614792E0,6.173162842E0,-6.277346191E0,2.394121399E0,9.123860584E0
6.080649792E0,6.135141907E0,-6.256539459E0,2.293829956E0,9.057919634E0
6.090684792E0,6.080655212E0,-6.241869965E0,2.237397308E0,8.996735807E0
6.100719792E0,6.068231049E0,-6.273454285E0,2.213896179E0,9.004498488E0
6.110754792E0,5.991291046E0,-6.290369110E0,2.198777618E0,8.960967300E0
6.120789792E0,5.845494232E0,-6.228397980E0,2.195484467E0,8.819461223E0
6.130824792E0,5.805227966E0,-6.245013428E0,2.210303650E0,8.808308957E0
6.140858792E0,5.831124115E0,-6.393953705E0,2.219883728E0,8.933786218E0
6.150893792E0,5.873935089E0,-6.655459900E0,2.169438629E0,9.138091917E0
6.160928792E0,5.888454895E0,-6.969506836E0,2.062560883E0,9.354254860E0
6.170963792E0,5.795947266E0,-7.308701477E0,1.980681152E0,9.535891139E0
6.180998792E0,5.632636871E0,-7.610174561E0,2.017803955E0,9.680541708E0
6.191033792E0,5.342839508E0,-7.732619934E0,2.064357147E0,9.622936947E0
6.201068792E0,5.006039886E0,-7.705825653E0,2.143991547E0,9.435935783E0
6.211103792E0,4.743186493E0,-7.606282654E0,2.249821472E0,9.242026324E0
6.221138792E0,4.685107269E0,-7.553143158E0,2.359543304E0,9.196066893E0
6.231173792E0,4.959486694E0,-7.686815186E0,2.489922180E0,9.480682910E0
6.241208792E0,5.458997955E0,-7.937394104E0,2.412084045E0,9.930812317E0
6.251242792E0,5.855972443E0,-8.192912750E0,1.995200958E0,1.026630700E1
6.261277792E0,6.093528442E0,-8.401728516E0,1.582209778E0,1.049873891E1
6.271312792E0,6.238277435E0,-8.426427155E0,1.415456543E0,1.057942802E1
6.281347792E0,6.228847046E0,-8.065677338E0,1.639839935E0,1.032195531E1
6.291382792E0,6.289470978E0,-7.523055725E0,2.190245361E0,1.004743686E1
6.301417792E0,6.549180908E0,-6.952142944E0,2.752027130E0,9.939703990E0
6.311452792E0,6.822811890E0,-6.378984833E0,3.159629517E0,9.860297575E0
6.321487792E0,7.218588867E0,-5.907165985E0,3.324885864E0,9.902398761E0
6.331522792E0,7.725434875E0,-5.608686676E0,3.269201660E0,1.009095584E1
6.341557792E0,8.204588470E0,-5.483397217E0,3.000809784E0,1.031444503E1
6.351592792E0,8.659642181E0,-5.508395233E0,2.600242767E0,1.058740210E1
6.361626792E0,9.089248810E0,-5.701493683E0,2.170187073E0,1.094674317E1
6.371661792E0,9.391620026E0,-5.969586182E0,1.783690796E0,1.127031671E1
6.381696792E0,9.553882599E0,-6.248007202E0,1.528770905E0,1.151743926E1
6.391731792E0,9.566606140E0,-6.417454834E0,1.346150665E0,1.159809472E1
6.401766792E0,9.497899017E0,-6.410868530E0,1.130000153E0,1.151460904E1
6.411801792E0,9.346114655E0,-6.228996735E0,9.069639587E-1,1.126822271E1
6.421836792E0,9.184151459E0,-5.892047424E0,8.250842285E-1,1.094283441E1
6.431871792E0,9.045839081E0,-5.508395233E0,9.186396790E-1,1.063078180E1
6.441906792E0,8.834927673E0,-5.181175690E0,1.156794434E0,1.030721601E1
6.451941792E0,8.666976929E0,-4.934638367E0,1.500928802E0,1.008562998E1
6.461975792E0,8.610095215E0,-4.794380035E0,1.885928192E0,1.003377021E1
6.472010792E0,8.579708405E0,-4.693938904E0,2.147135010E0,1.001272428E1
6.482045792E0,8.656798096E0,-4.609215088E0,2.199825439E0,1.005108198E1
6.492080792E0,8.868308258E0,-4.536316681E0,2.077978821E0,1.017561086E1
6.502115792E0,9.018745422E0,-4.428391113E0,1.885329437E0,1.022266521E1
6.512150792E0,9.274264069E0,-4.426594849E0,1.695973206E0,1.041551924E1
6.522185792E0,9.545050964E0,-4.482279053E0,1.667083282E0,1.067604749E1
6.532220792E0,9.834399261E0,-4.511618042E0,1.814975739E0,1.097106390E1
6.542255792E0,1.018706589E1,-4.578828278E0,1.925146637E0,1.133349767E1
6.552290792E0,1.049557434E1,-4.704866180E0,2.088307343E0,1.168990479E1
6.562324792E0,1.078043198E1,-4.875810699E0,2.365979919E0,1.206603102E1
6.572359792E0,1.110600494E1,-5.005441132E0,2.680026855E0,1.247318446E1
6.582394792E0,1.144819336E1,-5.013674011E0,2.939736786E0,1.283900739E1
6.592429792E0,1.185384979E1,-4.928800507E0,3.146007843E0,1.321757144E1
6.602464792E0,1.227402603E1,-4.730912018E0,3.236120453E0,1.354642828E1
6.612499792E0,1.266785706E1,-4.420307922E0,3.200045471E0,1.379325979E1
6.622534792E0,1.293430298E1,-3.989653473E0,3.194956055E0,1.390759766E1
6.632569792E0,1.311782135E1,-3.457659760E0,3.309467926E0,1.396371104E1
6.642604792E0,1.323502762E1,-2.953208771E0,3.514092407E0,1.400843473E1
6.652639792E0,1.329415466E1,-2.547702026E0,3.858675842E0,1.407532284E1
6.662674792E0,1.339085358E1,-2.218087463E0,4.158801727E0,1.419614396E1
6.672708792E0,1.361987732E1,-2.049987030E0,4.361180878E0,1.444726284E1
6.682743792E0,1.386386993E1,-2.038011932E0,4.512516174E0,1.472152113E1
6.692778917E0,1.408540924E1,-2.166744232E0,4.710254974E0,1.500933163E1
6.702813917E0,1.425785065E1,-2.394420776E0,4.915328522E0,1.527023282E1
6.712848917E0,1.438358917E1,-2.714754639E0,5.112468567E0,1.550467236E1
6.722883917E0,1.450199295E1,-3.225791931E0,5.333109741E0,1.578466321E1
6.732918917E0,1.460752350E1,-3.995341644E0,5.647306366E0,1.616275245E1
6.742953917E0,1.465497482E1,-4.823868713E0,6.020031281E0,1.656136386E1
6.752988917E0,1.447519867E1,-5.519172821E0,6.407126312E0,1.676436437E1
6.763023917E0,1.400906799E1,-5.910908203E0,6.681356049E0,1.660823111E1
6.773057917E0,1.335043762E1,-5.981261902E0,6.800508270E0,1.613247010E1
6.783092917E0,1.261396912E1,-5.804180145E0,6.738836517E0,1.543413884E1
6.793127917E0,1.193513077E1,-5.631289673E0,6.545588379E0,1.473103856E1
6.803162917E0,1.141990219E1,-5.532644806E0,6.349795532E0,1.418958167E1
6.813197917E0,1.097173416E1,-5.423671417E0,6.031707001E0,1.364465652E1
6.823232917E0,1.062565384E1,-5.339396667E0,5.560486908E0,1.312755464E1
6.833267917E0,1.045096710E1,-5.375022583E0,5.006488953E0,1.277413452E1
6.843302917E0,1.032178574E1,-5.510191498E0,4.594096527E0,1.257009125E1
6.853337917E0,1.028765671E1,-5.740113373E0,4.394860840E0,1.257376570E1
6.863372917E0,1.029334488E1,-6.045777740E0,4.255051575E0,1.267319380E1
6.873406917E0,1.029214737E1,-6.359974365E0,4.155059509E0,1.279226684E1
6.883441917E0,1.041593994E1,-6.757098541E0,4.167633362E0,1.309653975E1
6.893476917E0,1.040621017E1,-7.234455872E0,4.324956207E0,1.339148267E1
6.903511917E0,1.031729507E1,-7.604187012E0,4.590803375E0,1.361417325E1
6.913546917E0,1.029020142E1,-7.776179352E0,5.022954712E0,1.384150586E1
6.923581917E0,1.025053391E1,-7.733817444E0,5.546565857E0,1.398748621E1
6.933616917E0,1.023391846E1,-7.571255493E0,6.002667389E0,1.407440985E1
6.943651917E0,1.013198044E1,-7.319029999E0,6.274352417E0,1.398544694E1
6.953686917E0,1.000309845E1,-7.036866760E0,6.510561218E0,1.385521129E1
6.963721917E0,9.910740509E0,-6.821614380E0,6.698719940E0,1.377062268E1
6.973755917E0,9.831255798E0,-6.687493286E0,6.723119202E0,1.365930045E1
6.983790917E0,9.620045013E0,-6.658303986E0,6.674320679E0,1.346940364E1
6.993825917E0,9.310937805E0,-6.769073639E0,6.525530090E0,1.323240204E1
7.003860917E0,8.942553864E0,-6.954687653E0,6.316265259E0,1.297043395E1
7.013895917E0,8.581654358E0,-7.167994080E0,6.074517975E0,1.272496363E1
7.023930917E0,8.239016876E0,-7.398215332E0,5.828130341E0,1.251327665E1
7.033965917E0,7.912695465E0,-7.664361877E0,5.606441345E0,1.236063821E1
7.044000917E0,7.590864716E0,-7.973169708E0,5.410049744E0,1.226626677E1
7.054035917E0,7.254813538E0,-8.180787964E0,5.292693787E0,1.214784832E1
7.064070917E0,6.899452515E0,-8.270002441E0,5.160967712E0,1.194282099E1
7.074104917E0,6.546037445E0,-8.284222870E0,5.118605804E0,1.173367292E1
7.084139917E0,6.142326965E0,-8.218659210E0,5.067561951E0,1.144354508E1
7.094174917E0,5.679788818E0,-8.075556793E0,4.974605255E0,1.105537498E1
7.104209917E0,5.257067871E0,-7.891289978E0,4.768633575E0,1.061362739E1
7.114244917E0,4.935087433E0,-7.671247559E0,4.454137573E0,1.015098363E1
7.124279917E0,4.680915985E0,-7.440876617E0,4.108656006E0,9.703539224E0
7.134314917E0,4.475093994E0,-7.209008789E0,3.831282806E0,9.309941027E0
7.144349917E0,4.277804260E0,-6.912325745E0,3.565735016E0,8.876616624E0
7.154384917E0,4.117787018E0,-6.607709198E0,3.298091583E0,8.455495187E0
7.164419917E0,4.047133942E0,-6.412215729E0,3.075953522E0,8.182743657E0
7.174453917E0,4.070784760E0,-6.365063782E0,2.914439392E0,8.098103634E0
7.184488917E0,4.126618652E0,-6.441854095E0,2.807861023E0,8.149266790E0
7.194523917E0,4.153562622E0,-6.609206085E0,2.691702576E0,8.257054577E0
7.204558917E0,4.284989319E0,-6.813381500E0,2.574346619E0,8.450476995E0
7.214593917E0,4.471800842E0,-7.072492676E0,2.545606384E0,8.746271622E0
7.224628917E0,4.462220764E0,-7.188950500E0,2.573598175E0,8.843971450E0
7.234663917E0,4.442761230E0,-7.056775360E0,2.664459229E0,8.754173223E0
7.244698917E0,4.643643494E0,-6.849007416E0,2.866688690E0,8.757295902E0
7.254733917E0,4.925806732E0,-6.570287018E0,3.071163483E0,8.767228102E0
7.264768917E0,5.263354797E0,-6.384523315E0,3.161276093E0,8.857692037E0
7.274802917E0,5.821993103E0,-6.494843903E0,3.163820801E0,9.278381490E0
7.284837917E0,6.484814758E0,-6.815177765E0,3.079396362E0,9.898593454E0
7.294872917E0,6.897955627E0,-7.244934082E0,2.874023438E0,1.040821178E1
7.304907917E0,6.974296875E0,-7.610174561E0,2.694546661E0,1.066846547E1
7.314942917E0,6.823111267E0,-7.560627594E0,2.669249268E0,1.052819209E1
7.324977917E0,6.700516205E0,-7.250771942E0,2.754721527E0,1.024983424E1
7.335012917E0,6.694378967E0,-6.847211151E0,2.745740204E0,9.961832139E0
7.345047917E0,6.931186523E0,-6.411766663E0,2.617756348E0,9.798201195E0
7.355082917E0,7.381899261E0,-6.132447510E0,2.362237701E0,9.883294801E0
7.365116917E0,7.849975891E0,-6.055507507E0,2.044298859E0,1.012276891E1
7.375151917E0,8.246800690E0,-6.164181519E0,1.767823792E0,1.044662895E1
7.385186917E0,8.633895721E0,-6.404282227E0,1.655557251E0,1.087657372E1
7.395221917E0,9.091494141E0,-6.692283325E0,1.658551025E0,1.141020216E1
7.405256917E0,9.566306763E0,-6.987020416E0,1.685345306E0,1.196549490E1
7.415291917E0,1.005788452E1,-7.277566223E0,1.735341339E0,1.253536680E1
7.425326917E0,1.054901321E1,-7.229815521E0,1.653760986E0,1.289522538E1
7.435361917E0,1.090841583E1,-6.931186523E0,1.318907318E0,1.299132015E1
7.445396917E0,1.120435043E1,-6.512058105E0,8.851094055E-1,1.298952609E1
7.455430917E0,1.131661697E1,-5.985153809E0,4.071533203E-1,1.280834336E1
7.465465917E0,1.116019226E1,-5.348677368E0,-3.697311401E-2,1.237576696E1
7.475500917E0,1.084060684E1,-4.746629333E0,-3.986210632E-1,1.184095205E1
7.485535917E0,1.048808990E1,-4.254003754E0,-6.505471802E-1,1.133665689E1
7.495570917E0,1.011985565E1,-3.953428802E0,-7.195536804E-1,1.088847258E1
7.505605917E0,9.777517548E0,-3.750750275E0,-6.131250000E-1,1.049018109E1
7.515640917E0,9.468859406E0,-3.642225952E0,-3.484753418E-1,1.015118433E1
7.525675917E0,9.148974609E0,-3.727698212E0,1.504371643E-1,9.880389754E0
7.535710917E0,8.851992188E0,-3.886068878E0,7.035369873E-1,9.693000635E0
7.545745917E0,8.743617554E0,-4.079766083E0,9.854008484E-1,9.698781060E0
7.555779917E0,8.614286499E0,-4.246968384E0,9.804611206E-1,9.654220649E0
7.565814917E0,8.430618439E0,-4.327500916E0,9.936337280E-1,9.528373388E0
7.575849917E0,8.414002991E0,-4.417912903E0,9.868977356E-1,9.554442312E0
7.585884917E0,8.479416962E0,-4.520000610E0,1.034648438E0,9.664440745E0
7.595919917E0,8.636889496E0,-4.599635010E0,1.150058441E0,9.852671557E0
7.605954917E0,8.850345612E0,-4.621040497E0,1.272354126E0,1.006486551E1
7.615989917E0,9.075327759E0,-4.554279327E0,1.386416931E0,1.024817964E1
7.626024917E0,9.336534576E0,-4.494254150E0,1.498084717E0,1.046964451E1
7.636059917E0,9.594747620E0,-4.449497223E0,1.629960480E0,1.070112044E1
7.646093917E0,9.966724091E0,-4.336781616E0,1.719174957E0,1.100449119E1
7.656128917E0,1.028571075E1,-4.113146667E0,1.623523865E0,1.119596583E1
7.666163917E0,1.048719177E1,-3.789070587E0,1.390009460E0,1.123700910E1
7.676198917E0,1.075049423E1,-3.419638824E0,1.130299530E0,1.133775255E1
7.686233917E0,1.107561813E1,-3.046913910E0,8.752299500E-1,1.152037451E1
7.696269417E0,1.124880798E1,-2.691552887E0,7.426057434E-1,1.159015105E1
7.706304417E0,1.133517838E1,-2.402803345E0,7.548802185E-1,1.161161388E1
7.716339417E0,1.145717468E1,-2.265089722E0,8.978329468E-1,1.171339349E1
7.726374417E0,1.155701706E1,-2.277813263E0,1.322200470E0,1.185332403E1
7.736409417E0,1.155641830E1,-2.411934357E0,1.903142395E0,1.195785024E1
7.746443417E0,1.149534531E1,-2.629132690E0,2.432292023E0,1.204040476E1
7.756478417E0,1.146885040E1,-2.929557953E0,2.908302155E0,1.218913700E1
7.766513417E0,1.144175674E1,-3.242706757E0,3.363206177E0,1.235880659E1
7.776548417E0,1.136406830E1,-3.363655243E0,3.930825806E0,1.248629715E1
7.786583417E0,1.122440872E1,-3.206931152E0,4.324507141E0,1.244882005E1
7.796618417E0,1.138652161E1,-3.203188934E0,4.623734894E0,1.270008732E1
7.806653417E0,1.179651901E1,-3.455564117E0,4.893024902E0,1.323028635E1
7.816688417E0,1.226175156E1,-4.118984528E0,5.299729156E0,1.397868785E1
7.826723417E0,1.260004807E1,-5.050048370E0,5.923781433E0,1.481065111E1
7.836757417E0,1.247041763E1,-5.724246368E0,6.574627991E0,1.521525700E1
7.846792417E0,1.216445389E1,-6.033353577E0,6.950795746E0,1.525414223E1
7.856827417E0,1.183064804E1,-6.064937897E0,6.883585510E0,1.497102048E1
7.866862417E0,1.148232239E1,-5.922134857E0,6.487658844E0,1.445700958E1
7.876897417E0,1.113145203E1,-5.845344543E0,6.115532684E0,1.398130956E1
7.886932417E0,1.095766342E1,-6.011648712E0,5.987997894E0,1.385880322E1
7.896967417E0,1.090572144E1,-6.387666779E0,6.076014862E0,1.402337347E1
7.907002417E0,1.091155930E1,-6.882537689E0,6.251450043E0,1.433569248E1
7.917037417E0,1.091230774E1,-7.397017822E0,6.312373352E0,1.461644246E1
7.927071417E0,1.085168381E1,-7.946375427E0,6.214626617E0,1.481639321E1
7.937106417E0,1.069361252E1,-8.527167664E0,6.155200195E0,1.499841413E1
7.947141417E0,1.044378204E1,-8.933722229E0,6.154002686E0,1.505841045E1
7.957176417E0,1.015398468E1,-9.055119781E0,6.262826385E0,1.497736938E1
7.967211417E0,9.926757202E0,-8.902437286E0,6.535409546E0,1.484942679E1
7.977246417E0,9.665849762E0,-8.547225952E0,6.865323486E0,1.461562143E1
7.987281417E0,9.425599365E0,-8.055049438E0,7.255412292E0,1.436547084E1
7.997316417E0,9.219627686E0,-7.488178253E0,7.560028839E0,1.407936022E1
8.007351417E0,9.049132233E0,-7.057074738E0,7.647297363E0,1.379022317E1
8.017386417E0,8.928782501E0,-6.761289825E0,7.560328217E0,1.351283685E1
8.027420417E0,8.747958527E0,-6.553222504E0,7.294780426E0,1.314097885E1
8.037455417E0,8.522227936E0,-6.487209778E0,6.870113525E0,1.272441431E1
8.047490417E0,8.267158356E0,-6.538702698E0,6.301895142E0,1.228065237E1
8.057525417E0,8.015381927E0,-6.597530365E0,5.744454346E0,1.186475917E1
8.067560417E0,7.716004486E0,-6.650220795E0,5.289550323E0,1.147787021E1
8.077595417E0,7.319329376E0,-6.710545349E0,4.937183075E0,1.108962480E1
8.087630417E0,6.951544189E0,-6.751560059E0,4.633015594E0,1.074115279E1
8.097665417E0,6.652017059E0,-6.851402435E0,4.413721619E0,1.052007532E1
8.107700417E0,6.401887207E0,-6.958130493E0,4.274211731E0,1.037634934E1
8.117734417E0,6.179150391E0,-7.108268280E0,4.244872742E0,1.033094004E1
8.127769417E0,5.886508942E0,-7.251969452E0,4.305496674E0,1.028490885E1
8.137804417E0,5.596112823E0,-7.233258362E0,4.397555237E0,1.014765970E1
8.147839417E0,5.309907990E0,-7.036717072E0,4.445605316E0,9.872887958E0
8.157874417E0,5.195246429E0,-6.846462708E0,4.448299713E0,9.677396727E0
8.167909417E0,5.342540131E0,-6.774163055E0,4.468657379E0,9.716013530E0
8.177944417E0,5.552403717E0,-6.739884338E0,4.397405548E0,9.777136773E0
8.187979417E0,5.686824188E0,-6.646179199E0,4.346212006E0,9.767355123E0
8.198014417E0,5.767356720E0,-6.489006042E0,4.234244843E0,9.659111364E0
8.208048417E0,5.806724854E0,-6.311624908E0,4.135001221E0,9.521181524E0
8.218083417E0,5.851481781E0,-6.116730194E0,4.094435577E0,9.403118100E0
8.228118417E0,5.943091278E0,-5.952821045E0,4.111500092E0,9.362737064E0
8.238153417E0,6.019432526E0,-5.858966217E0,4.163741455E0,9.375382444E0
8.248188417E0,6.076164551E0,-5.795947266E0,4.159699860E0,9.371012927E0
8.258223417E0,6.097869415E0,-5.773194580E0,4.055815887E0,9.325418467E0
8.268258417E0,6.166127472E0,-5.913901978E0,3.859723663E0,9.375117672E0
8.278293417E0,6.238576813E0,-6.309978333E0,3.603606262E0,9.577141813E0
8.288328417E0,6.231691132E0,-6.760691071E0,3.342848511E0,9.783432643E0
8.298363417E0,6.252048798E0,-7.120842133E0,3.137774963E0,9.981990712E0
8.308397417E0,6.249803467E0,-7.422764282E0,2.961441650E0,1.014532452E1
8.318432417E0,6.194418640E0,-7.666756897E0,2.794838104E0,1.024505264E1
8.328467417E0,6.265221405E0,-7.928562469E0,2.653681641E0,1.044782888E1
8.338502417E0,6.583609314E0,-8.324938202E0,2.456691284E0,1.089421129E1
8.348537417E0,6.966063995E0,-8.780590668E0,2.271226959E0,1.143605229E1
8.358572417E0,7.257957001E0,-9.280700684E0,2.118394775E0,1.197067005E1
8.368607417E0,7.220385132E0,-9.535770264E0,2.028581543E0,1.213177724E1
8.378642417E0,6.726262665E0,-9.307494965E0,2.067650299E0,1.166821536E1
8.388677417E0,6.145320740E0,-8.755143585E0,2.313588867E0,1.094395722E1
8.398711417E0,5.761818237E0,-8.203690338E0,2.740052032E0,1.039264017E1
8.408746417E0,5.554499359E0,-7.636819153E0,3.108435974E0,9.941621805E0
8.418781417E0,5.459896088E0,-6.994953918E0,3.342698822E0,9.482271934E0
8.428816417E0,5.478457489E0,-6.334676971E0,3.357368317E0,9.022945794E0
8.438851417E0,5.683081970E0,-5.761518860E0,3.167263641E0,8.690459092E0
8.448886417E0,6.006110229E0,-5.307812347E0,2.841091919E0,8.504001135E0
8.458921417E0,6.462660828E0,-5.078339539E0,2.491718445E0,8.588607469E0
8.468956417E0,7.027586060E0,-5.075794830E0,2.207010498E0,8.945476752E0
8.478991417E0,7.487878876E0,-5.150639191E0,2.007475433E0,9.307382647E0
8.489025417E0,7.956105194E0,-5.189857635E0,1.772464142E0,9.663118610E0
8.499060417E0,8.391250305E0,-5.172493744E0,1.421444092E0,9.959331128E0
8.509095417E0,8.649613037E0,-5.169949036E0,1.028960266E0,1.012931083E1
8.519130417E0,8.857081604E0,-5.102589111E0,6.571334839E-1,1.024285774E1
8.529165417E0,8.921447754E0,-5.013524323E0,3.263214111E-1,1.023885452E1
8.539200417E0,8.831335144E0,-4.953948212E0,8.771759033E-2,1.012629141E1
8.549235417E0,8.701405334E0,-4.986580353E0,2.365081787E-2,1.002900782E1
8.559270417E0,8.537196808E0,-5.120402069E0,1.404080200E-1,9.956001260E0
8.569304417E0,8.307125244E0,-5.331912231E0,5.393284607E-1,9.885772254E0
8.579339417E0,8.061486053E0,-5.504653015E0,1.094074860E0,9.822716631E0
8.589374417E0,7.911647644E0,-5.648653564E0,1.561852112E0,9.845853826E0
8.599409417E0,7.887547760E0,-5.828130341E0,1.960772552E0,1.000125702E1
8.609444417E0,7.914791107E0,-5.926026764E0,2.296823730E0,1.015071971E1
8.619479417E0,8.004604340E0,-5.856122131E0,2.477498016E0,1.022281045E1
8.629514417E0,8.287516022E0,-5.687872009E0,2.430346069E0,1.034124711E1
8.639549417E0,8.686586151E0,-5.615572357E0,2.178569641E0,1.057060062E1
8.649584417E0,9.016799469E0,-5.566923523E0,2.125130768E0,1.080784395E1
8.659618417E0,9.349856873E0,-5.573958893E0,2.372566223E0,1.114082186E1
8.669653417E0,9.699230347E0,-5.637426910E0,2.645748138E0,1.152630187E1
8.679688417E0,1.005264542E1,-5.723946991E0,2.887046356E0,1.192284721E1
8.689723417E0,1.038854691E1,-5.720354462E0,3.096909943E0,1.225704749E1
8.699758667E0,1.072789124E1,-5.641318817E0,3.275787964E0,1.255559298E1
8.709793667E0,1.094508957E1,-5.494773560E0,3.434308319E0,1.271935516E1
8.719828667E0,1.119282440E1,-5.391338654E0,3.560196533E0,1.292365467E1
8.729863667E0,1.141765686E1,-5.270689545E0,3.719615021E0,1.311406086E1
8.739898667E0,1.156929153E1,-5.065615997E0,3.921694794E0,1.322454771E1
8.749932667E0,1.167871399E1,-4.816084900E0,4.076023865E0,1.327407265E1
8.759967667E0,1.180160843E1,-4.491110687E0,4.134552155E0,1.328693186E1
8.770002667E0,1.188423660E1,-4.053121490E0,4.097279663E0,1.320797388E1
8.780037667E0,1.190549240E1,-3.558699646E0,3.911965027E0,1.302722391E1
8.790072667E0,1.185025726E1,-3.028801575E0,3.721411285E0,1.278480106E1
8.800107667E0,1.180355438E1,-2.571203156E0,3.694317627E0,1.263261511E1
8.810142667E0,1.173005722E1,-2.275867310E0,3.705095215E0,1.251005775E1
8.820177667E0,1.162841858E1,-2.146087189E0,3.699856110E0,1.239010670E1
8.830211667E0,1.167018173E1,-2.221979370E0,3.668720856E0,1.243341653E1
8.840246667E0,1.178648987E1,-2.413281555E0,3.588787079E0,1.255486615E1
8.850281667E0,1.198752182E1,-2.703527985E0,3.537593536E0,1.278766245E1
8.860316667E0,1.216325638E1,-2.952160950E0,3.502416687E0,1.299719134E1
8.870351667E0,1.244152771E1,-3.156935120E0,3.506009216E0,1.330601186E1
8.880386667E0,1.294822403E1,-3.514541473E0,3.643124084E0,1.390254870E1
8.890421667E0,1.350776047E1,-4.203259277E0,3.927233276E0,1.468162602E1
8.900456667E0,1.384111725E1,-5.042863312E0,4.344116364E0,1.535833142E1
8.910490667E0,1.396011978E1,-5.757626953E0,4.733307037E0,1.582527750E1
8.920525667E0,1.390114243E1,-6.227948914E0,4.971461792E0,1.602325001E1
8.930560667E0,1.341061249E1,-6.177653503E0,5.104984131E0,1.562270121E1
8.940595667E0,1.279958313E1,-5.842051392E0,5.070555725E0,1.495558184E1
8.950630667E0,1.239228012E1,-5.632337494E0,4.993765411E0,1.449929396E1
8.960665667E0,1.220112762E1,-5.644162903E0,4.973108368E0,1.433373284E1
8.970700667E0,1.202988373E1,-5.803282013E0,4.973707123E0,1.425250670E1
8.980735667E0,1.177197006E1,-5.948480072E0,4.913981323E0,1.407518763E1
8.990769667E0,1.145163620E1,-5.971382446E0,4.657414856E0,1.372912572E1
9.000804667E0,1.113519424E1,-5.894292755E0,4.204307098E0,1.328199669E1
9.010839667E0,1.089733887E1,-5.847290497E0,3.747157745E0,1.292222859E1
9.020874667E0,1.081800385E1,-5.943989410E0,3.465293884E0,1.282062709E1
9.030909667E0,1.086440735E1,-6.207890625E0,3.479664001E0,1.298773709E1
9.040944667E0,1.090257797E1,-6.560257874E0,3.728296967E0,1.325908700E1
9.050979667E0,1.088925568E1,-6.939120026E0,3.901037750E0,1.348871274E1
9.061014667E0,1.078372513E1,-7.322622528E0,4.010011139E0,1.363780472E1
9.071048667E0,1.060335022E1,-7.608527985E0,4.113595734E0,1.368365462E1
9.081083667E0,1.040980270E1,-7.789801025E0,4.242328033E0,1.367634233E1
9.091118667E0,1.020862106E1,-7.917784882E0,4.340972900E0,1.362906113E1
9.101153667E0,9.972112885E0,-7.922574921E0,4.454287262E0,1.349262405E1
9.111188667E0,9.710906067E0,-7.787555695E0,4.537065125E0,1.324887468E1
9.121223667E0,9.484576721E0,-7.555238800E0,4.591851196E0,1.296626108E1
9.131258667E0,9.286538544E0,-7.291187897E0,4.632716217E0,1.268318882E1
9.141293667E0,9.021290131E0,-6.982679443E0,4.624183960E0,1.230953147E1
9.151327667E0,8.751251678E0,-6.738686829E0,4.567451935E0,1.195223508E1
9.161362667E0,8.562793579E0,-6.662644958E0,4.526137848E0,1.175577286E1
9.171397667E0,8.431965637E0,-6.667884064E0,4.507426758E0,1.165656975E1
9.181432667E0,8.249644775E0,-6.643634491E0,4.427193604E0,1.148018124E1
9.191467667E0,8.004754028E0,-6.656807098E0,4.323758698E0,1.127315648E1
9.201502667E0,7.730224915E0,-6.643035736E0,4.214186554E0,1.102930956E1
9.211537667E0,7.498506775E0,-6.590045929E0,4.086651764E0,1.078689167E1
9.221572667E0,7.288493500E0,-6.538403320E0,3.999383240E0,1.057676329E1
9.231606667E0,7.077582092E0,-6.498436432E0,3.942351837E0,1.038575863E1
9.241641667E0,6.888375549E0,-6.462960205E0,3.888314209E0,1.021462480E1
9.251676667E0,6.716832275E0,-6.447691956E0,3.802841949E0,1.005734429E1
9.261711667E0,6.575526123E0,-6.437812500E0,3.728446655E0,9.928962083E0
9.271746667E0,6.446195068E0,-6.442003784E0,3.636238403E0,9.811986208E0
9.281781667E0,6.262976074E0,-6.413862305E0,3.507955170E0,9.626434877E0
9.291816667E0,6.102509766E0,-6.405330048E0,3.386108551E0,9.472835350E0
9.301851667E0,5.961802368E0,-6.406826935E0,3.262166290E0,9.339820542E0
9.311885667E0,5.814508667E0,-6.439159698E0,3.139122162E0,9.226341453E0
9.321920667E0,5.624254303E0,-6.432423706E0,2.982098694E0,9.049929492E0
9.331955667E0,5.427563324E0,-6.408473511E0,2.790646820E0,8.849558523E0
9.341990667E0,5.292993164E0,-6.401138763E0,2.595752106E0,8.702199900E0
9.352025667E0,5.195545807E0,-6.436315613E0,2.429298248E0,8.620982826E0
9.362060667E0,5.031936035E0,-6.506519623E0,2.301613770E0,8.541229643E0
9.372095667E0,4.897665253E0,-6.566544800E0,2.170636139E0,8.474567646E0
9.382129667E0,4.796475677E0,-6.630012817E0,1.999242554E0,8.423788914E0
9.392164667E0,4.665498047E0,-6.721921692E0,1.823657684E0,8.383127734E0
9.402199667E0,4.435276794E0,-6.826105042E0,1.715732117E0,8.319322507E0
9.412234667E0,4.145030365E0,-6.750362549E0,1.667532349E0,8.095019172E0
9.422269667E0,3.988006897E0,-6.624324646E0,1.595083008E0,7.894945587E0
9.432304667E0,4.107757874E0,-6.600374451E0,1.425485687E0,7.903836226E0
9.442339667E0,4.478087769E0,-6.736890564E0,1.142574005E0,8.169727039E0
9.452374667E0,4.788991241E0,-6.975943451E0,7.957452393E-1,8.498907849E0
9.462408667E0,4.976850586E0,-7.231462097E0,5.598358154E-1,8.796391417E0
9.472443667E0,5.049599304E0,-7.366481323E0,5.486091614E-1,8.947875291E0
9.482478667E0,5.037025452E0,-7.364984436E0,6.819818115E-1,8.948727303E0
9.492513667E0,4.884642334E0,-7.097041626E0,9.029223633E-1,8.662736252E0
9.502548667E0,4.908742218E0,-6.620283051E0,1.161285095E0,8.323009126E0
9.512583667E0,5.243895264E0,-6.095474396E0,1.477277985E0,8.175304024E0
9.522618667E0,5.598657532E0,-5.530249786E0,1.694176941E0,8.049774181E0
9.532652667E0,5.952072601E0,-4.996908875E0,1.652264099E0,7.945202528E0
9.542687667E0,6.526877289E0,-4.618944855E0,1.513352966E0,8.137875393E0
9.552722667E0,7.219936066E0,-4.426744537E0,1.373992767E0,8.579708627E0
9.562757667E0,7.887847137E0,-4.510270844E0,1.265318756E0,9.173968994E0
9.572792667E0,8.531808014E0,-5.022206268E0,1.154399414E0,9.967293604E0
9.582827667E0,9.214987335E0,-5.987099762E0,1.140328674E0,1.104815390E1
9.592862667E0,9.948462067E0,-7.124434662E0,1.346899109E0,1.231030479E1
9.602896667E0,1.055155792E1,-8.045169983E0,1.694775696E0,1.337656156E1
9.612931667E0,1.121767273E1,-8.948541412E0,1.994901581E0,1.448765706E1
9.622966667E0,1.194216614E1,-9.408983917E0,2.368374939E0,1.538679662E1
9.633001667E0,1.238314911E1,-9.209149475E0,2.566712494E0,1.564413081E1
9.643036667E0,1.270018982E1,-8.776998138E0,2.756517792E0,1.568212065E1
9.653071667E0,1.274105484E1,-8.002808075E0,2.911595306E0,1.532503843E1
9.663106667E0,1.260738281E1,-7.161108398E0,3.155288544E0,1.483857880E1
9.673141667E0,1.232207611E1,-6.424490204E0,3.517535248E0,1.433459760E1
9.683175667E0,1.196716415E1,-5.828579407E0,3.834126892E0,1.385228807E1
9.693210292E0,1.153336624E1,-5.319338379E0,4.163591766E0,1.336597898E1
9.703245292E0,1.103954315E1,-4.880600739E0,4.392765198E0,1.284477180E1
9.713280292E0,1.061846878E1,-4.680466919E0,4.527784424E0,1.245630289E1
9.723315292E0,1.028032196E1,-4.612208862E0,4.586462402E0,1.216524260E1
9.733350292E0,1.007135651E1,-4.645888824E0,4.573589172E0,1.199725897E1
9.743385292E0,1.010144394E1,-4.671036530E0,4.365372162E0,1.195467382E1
9.753419292E0,1.031744476E1,-4.571194153E0,3.830833740E0,1.191724673E1
9.763454292E0,1.038405624E1,-4.291875000E0,3.106340332E0,1.165753685E1
9.773489292E0,1.057460999E1,-3.977528687E0,2.459685059E0,1.156257590E1
9.783524292E0,1.090407486E1,-3.739972687E0,1.834135895E0,1.167263033E1
9.793559292E0,1.107052872E1,-3.576961670E0,1.445394287E0,1.172349886E1
9.803594292E0,1.108579697E1,-3.469335480E0,1.409468994E0,1.170118737E1
9.813629292E0,1.116064133E1,-3.511697388E0,1.608405304E0,1.181011859E1
9.823663292E0,1.129251709E1,-3.640130310E0,2.087858276E0,1.204701802E1
9.833698292E0,1.137544464E1,-3.578458557E0,2.887944489E0,1.226973226E1
9.843733292E0,1.148890869E1,-3.329825592E0,3.536545715E0,1.247356874E1
9.853768292E0,1.156584869E1,-2.909349976E0,3.734134827E0,1.249707711E1
9.863803292E0,1.158246414E1,-2.391726379E0,3.706292725E0,1.239396774E1
9.873838292E0,1.161150375E1,-1.866917725E0,3.641327820E0,1.231144466E1
9.883873292E0,1.169697601E1,-1.519939270E0,3.734134827E0,1.237227651E1
9.893907292E0,1.187091431E1,-1.431772614E0,3.918850708E0,1.258276481E1
9.903942292E0,1.208242447E1,-1.611249390E0,4.187392273E0,1.288857477E1
9.913977292E0,1.232731522E1,-1.946103058E0,4.471501465E0,1.325686022E1
9.924012292E0,1.263028519E1,-2.329755249E0,4.621938629E0,1.364969524E1
9.934047292E0,1.286245239E1,-2.653831329E0,4.682412872E0,1.394311632E1
9.944082292E0,1.305659866E1,-2.850073242E0,4.750072174E0,1.418311925E1
9.954117292E0,1.325897781E1,-3.096161499E0,4.805906067E0,1.443895570E1
9.964151292E0,1.350566483E1,-3.512745209E0,4.980293427E0,1.481707407E1
9.974186292E0,1.384875137E1,-4.165687408E0,5.376220093E0,1.542869433E1
9.984221292E0,1.409768372E1,-4.903503113E0,5.943690033E0,1.606600386E1
9.994256292E0,1.411908920E1,-5.422922974E0,6.595434723E0,1.650019796E1
1.000429129E1,1.384366196E1,-5.473517761E0,7.112609253E0,1.649835093E1
1.001432629E1,1.326706100E1,-5.224735107E0,7.178621979E0,1.596387729E1
1.002436129E1,1.257669662E1,-4.999603271E0,6.956783295E0,1.521729821E1
1.003439529E1,1.204590042E1,-5.097499695E0,6.775360565E0,1.473070707E1
1.004443029E1,1.152139114E1,-5.458399200E0,6.676715698E0,1.439149430E1
1.005446529E1,1.105002136E1,-5.856720886E0,6.590045929E0,1.413622499E1
1.006450029E1,1.055051010E1,-6.213578796E0,6.409820709E0,1.382055087E1
1.007453529E1,1.013138168E1,-6.474336548E0,6.095324707E0,1.348016735E1
1.008457029E1,9.836794281E0,-6.735243988E0,5.665119324E0,1.319922764E1
1.009460529E1,9.628128204E0,-7.074288940E0,5.315147095E0,1.307658997E1
1.010463929E1,9.517807617E0,-7.410489807E0,5.212011566E0,1.314036094E1
1.011467429E1,9.396410065E0,-7.805668030E0,5.391787720E0,1.335261586E1
1.012470929E1,9.372609558E0,-8.307723999E0,5.891748047E0,1.384112651E1
1.013474429E1,9.247619476E0,-8.841963043E0,6.648873596E0,1.441895615E1
1.014477929E1,8.634195099E0,-9.235345001E0,7.566315765E0,1.473397626E1
1.015481429E1,7.870932312E0,-9.410780182E0,8.645122375E0,1.500841431E1
1.016484929E1,7.337591400E0,-9.346863098E0,9.370064850E0,1.513281906E1
1.017488329E1,6.889423370E0,-9.096583557E0,9.858050079E0,1.507956028E1
1.018491829E1,6.671177216E0,-8.741671600E0,9.952803040E0,1.483171319E1
1.019495329E1,6.687044220E0,-8.341104584E0,9.706415405E0,1.443970519E1
1.020498829E1,6.836433563E0,-7.934699707E0,9.213041382E0,1.394906502E1
1.021502329E1,6.975494385E0,-7.585625610E0,8.544232178E0,1.338667776E1
1.022505829E1,7.048392792E0,-7.326215057E0,7.937394104E0,1.289788716E1
1.023509329E1,7.155569916E0,-7.201674042E0,7.382647705E0,1.255268007E1
1.024512729E1,7.186555481E0,-7.176676025E0,6.848558350E0,1.224965346E1
1.025516229E1,6.980434113E0,-7.232360229E0,6.375392303E0,1.190290393E1
1.026519729E1,6.712790680E0,-7.324718170E0,6.064937897E0,1.164029753E1
1.027523229E1,6.467151489E0,-7.503296814E0,5.939199371E0,1.154978790E1
1.028526729E1,6.185287628E0,-7.630532227E0,5.845045166E0,1.143010753E1
1.029530229E1,5.954916687E0,-7.710016937E0,5.835315399E0,1.135589273E1
1.030533729E1,5.764961700E0,-7.757617950E0,5.870342560E0,1.130824219E1
1.031537129E1,5.569617920E0,-7.763306122E0,5.875132599E0,1.121636076E1
1.032540629E1,5.382806396E0,-7.732320557E0,5.865702209E0,1.109819122E1
1.033544129E1,5.191953278E0,-7.621550903E0,5.876180420E0,1.093498575E1
1.034547629E1,4.993316345E0,-7.485633545E0,5.776487732E0,1.069278861E1
1.035551129E1,4.854554901E0,-7.319778442E0,5.624403992E0,1.042975455E1
1.036554629E1,4.777315521E0,-7.131919098E0,5.475613403E0,1.018181495E1
1.037558129E1,4.785997467E0,-6.993457031E0,5.374124451E0,1.003471109E1
1.038561529E1,4.867577820E0,-6.926396484E0,5.334906006E0,1.000647311E1
1.039565029E1,4.892276459E0,-6.943610687E0,5.274581451E0,9.998465273E0
1.040568529E1,4.800816650E0,-6.937174072E0,5.164410553E0,9.891580307E0
1.041572029E1,4.633015594E0,-6.873706055E0,4.974605255E0,9.667438434E0
1.042575529E1,4.565505981E0,-6.869215393E0,4.692891083E0,9.489636015E0
1.043579029E1,4.534819794E0,-6.929839325E0,4.391268311E0,9.373926659E0
1.044582529E1,4.526437225E0,-6.930288391E0,4.151167603E0,9.260114665E0
1.045585929E1,4.593497772E0,-6.912774811E0,3.932921448E0,9.184473228E0
1.046589429E1,4.646936646E0,-6.940167847E0,3.649710388E0,9.114841515E0
1.047592929E1,4.685556335E0,-6.936275940E0,3.385958862E0,9.029456213E0
1.048596429E1,4.800217896E0,-6.924899597E0,3.163371735E0,9.000180387E0
1.049599929E1,5.037923584E0,-7.075336761E0,2.936144257E0,9.168533548E0
1.050603429E1,5.249284058E0,-7.282206573E0,2.578388214E0,9.339893012E0
1.051606829E1,5.527106323E0,-7.578290863E0,2.089055786E0,9.609555182E0
1.052610329E1,5.780080261E0,-7.949518890E0,1.657952271E0,9.967596709E0
1.053613829E1,5.786666565E0,-8.047565002E0,1.475781097E0,1.002131440E1
1.054617329E1,5.678890686E0,-7.746241608E0,1.581311646E0,9.734197706E0
1.055620829E1,5.633984070E0,-7.131020966E0,1.775008850E0,9.259799832E0
1.056624329E1,5.780080261E0,-6.418652344E0,1.967358856E0,8.858833253E0
1.057627829E1,6.058950348E0,-5.735323334E0,2.151775360E0,8.615970651E0
1.058631229E1,6.325096893E0,-5.160368958E0,2.263443146E0,8.471093988E0
1.059634729E1,6.797065430E0,-4.787943420E0,2.326013031E0,8.633356084E0
1.060638229E1,7.388635254E0,-4.543501740E0,2.231110382E0,8.956181804E0
1.061641729E1,8.071964264E0,-4.529580688E0,1.977837067E0,9.464964224E0
1.062645229E1,8.686586151E0,-4.717140656E0,1.667981415E0,1.002448786E1
1.063648729E1,9.135951691E0,-5.181325378E0,1.321751404E0,1.058578163E1
1.064652229E1,9.571396179E0,-5.851332092E0,1.075812836E0,1.126974203E1
1.065655629E1,9.954748993E0,-6.381978607E0,8.888516235E-1,1.185819277E1
1.066659129E1,1.017703674E1,-6.876849518E0,7.429051208E-1,1.230508205E1
1.067662629E1,1.036175262E1,-7.069349213E0,6.072871399E-1,1.255828067E1
1.068666129E1,1.046892975E1,-6.953190765E0,4.303550720E-1,1.257499731E1
1.069669592E1,1.050964508E1,-6.707701263E0,3.585044861E-1,1.247294758E1
1.070673092E1,1.045156586E1,-6.244264984E0,4.526586914E-1,1.218322510E1
1.071676492E1,1.039947418E1,-5.808521118E0,7.253915405E-1,1.193374098E1
1.072679992E1,1.038136185E1,-5.469775543E0,1.175355835E0,1.179290378E1
1.073683492E1,1.040516235E1,-5.196893005E0,1.676962738E0,1.175105546E1
1.074686992E1,1.045231430E1,-4.957840118E0,2.024689636E0,1.174437827E1
1.075690492E1,1.050754944E1,-4.697232056E0,2.177821198E0,1.171390154E1
1.076693992E1,1.051503387E1,-4.468058624E0,2.117646332E0,1.161954867E1
1.077697492E1,1.049243088E1,-4.264182587E0,1.910926208E0,1.148590431E1
1.078700892E1,1.055934174E1,-4.104315033E0,1.753303986E0,1.146382025E1
1.079704392E1,1.061023590E1,-3.964505768E0,1.636546783E0,1.144433035E1
1.080707892E1,1.063598236E1,-3.941902771E0,1.554517365E0,1.144898434E1
1.081711392E1,1.068343369E1,-3.940854950E0,1.551822968E0,1.149235605E1
1.082714892E1,1.076755875E1,-3.950135651E0,1.594184875E0,1.157952151E1
1.083718392E1,1.089853638E1,-3.948040009E0,1.588646393E0,1.169995352E1
1.084721792E1,1.101918549E1,-3.907324677E0,1.568438416E0,1.179617031E1
1.085725292E1,1.113309860E1,-3.797752533E0,1.552122345E0,1.186498599E1
1.086728792E1,1.122351059E1,-3.636986847E0,1.558558960E0,1.190058693E1
1.087732292E1,1.129087051E1,-3.410807190E0,1.560055847E0,1.189752650E1
1.088735792E1,1.138517441E1,-3.206332397E0,1.664239197E0,1.194455758E1
1.089739292E1,1.143397293E1,-3.029849396E0,1.782493286E0,1.196214891E1
1.090742792E1,1.134670441E1,-2.775977325E0,1.906734924E0,1.183593634E1
1.091746192E1,1.120464981E1,-2.506088562E0,1.984872437E0,1.165179711E1
1.092749692E1,1.108549759E1,-2.230811005E0,2.112706604E0,1.150340401E1
1.093753192E1,1.098849930E1,-2.063009949E0,2.189646606E0,1.139287844E1
1.094756692E1,1.095287338E1,-1.972747650E0,2.271226959E0,1.135850521E1
1.095760192E1,1.100736008E1,-1.892364807E0,2.412233734E0,1.142636828E1
1.096763692E1,1.114163086E1,-1.959275665E0,2.684966583E0,1.162685447E1
1.097767192E1,1.130868347E1,-2.182162170E0,3.003504181E0,1.190248676E1
1.098770592E1,1.143876297E1,-2.491568756E0,3.346141663E0,1.217579062E1
1.099774092E1,1.146765289E1,-2.795885925E0,3.716920624E0,1.237495616E1
1.100777592E1,1.145477966E1,-3.120710449E0,4.177662506E0,1.258585217E1
1.101781092E1,1.152198990E1,-3.514092407E0,4.754712524E0,1.295038177E1
1.102784592E1,1.181627792E1,-4.098626862E0,5.274581451E0,1.357366478E1
1.103788092E1,1.209170517E1,-4.948409729E0,5.719456329E0,1.426212724E1
1.104791492E1,1.216295700E1,-5.815556488E0,6.337371368E0,1.489699621E1
1.105794992E1,1.191147995E1,-6.374494171E0,6.945107574E0,1.519052500E1
1.106798492E1,1.143726608E1,-6.475234680E0,7.407945099E0,1.508699341E1
1.107801992E1,1.099658249E1,-6.193221130E0,7.594906311E0,1.472967808E1
1.108805492E1,1.070633606E1,-5.773194580E0,7.410789185E0,1.424342669E1
1.109808992E1,1.065619034E1,-5.436844025E0,6.994205475E0,1.385758188E1
1.110812392E1,1.064915497E1,-5.290598145E0,6.593937836E0,1.359687267E1
1.111815892E1,1.059885956E1,-5.267097015E0,6.359824677E0,1.343597800E1
1.112819392E1,1.051473450E1,-5.367238770E0,6.196514282E0,1.333280476E1
1.113822892E1,1.047431854E1,-5.588329010E0,6.119125214E0,1.335606467E1
1.114826392E1,1.063822769E1,-5.839207306E0,6.064788208E0,1.356649868E1
1.115829892E1,1.089703949E1,-6.160139923E0,6.130800934E0,1.393841862E1
1.116833392E1,1.105436234E1,-6.516848145E0,6.349645844E0,1.431734049E1
1.117836792E1,1.116677856E1,-6.893464966E0,6.735842743E0,1.475087727E1
1.118840292E1,1.131332382E1,-7.185657349E0,7.252119141E0,1.523870728E1
1.119843792E1,1.137559433E1,-7.330256653E0,7.787555695E0,1.561354645E1
1.120847292E1,1.135688324E1,-7.430099030E0,8.201445007E0,1.585713936E1
1.121850792E1,1.114507370E1,-7.522906036E0,8.485254822E0,1.589988467E1
1.122854292E1,1.085557571E1,-7.508685608E0,8.687633972E0,1.580186279E1
1.123857692E1,1.055350388E1,-7.400310974E0,8.778495026E0,1.559496783E1
1.124861192E1,1.023122406E1,-7.281158752E0,8.752898254E0,1.530707178E1
1.125864692E1,9.937834167E0,-7.142846375E0,8.666378174E0,1.499622996E1
1.126868192E1,9.779014435E0,-7.021598511E0,8.480464783E0,1.472583620E1
1.127871692E1,9.602980499E0,-7.020550690E0,8.213270416E0,1.445555870E1
1.128875192E1,9.377249908E0,-7.055428162E0,7.847730560E0,1.411732118E1
1.129878692E1,9.144933014E0,-7.122638397E0,7.394473114E0,1.374918216E1
1.130882092E1,8.885672150E0,-7.238198090E0,6.951394501E0,1.340405038E1
1.131885592E1,8.563841400E0,-7.385491791E0,6.586303711E0,1.308679736E1
1.132889092E1,8.209079132E0,-7.537725220E0,6.310277710E0,1.280725913E1
1.133892592E1,7.830815735E0,-7.682174835E0,6.105353851E0,1.255439488E1
1.134896092E1,7.386988678E0,-7.745193787E0,5.935457153E0,1.223867967E1
1.135899592E1,7.003037109E0,-7.811206512E0,5.704786835E0,1.194161081E1
1.136902992E1,6.656358032E0,-7.880512390E0,5.458548889E0,1.167070408E1
1.137906492E1,6.321654053E0,-7.882158966E0,5.248685303E0,1.138597547E1
1.138909992E1,6.042035522E0,-7.856562195E0,5.016667786E0,1.110849758E1
1.139913492E1,5.810616760E0,-7.856262817E0,4.770729218E0,1.087400524E1
1.140916992E1,5.567073212E0,-7.759563904E0,4.468956757E0,1.054394189E1
1.141920492E1,5.271587677E0,-7.583529968E0,4.224515076E0,1.015608640E1
1.142923892E1,5.030139771E0,-7.422315216E0,4.051923981E0,9.839266092E0
1.143927392E1,4.813091125E0,-7.272027740E0,3.889960785E0,9.548823412E0
1.144930892E1,4.536316681E0,-7.093000031E0,3.740122375E0,9.212889549E0
1.145934392E1,4.291725311E0,-6.948849792E0,3.593427429E0,8.922899768E0
1.146937892E1,4.036206665E0,-6.884034576E0,3.426973572E0,8.684759303E0
1.147941392E1,3.777843933E0,-6.841822357E0,3.250041504E0,8.464361035E0
1.148944792E1,3.554208984E0,-6.812483368E0,3.009791107E0,8.252343525E0
1.149948292E1,3.386108551E0,-6.761289825E0,2.733016663E0,8.040531780E0
1.150951792E1,3.223097534E0,-6.740932159E0,2.442171478E0,7.860834919E0
1.151955292E1,3.099903717E0,-6.672225037E0,2.108964386E0,7.653477692E0
1.152958792E1,3.138224030E0,-6.653064880E0,1.804048462E0,7.574055269E0
1.153962292E1,3.378624115E0,-6.759194183E0,1.525028687E0,7.708924660E0
1.154965792E1,3.796105957E0,-7.017107849E0,1.137634277E0,8.058811001E0
1.155969192E1,4.383185120E0,-7.467670898E0,7.976911926E-1,8.695673158E0
1.156972692E1,4.888384552E0,-8.072862396E0,5.001100159E-1,9.450794719E0
1.157976192E1,4.988825684E0,-8.382268982E0,3.779640198E-1,9.761847765E0
1.158979692E1,4.811145172E0,-8.244854736E0,5.334906006E-1,9.560824217E0
1.159983192E1,4.677772522E0,-7.814050598E0,8.819659424E-1,9.149798164E0
1.160986692E1,4.889881439E0,-7.349117432E0,1.304088135E0,8.923066366E0
1.161990092E1,5.355712738E0,-6.858737183E0,1.594933319E0,8.847019101E0
1.162993592E1,5.885760498E0,-6.302643585E0,1.640289001E0,8.778157028E0
1.163997092E1,6.409221954E0,-5.789211273E0,1.482816467E0,8.763095224E0
1.165000592E1,7.063062286E0,-5.482499084E0,1.274449768E0,9.031548443E0
1.166004092E1,7.965236206E0,-5.419779510E0,1.031055908E0,9.689276240E0
1.167007592E1,8.839118958E0,-5.551505585E0,7.632627869E-1,1.046574452E1
1.168010992E1,9.585017853E0,-5.809868317E0,5.051994324E-1,1.121973099E1
1.169014492E1,1.020787262E1,-6.256838837E0,2.790197754E-1,1.197608232E1
1.170018004E1,1.071052734E1,-6.815327454E0,1.193019104E-1,1.269560228E1
1.171021504E1,1.108235413E1,-7.122488708E0,3.832031250E-2,1.317383341E1
1.172025004E1,1.128188919E1,-7.229216766E0,-5.104385376E-2,1.339944791E1
1.173028504E1,1.131497040E1,-7.208110657E0,-9.505233765E-2,1.341620100E1
1.174031904E1,1.125704086E1,-6.996151428E0,-1.407073975E-2,1.325395419E1
1.175035404E1,1.118189713E1,-6.679110718E0,1.639091492E-1,1.302582855E1
1.176038904E1,1.111693222E1,-6.437962189E0,5.144801331E-1,1.285683588E1
1.177042404E1,1.109881989E1,-6.258335724E0,1.018482056E0,1.278232665E1
1.178045904E1,1.107277405E1,-6.046675873E0,1.513203278E0,1.270662813E1
1.179049404E1,1.105795486E1,-5.811215515E0,1.873803406E0,1.263169548E1
1.180052804E1,1.107022934E1,-5.581593018E0,2.055226135E0,1.256694524E1
1.181056304E1,1.107696533E1,-5.358556824E0,2.121089172E0,1.248648515E1
1.182059804E1,1.113773895E1,-5.212460632E0,2.121687927E0,1.247880341E1
1.183063304E1,1.121123611E1,-5.091661835E0,2.088307343E0,1.248910978E1
1.184066804E1,1.126557312E1,-5.008584595E0,2.121538239E0,1.250999528E1
1.185070304E1,1.130239655E1,-4.973557434E0,2.241289215E0,1.255005253E1
1.186073704E1,1.137918686E1,-4.876110077E0,2.358645172E0,1.260260093E1
1.187077204E1,1.149489624E1,-4.747228088E0,2.436782684E0,1.267307082E1
1.188080704E1,1.154983200E1,-4.604275360E0,2.558180237E0,1.269418201E1
1.189084204E1,1.164353714E1,-4.491110687E0,2.624492340E0,1.275264649E1
1.190087704E1,1.176104279E1,-4.403542786E0,2.630180511E0,1.283086770E1
1.191091204E1,1.175879745E1,-4.246968384E0,2.667003937E0,1.278354286E1
1.192094604E1,1.172990753E1,-4.010460205E0,2.710413666E0,1.268939967E1
1.193098104E1,1.167706741E1,-3.696113892E0,2.736160126E0,1.254996946E1
1.194101604E1,1.166614014E1,-3.342848511E0,2.735112305E0,1.244002818E1
1.195105104E1,1.162796951E1,-3.035238190E0,2.722538452E0,1.232211676E1
1.196108604E1,1.155327484E1,-2.719394989E0,2.711910553E0,1.217488101E1
1.197112104E1,1.141226807E1,-2.367476807E0,2.699037323E0,1.196367884E1
1.198115604E1,1.131272507E1,-2.079026642E0,2.642305298E0,1.180177434E1
1.199119004E1,1.126407623E1,-1.933678894E0,2.603685608E0,1.172167677E1
1.200122504E1,1.114627121E1,-1.859283600E0,2.608924713E0,1.159753360E1
1.201126004E1,1.118369339E1,-1.861079865E0,2.585573273E0,1.162857709E1
1.202129504E1,1.138427628E1,-1.969304810E0,2.530338135E0,1.182719404E1
1.203133004E1,1.168889282E1,-2.139351196E0,2.471959534E0,1.213744713E1
1.204136504E1,1.185953796E1,-2.278861084E0,2.496658173E0,1.233187539E1
1.205139904E1,1.195354248E1,-2.373763733E0,2.678380280E0,1.247780642E1
1.206143404E1,1.196716415E1,-2.440524902E0,2.974614258E0,1.257050157E1
1.207146904E1,1.192495193E1,-2.487976227E0,3.226540375E0,1.260178825E1
1.208150404E1,1.217972214E1,-2.867886200E0,3.418441315E0,1.297135859E1
1.209153904E1,1.255124954E1,-3.924239502E0,3.824846191E0,1.369536305E1
1.210157304E1,1.296873138E1,-5.362897797E0,4.583618317E0,1.476340826E1
1.211160804E1,1.318248688E1,-6.567293243E0,5.446424103E0,1.570257419E1
1.212164304E1,1.280661850E1,-7.203919373E0,6.095175018E0,1.590776824E1
1.213167804E1,1.238494537E1,-7.356302490E0,6.334976349E0,1.573639042E1
1.214171304E1,1.196911011E1,-7.018305359E0,5.951324158E0,1.509749867E1
1.215174804E1,1.167527115E1,-6.589297485E0,5.409450989E0,1.445658873E1
1.216178204E1,1.189426575E1,-6.348448334E0,4.984035645E0,1.437417703E1
1.217181704E1,1.239138199E1,-6.536607056E0,4.717889099E0,1.478282980E1
1.218185204E1,1.288206161E1,-7.031927032E0,4.638703766E0,1.539198109E1
1.219188704E1,1.326855789E1,-7.663763123E0,4.626429291E0,1.600599081E1
1.220192204E1,1.355566086E1,-8.384813690E0,4.607119446E0,1.659176276E1
1.221195704E1,1.362152390E1,-9.114546204E0,4.624034271E0,1.702946149E1
1.222199104E1,1.372480911E1,-9.704020386E0,4.804858246E0,1.748213544E1
1.223202604E1,1.356164841E1,-9.982890472E0,4.901108093E0,1.753845119E1
1.224206104E1,1.335028793E1,-1.008123596E1,5.046156464E0,1.747355721E1
1.225209604E1,1.304387512E1,-9.890532532E0,5.206922150E0,1.717781564E1
1.226213104E1,1.271291336E1,-9.544152832E0,5.422324219E0,1.679614894E1
1.227216604E1,1.239781860E1,-9.212442627E0,5.642815704E0,1.644434171E1
1.228220004E1,1.207613754E1,-8.927734680E0,5.790857849E0,1.609570064E1
1.229223504E1,1.176897629E1,-8.641529846E0,5.919141083E0,1.575503323E1
1.230227004E1,1.143367355E1,-8.412955170E0,5.869444427E0,1.536089462E1
1.231230504E1,1.108909012E1,-8.328081665E0,5.647306366E0,1.497387502E1
1.232234004E1,1.073507629E1,-8.350235596E0,5.343587952E0,1.461239986E1
1.233237504E1,1.033555710E1,-8.358767853E0,4.980592804E0,1.419503594E1
1.234240904E1,9.857151947E0,-8.356073456E0,4.547243958E0,1.369908156E1
1.235244404E1,9.329798584E0,-8.353828125E0,4.165837097E0,1.319794623E1
1.236247904E1,8.838071136E0,-8.315358124E0,3.825444946E0,1.272362807E1
1.237251404E1,8.368347931E0,-8.253985748E0,3.517984314E0,1.226921927E1
1.238254904E1,8.002508698E0,-8.177794189E0,3.315904541E0,1.191266915E1
1.239258404E1,7.689659271E0,-8.089627533E0,3.196602631E0,1.160996131E1
1.240261804E1,7.341034241E0,-7.999215546E0,3.073408813E0,1.128379700E1
1.241265304E1,7.022346954E0,-7.894134064E0,2.909799042E0,1.095890687E1
1.242268804E1,6.739584961E0,-7.836204529E0,2.696492615E0,1.068172174E1
1.243272304E1,6.313870239E0,-7.705675964E0,2.451901245E0,1.025934789E1
1.244275804E1,5.880371704E0,-7.458689575E0,2.190993805E0,9.747372744E0
1.245279304E1,5.533842316E0,-7.238647156E0,1.914219360E0,9.310513368E0
1.246282704E1,5.211712189E0,-7.026837616E0,1.740131378E0,8.920002692E0
1.247286204E1,4.935686188E0,-6.769223328E0,1.593137054E0,8.527688331E0
1.248289704E1,4.671485596E0,-6.603218536E0,1.431772614E0,8.214331715E0
1.249293204E1,4.449497223E0,-6.480324097E0,1.364861755E0,7.978438039E0
1.250296704E1,4.191882935E0,-6.329587555E0,1.300645294E0,7.702417759E0
1.251300104E1,3.940106506E0,-6.249653778E0,1.202599182E0,7.485242576E0
1.252303604E1,3.689976654E0,-6.254892883E0,1.116977234E0,7.347601706E0
1.253307104E1,3.450774078E0,-6.254144440E0,9.927355957E-1,7.211635624E0
1.254310604E1,3.121608582E0,-6.254144440E0,8.129594421E-1,7.037021093E0
1.255314104E1,2.834206238E0,-6.285728760E0,6.831793213E-1,6.928913697E0
1.256317604E1,2.586172028E0,-6.294859772E0,5.294490051E-1,6.825969642E0
1.257321004E1,2.401605835E0,-6.300248566E0,4.364923096E-1,6.756579616E0
1.258324504E1,2.252665558E0,-6.223158875E0,3.487747192E-1,6.627507246E0
1.259328004E1,2.259700928E0,-6.159241791E0,2.674937439E-1,6.566129806E0
1.260331504E1,2.586172028E0,-6.269412689E0,2.429447937E-1,6.786224532E0
1.261335004E1,3.157084808E0,-6.558311920E0,1.763333130E-1,7.280778335E0
1.262338504E1,3.834426270E0,-7.056176605E0,4.296066284E-2,8.030834248E0
1.263341904E1,4.391717377E0,-7.612569580E0,-3.323089600E-2,8.788600652E0
1.264345404E1,4.540208588E0,-7.877518616E0,1.428030396E-1,9.093359460E0
1.265348904E1,4.539310455E0,-7.840246124E0,3.400927734E-1,9.065895532E0
1.266352404E1,4.768783264E0,-7.815846863E0,6.336323547E-1,9.177703741E0
1.267355904E1,5.299130402E0,-7.762258301E0,1.024619293E0,9.454273195E0
1.268359304E1,6.134543152E0,-7.601342926E0,1.501078491E0,9.882624682E0
1.269362804E1,7.096891937E0,-7.344776459E0,2.014959869E0,1.041017193E1
1.270366342E1,8.069120178E0,-7.163054352E0,2.455194397E0,1.106562369E1
1.271369842E1,9.363328857E0,-7.096592560E0,2.858904877E0,1.209160413E1
1.272373342E1,1.075723022E1,-7.122339020E0,3.174748077E0,1.328626135E1
1.273376842E1,1.200847824E1,-7.263345795E0,3.524420929E0,1.447001329E1
1.274380242E1,1.291918442E1,-7.620054016E0,3.810775452E0,1.547554712E1
1.275383742E1,1.354114105E1,-8.063881073E0,4.021237793E0,1.626527074E1
1.276387242E1,1.369936203E1,-8.310568085E0,4.068539429E0,1.653151763E1
1.277390742E1,1.361418915E1,-8.413853302E0,4.052822113E0,1.650952575E1
1.278394242E1,1.341390564E1,-8.311166840E0,3.994742889E0,1.627778638E1
1.279397742E1,1.305375458E1,-8.039481812E0,3.938310242E0,1.582858376E1
1.280401142E1,1.277219009E1,-7.755372620E0,3.953428802E0,1.545652754E1
1.281404642E1,1.251622238E1,-7.427853699E0,4.052223358E0,1.510792333E1
1.282408142E1,1.228704895E1,-7.039860535E0,4.117188263E0,1.474728610E1
1.283411642E1,1.215502350E1,-6.646179199E0,4.109703827E0,1.445011971E1
1.284415142E1,1.209709396E1,-6.250701599E0,4.044289856E0,1.420447934E1
1.285418642E1,1.200563416E1,-5.807922363E0,3.886667633E0,1.389148656E1
1.286422042E1,1.190474396E1,-5.439688110E0,3.712879028E0,1.360509486E1
1.287425542E1,1.180984131E1,-5.171146545E0,3.458108826E0,1.334809443E1
1.288429042E1,1.164892593E1,-4.963677979E0,3.297043762E0,1.308457382E1
1.289432542E1,1.146929947E1,-4.806654510E0,3.292702789E0,1.286431691E1
1.290436042E1,1.135628448E1,-4.790039062E0,3.395688629E0,1.278438003E1
1.291439442E1,1.123443787E1,-4.852159882E0,3.574566650E0,1.274886569E1
1.292442942E1,1.107382187E1,-4.924309845E0,3.773652649E0,1.269325855E1
1.293446442E1,1.089120163E1,-4.940176849E0,3.853287048E0,1.256469026E1
1.294449942E1,1.071801178E1,-4.862488403E0,3.823798370E0,1.237501531E1
1.295453442E1,1.063433578E1,-4.737049255E0,3.826343079E0,1.225437206E1
1.296456942E1,1.062864761E1,-4.553231506E0,3.876788177E0,1.219547268E1
1.297460342E1,1.069316345E1,-4.365671539E0,3.951782227E0,1.220735087E1
1.298463842E1,1.074151291E1,-4.116140442E0,4.009861450E0,1.218202366E1
1.299467342E1,1.078043198E1,-3.777394867E0,4.042194214E0,1.211716797E1
1.300470842E1,1.080153809E1,-3.419040070E0,4.069437561E0,1.203841277E1
1.301474342E1,1.065918411E1,-3.020119629E0,4.023782501E0,1.178686363E1
1.302477742E1,1.053179901E1,-2.587519226E0,3.949836273E0,1.154189121E1
1.303481242E1,1.044767395E1,-2.151925049E0,3.889362030E0,1.135393365E1
1.304484742E1,1.039977356E1,-1.839973755E0,3.779640198E0,1.121724001E1
1.305488242E1,1.043345352E1,-1.657203827E0,3.656745758E0,1.117922477E1
1.306491742E1,1.055799454E1,-1.603315887E0,3.587888947E0,1.126564768E1
1.307495242E1,1.085377945E1,-1.810036011E0,3.575614471E0,1.157003792E1
1.308498642E1,1.130823441E1,-2.162702637E0,3.632346497E0,1.207258834E1
1.309502142E1,1.182466049E1,-2.484683075E0,3.706741791E0,1.263867795E1
1.310505642E1,1.225336899E1,-2.698438568E0,3.772455139E0,1.310183346E1
1.311509142E1,1.285915924E1,-2.924169159E0,3.888763275E0,1.374886255E1
1.312512642E1,1.365191071E1,-3.359613647E0,4.127067719E0,1.465245228E1
1.313516142E1,1.447115707E1,-4.123624878E0,4.540507965E0,1.571734334E1
1.314519542E1,1.509925095E1,-4.861141205E0,5.155279541E0,1.667917804E1
1.315523042E1,1.534234543E1,-5.296735382E0,5.612877960E0,1.717403179E1
1.316526542E1,1.528995438E1,-5.462141418E0,5.938001862E0,1.728807565E1
1.317530042E1,1.512589554E1,-5.202431488E0,6.058501282E0,1.710448617E1
1.318533542E1,1.453776855E1,-4.621639252E0,5.789660339E0,1.631644663E1
1.319536942E1,1.404379578E1,-4.215833130E0,5.464985504E0,1.564824320E1
1.320540442E1,1.390398651E1,-4.222120056E0,5.110073547E0,1.540324610E1
1.321543942E1,1.391461441E1,-4.672533417E0,4.684059448E0,1.540744871E1
1.322547442E1,1.407238632E1,-5.342091064E0,4.246219940E0,1.563970516E1
1.323550942E1,1.410441971E1,-6.129902802E0,3.826941833E0,1.584789726E1
1.324554442E1,1.402298904E1,-7.056775360E0,3.553161163E0,1.609556630E1
1.325557842E1,1.391880569E1,-7.811805267E0,3.255579987E0,1.628975919E1
1.326561342E1,1.387210281E1,-8.693920898E0,2.966082001E0,1.663782256E1
1.327564842E1,1.387150406E1,-9.514664154E0,2.847378845E0,1.706033485E1
1.328568342E1,1.368259689E1,-1.006701553E1,2.862497406E0,1.722649561E1
1.329571842E1,1.337783066E1,-1.036519547E1,3.087180176E0,1.720274140E1
1.330575242E1,1.299133438E1,-1.036654266E1,3.364403687E0,1.695757023E1
1.331578742E1,1.255574020E1,-1.015353561E1,3.617377625E0,1.654769828E1
1.332582242E1,1.216699860E1,-9.842482452E0,3.840713196E0,1.611401233E1
1.333585742E1,1.181298477E1,-9.457932129E0,4.033063202E0,1.566092871E1
1.334589242E1,1.145223495E1,-9.023834839E0,4.132007446E0,1.515443058E1
1.335592742E1,1.113654144E1,-8.616232452E0,4.086651764E0,1.466160768E1
1.336596142E1,1.084883972E1,-8.267457733E0,3.896247711E0,1.418551821E1
1.337599642E1,1.050186127E1,-8.003855896E0,3.631747742E0,1.369453873E1
1.338603142E1,1.015473312E1,-7.798632660E0,3.332220612E0,1.323030500E1
1.339606642E1,9.801018677E0,-7.663763123E0,3.056493988E0,1.281153339E1
1.340610142E1,9.451794891E0,-7.573201447E0,2.869682465E0,1.244688251E1
1.341613542E1,9.089099121E0,-7.520660706E0,2.689457245E0,1.209980333E1
1.342617042E1,8.715625763E0,-7.507188721E0,2.500250702E0,1.177162981E1
1.343620542E1,8.305927734E0,-7.438331909E0,2.341730347E0,1.139302059E1
1.344624042E1,7.878267059E0,-7.345225525E0,2.125579834E0,1.097895803E1
1.345627542E1,7.417824554E0,-7.276967468E0,1.905986481E0,1.056461836E1
1.346630942E1,6.982978821E0,-7.166497192E0,1.772613831E0,1.016183227E1
1.347634442E1,6.596632233E0,-7.000642090E0,1.657652893E0,9.760756098E0
1.348637942E1,6.215973816E0,-6.946005707E0,1.522334290E0,9.444724848E0
1.349641442E1,5.780080261E0,-6.867419128E0,1.482666779E0,9.097751046E0
1.350644942E1,5.447621613E0,-6.747967529E0,1.370250549E0,8.780047470E0
1.351648442E1,5.223836975E0,-6.679410095E0,1.307530975E0,8.579780254E0
1.352651842E1,4.968018951E0,-6.568341064E0,1.299747162E0,8.337485192E0
1.353655342E1,4.694387970E0,-6.478228455E0,1.280287628E0,8.102089776E0
1.354658842E1,4.548591156E0,-6.440656586E0,1.163979492E0,7.970356769E0
1.355662342E1,4.416715393E0,-6.435567169E0,1.033151550E0,7.873455517E0
1.356665842E1,4.387226715E0,-6.379882965E0,8.833131409E-1,7.793003721E0
1.357669242E1,4.334985352E0,-6.428382111E0,6.135740662E-1,7.777703240E0
1.358672742E1,4.279750214E0,-6.655310211E0,2.926414490E-1,7.918020896E0
1.359676242E1,4.148622894E0,-6.999893646E0,-2.993774414E-2,8.136982195E0
1.360679742E1,3.988306274E0,-7.271728363E0,-2.257305908E-1,8.296720715E0
1.361683242E1,3.633693695E0,-7.306456146E0,-3.360511780E-1,8.167065671E0
1.362686642E1,3.257825317E0,-7.265890503E0,-4.604425049E-1,7.976126748E0
1.363690142E1,2.918181610E0,-7.213499451E0,-4.116439819E-1,7.792291640E0
1.364693642E1,2.720891876E0,-7.061266022E0,-2.204914856E-1,7.570557901E0
1.365697142E1,2.833757172E0,-7.073989563E0,-4.071533203E-2,7.620575161E0
1.366700642E1,3.278332672E0,-7.352859650E0,8.487350464E-2,8.051038048E0
1.367704142E1,3.742667084E0,-7.715555420E0,1.184037781E-1,8.576209640E0
1.368707542E1,3.924688568E0,-7.924670563E0,1.896556091E-1,8.845312495E0
1.369710992E1,4.014950867E0,-7.962242432E0,3.761677551E-1,8.925168748E0
1.370714492E1,4.286935272E0,-8.021968231E0,7.409591675E-1,9.125722372E0
1.371717992E1,4.686005402E0,-8.082143097E0,1.269360352E0,9.428200219E0
1.372721492E1,5.279820557E0,-8.040829010E0,1.946402435E0,9.814271176E0
1.373724892E1,6.138884125E0,-7.959697723E0,2.575843506E0,1.037678447E1
1.374728392E1,7.023095398E0,-7.887547760E0,3.028202820E0,1.098668699E1
1.375731892E1,7.913443909E0,-7.876620483E0,3.504662018E0,1.170241003E1
1.376735392E1,8.999734955E0,-7.995922394E0,3.915108490E0,1.265930799E1
1.377738892E1,1.004111938E1,-8.238268433E0,4.233646088E0,1.366077979E1
1.378742292E1,1.103684875E1,-8.543633423E0,4.481829987E0,1.465921221E1
1.379745792E1,1.174337952E1,-8.788374481E0,4.569547577E0,1.536304832E1
1.380749292E1,1.230890350E1,-9.007668457E0,4.546645203E0,1.591600387E1
1.381752792E1,1.260753250E1,-9.050329742E0,4.308191071E0,1.610648486E1
1.382756292E1,1.273581573E1,-9.028924255E0,4.034560089E0,1.612452017E1
1.383759692E1,1.282697617E1,-8.931476898E0,3.907773743E0,1.611127843E1
1.384763192E1,1.275332932E1,-8.584947510E0,3.902235260E0,1.586115293E1
1.385766692E1,1.259046799E1,-8.079448700E0,3.957320709E0,1.547442285E1
1.386770192E1,1.242371475E1,-7.598349152E0,4.170477448E0,1.514848112E1
1.387773692E1,1.233000961E1,-7.152426453E0,4.553231506E0,1.496389850E1
1.388777192E1,1.220382202E1,-6.702312469E0,4.830754395E0,1.473738282E1
1.389780592E1,1.214334778E1,-6.354735260E0,5.003794556E0,1.459045974E1
1.390784092E1,1.219648727E1,-6.030509491E0,5.036576385E0,1.450822002E1
1.391787592E1,1.229977249E1,-5.761518860E0,4.960384827E0,1.445976903E1
1.392791092E1,1.236922806E1,-5.545518036E0,4.763993225E0,1.436823596E1
1.393794592E1,1.234752319E1,-5.371579742E0,4.387975159E0,1.416225702E1
1.394797992E1,1.230710724E1,-5.287903748E0,3.945794678E0,1.396410077E1
1.395801492E1,1.216385513E1,-5.285059662E0,3.650608521E0,1.375565956E1
1.396804992E1,1.195863190E1,-5.326523438E0,3.546275482E0,1.356306745E1
1.397808492E1,1.176987442E1,-5.382207642E0,3.573967896E0,1.342651665E1
1.398811992E1,1.160431870E1,-5.318140869E0,3.729943542E0,1.329869593E1
1.399815392E1,1.150163223E1,-5.116809540E0,3.885919189E0,1.317458355E1
1.400818892E1,1.140523270E1,-4.891228638E0,3.945944366E0,1.302205542E1
1.401822392E1,1.117037109E1,-4.574936371E0,4.004472656E0,1.271782349E1
1.402825892E1,1.092158844E1,-4.185296631E0,4.086053009E0,1.238925466E1
1.403829392E1,1.074345886E1,-3.796105957E0,4.188440094E0,1.213982534E1
1.404832792E1,1.059227325E1,-3.382665710E0,4.242926788E0,1.190130698E1
1.405836292E1,1.052700897E1,-2.964884491E0,4.251159668E0,1.173374691E1
1.406839792E1,1.055604858E1,-2.552641754E0,4.286336517E0,1.167556518E1
1.407843292E1,1.073477692E1,-2.204765167E0,4.175866241E0,1.172750117E1
1.408846792E1,1.109283234E1,-2.010319519E0,4.097579041E0,1.199510183E1
1.409850192E1,1.151794830E1,-1.947899323E0,3.939956818E0,1.232804545E1
1.410853692E1,1.210862000E1,-2.091600494E0,3.930526428E0,1.290125997E1
1.411857192E1,1.265528320E1,-2.215692444E0,4.006268921E0,1.345792245E1
1.412860692E1,1.327738953E1,-2.254461823E0,4.026327209E0,1.405642136E1
1.413864192E1,1.375938721E1,-2.227817230E0,4.023034058E0,1.450753973E1
1.414867592E1,1.402927597E1,-2.089654541E0,4.127217407E0,1.477231072E1
1.415871092E1,1.411325134E1,-1.918710022E0,4.323309631E0,1.488476798E1
1.416874592E1,1.427925613E1,-2.052681427E0,4.579876099E0,1.513558462E1
1.417878092E1,1.482936218E1,-2.826871490E0,4.905748444E0,1.587348585E1
1.418881592E1,1.541868668E1,-4.204157410E0,5.332211609E0,1.684765025E1
1.419884992E1,1.565893707E1,-5.624104614E0,5.726491699E0,1.759618056E1
1.420888492E1,1.545251633E1,-6.451733551E0,5.777685242E0,1.771402759E1
1.421891992E1,1.494701752E1,-6.800807648E0,5.408103790E0,1.728906891E1
1.422895492E1,1.437999664E1,-6.554120636E0,4.842130737E0,1.652837048E1
1.423898992E1,1.356509125E1,-5.760620728E0,4.277504883E0,1.534579746E1
1.424902492E1,1.326496536E1,-5.096451874E0,3.859424286E0,1.472509027E1
1.425905892E1,1.340432556E1,-5.044060822E0,3.740571442E0,1.480237711E1
1.426909392E1,1.350252136E1,-5.427263947E0,3.902085571E0,1.506650420E1
1.427912892E1,1.368289627E1,-6.111940155E0,4.014352112E0,1.551426717E1
1.428916392E1,1.381626892E1,-7.055577850E0,4.044439545E0,1.603209147E1
1.429919892E1,1.375699219E1,-8.054001617E0,4.032614136E0,1.644334981E1
1.430923292E1,1.356793533E1,-8.865015106E0,3.869453430E0,1.666283385E1
1.431926792E1,1.330927322E1,-9.629475403E0,3.587439880E0,1.681467440E1
1.432930292E1,1.321856186E1,-1.012868729E1,3.469784546E0,1.701058754E1
1.433933792E1,1.302351746E1,-1.029274612E1,3.349434814E0,1.693432441E1
1.434937292E1,1.298714310E1,-1.039603134E1,3.283272400E0,1.695650999E1
1.435940692E1,1.290032364E1,-1.037417679E1,3.261717224E0,1.687248332E1
1.436944192E1,1.273372009E1,-1.026610153E1,3.297792206E0,1.668579940E1
1.437947692E1,1.254511230E1,-1.010458740E1,3.299588470E0,1.644292594E1
1.438951192E1,1.225516525E1,-9.929002533E0,3.247047729E0,1.610333772E1
1.439954692E1,1.186597458E1,-9.695488129E0,3.239114227E0,1.566191890E1
1.440958092E1,1.139834702E1,-9.449699249E0,3.213218079E0,1.515070629E1
1.441961592E1,1.094883179E1,-9.148675232E0,3.131188660E0,1.460751582E1
1.442965092E1,1.049991531E1,-8.823102264E0,3.033741302E0,1.404631416E1
1.443968592E1,1.008901978E1,-8.545279999E0,2.913391571E0,1.353875846E1
1.444972092E1,9.571845245E0,-8.273744659E0,2.872526550E0,1.297406956E1
1.445975492E1,9.074729004E0,-8.039332123E0,2.791095886E0,1.244073084E1
1.446978992E1,8.583151245E0,-7.863148499E0,2.641407166E0,1.193635713E1
1.447982492E1,8.054899750E0,-7.713609467E0,2.484383698E0,1.142599419E1
1.448985992E1,7.550897827E0,-7.569908295E0,2.366728363E0,1.095084347E1
1.449989492E1,7.067253571E0,-7.432943115E0,2.258353729E0,1.050213683E1
1.450992892E1,6.628066864E0,-7.337741089E0,2.110311584E0,1.011074328E1
1.451996392E1,6.166277161E0,-7.268734589E0,1.994901581E0,9.738434621E0
1.452999892E1,5.620512085E0,-7.165898438E0,1.831740875E0,9.289538802E0
1.454003392E1,5.195246429E0,-7.006779327E0,1.600771179E0,8.868371348E0
1.455006892E1,4.868326263E0,-6.860683136E0,1.344354401E0,8.519205506E0
1.456010292E1,4.518803101E0,-6.717431030E0,1.096320190E0,8.169784518E0
1.457013792E1,4.204157410E0,-6.522386627E0,8.925938416E-1,7.811094072E0
1.458017292E1,3.968397675E0,-6.372697906E0,5.890251160E-1,7.530365814E0
1.459020792E1,3.724854126E0,-6.270011444E0,3.098556519E-1,7.299561103E0
1.460024292E1,3.488795013E0,-6.149212646E0,7.873626709E-2,7.070410612E0
1.461027692E1,3.293301544E0,-6.035000153E0,-1.260379028E-1,6.876259700E0
1.462031192E1,3.185226288E0,-5.991291046E0,-3.101550293E-1,6.792453978E0
1.463034692E1,3.030747528E0,-6.037544861E0,-4.396357727E-1,6.769834425E0
1.464038192E1,2.880460052E0,-6.067332916E0,-5.363346863E-1,6.737746933E0
1.465041692E1,2.739004211E0,-6.100713501E0,-6.421646118E-1,6.718126575E0
1.466045092E1,2.604434052E0,-6.133645020E0,-6.824308777E-1,6.698536397E0
1.467048592E1,2.545007629E0,-6.167624359E0,-7.005432129E-1,6.708756581E0
1.468052092E1,2.646646271E0,-6.319708099E0,-6.737489319E-1,6.884575845E0
1.469055592E1,2.985990601E0,-6.674470367E0,-5.646258545E-1,7.333723264E0
1.470059096E1,3.511098633E0,-7.294780426E0,-3.838018799E-1,8.104871310E0
1.471062496E1,3.877087555E0,-7.985593872E0,-1.609153748E-1,8.878480228E0
1.472065996E1,4.045038300E0,-8.477770386E0,3.517684937E-2,9.393410614E0
1.473069496E1,4.138294373E0,-8.736282806E0,3.495231628E-1,9.673173421E0
1.474072996E1,4.442461853E0,-8.922495575E0,9.424401855E-1,1.001172253E1
1.475076496E1,4.929099884E0,-9.033115540E0,1.605860596E0,1.041498873E1
1.476079896E1,5.613476715E0,-8.977730713E0,2.570903778E0,1.089588527E1
1.477083396E1,6.758595428E0,-8.750353546E0,3.509302368E0,1.160010786E1
1.478086896E1,7.998616791E0,-8.390202484E0,4.191733246E0,1.232655653E1
1.479090396E1,9.502389679E0,-8.157286835E0,4.710853729E0,1.338016745E1
1.480093896E1,1.112845825E1,-8.129594421E0,4.923262024E0,1.463459591E1
1.481097296E1,1.247221390E1,-8.157735901E0,5.031786346E0,1.572970592E1
1.482100796E1,1.340627151E1,-8.259524231E0,4.729864197E0,1.644139507E1
1.483104296E1,1.388377853E1,-8.484506378E0,4.037104797E0,1.676437801E1
1.484107796E1,1.412747177E1,-8.632548523E0,3.398532715E0,1.690137205E1
1.485111196E1,1.413076492E1,-8.572523346E0,3.027753754E0,1.680279639E1
1.486114696E1,1.397568741E1,-8.318950653E0,2.880909119E0,1.651739737E1
1.487118196E1,1.363619339E1,-7.907456360E0,2.866988068E0,1.602164963E1
1.488121696E1,1.320314392E1,-7.515421600E0,3.100801849E0,1.550546818E1
1.489125196E1,1.283685562E1,-7.132966919E0,3.500470734E0,1.509693262E1
1.490128596E1,1.238090378E1,-6.705156555E0,3.806135101E0,1.458535454E1
1.491132096E1,1.190788742E1,-6.363117828E0,4.094585266E0,1.410860304E1
1.492135596E1,1.152303772E1,-6.188281403E0,4.375251617E0,1.379195605E1
1.493139096E1,1.122590561E1,-6.101012878E0,4.653672638E0,1.359779335E1
1.494142596E1,1.101080292E1,-6.115682373E0,5.032684479E0,1.356345328E1
1.495145996E1,1.077654007E1,-6.161487122E0,5.324278107E0,1.350724534E1
1.496149496E1,1.059960800E1,-6.247109070E0,5.500611420E0,1.347719509E1
1.497152996E1,1.060379929E1,-6.388714600E0,5.601351929E0,1.358791290E1
1.498156496E1,1.068478088E1,-6.403982849E0,5.557642822E0,1.364048872E1
1.499159996E1,1.077354630E1,-6.233038330E0,5.322332153E0,1.353688613E1
1.500163396E1,1.101843704E1,-5.954916687E0,4.960833893E0,1.347133477E1
1.501166896E1,1.129925308E1,-5.624553680E0,4.622088318E0,1.344144430E1
1.502170396E1,1.150552414E1,-5.238506470E0,4.362977142E0,1.337365340E1
1.503173896E1,1.167122955E1,-4.740043030E0,4.208199005E0,1.328136085E1
1.504177396E1,1.169742508E1,-4.254602509E0,4.174818420E0,1.312861397E1
1.505180796E1,1.161030624E1,-3.860472107E0,4.251758423E0,1.295298829E1
1.506184296E1,1.150163223E1,-3.474125519E0,4.420906677E0,1.280240243E1
1.507187796E1,1.148127457E1,-3.107388153E0,4.603826294E0,1.275424413E1
1.508191296E1,1.147214355E1,-2.732717285E0,4.716691589E0,1.270137792E1
1.509194796E1,1.139026382E1,-2.311044159E0,4.770579529E0,1.256333810E1
1.510198196E1,1.136017639E1,-1.821262665E0,4.749473419E0,1.244701181E1
1.511201696E1,1.136317017E1,-1.367406464E0,4.665797424E0,1.235965624E1
1.512205196E1,1.146855103E1,-1.127605133E0,4.523144073E0,1.237974104E1
1.513208696E1,1.166389481E1,-1.158890076E0,4.336182861E0,1.249767779E1
1.514212096E1,1.200279007E1,-1.436562653E0,4.172573090E0,1.278831685E1
1.515215596E1,1.237237152E1,-1.892215118E0,4.110601959E0,1.317395550E1
1.516219096E1,1.269075943E1,-2.344873810E0,4.129313049E0,1.355009352E1
1.517222596E1,1.304896454E1,-2.679278412E0,4.270469513E0,1.398895701E1
1.518226096E1,1.345057938E1,-3.016826477E0,4.500840454E0,1.450092729E1
1.519229496E1,1.387824005E1,-3.355871429E0,4.837789764E0,1.507553083E1
1.520232996E1,1.432565964E1,-3.950435028E0,5.277275848E0,1.576959420E1
1.521236496E1,1.488953705E1,-4.936883698E0,5.677393799E0,1.668244390E1
1.522239996E1,1.521930130E1,-5.925577698E0,6.020929413E0,1.740664224E1
1.523243496E1,1.517289780E1,-6.609505463E0,6.314019928E0,1.771353261E1
1.524246896E1,1.483849319E1,-6.723119202E0,6.367159424E0,1.749062409E1
1.525250396E1,1.419812485E1,-6.504423981E0,5.997428284E0,1.672911912E1
1.526253896E1,1.352422623E1,-6.096821594E0,5.434748383E0,1.579912715E1
1.527257396E1,1.331825455E1,-5.806724854E0,4.972958679E0,1.535657109E1
1.528260896E1,1.355251740E1,-5.940247192E0,4.658163300E0,1.551308318E1
1.529264296E1,1.378737900E1,-6.372997284E0,4.532873840E0,1.585098922E1
1.530267796E1,1.383917130E1,-6.921007690E0,4.403842163E0,1.608778529E1
1.531271296E1,1.384620667E1,-7.571255493E0,4.130061493E0,1.631253373E1
1.532274796E1,1.383498001E1,-8.418343964E0,3.843108215E0,1.664465884E1
1.533278296E1,1.392060196E1,-9.287736053E0,3.739074554E0,1.714718281E1
1.534281696E1,1.384785324E1,-9.888885956E0,3.651955719E0,1.740373194E1
1.535285196E1,1.383453094E1,-1.040351578E1,3.573219452E0,1.767470747E1
1.536288696E1,1.382075958E1,-1.070259384E1,3.555256805E0,1.783812662E1
1.537292196E1,1.365161133E1,-1.081306412E1,3.632645874E0,1.779002427E1
1.538295596E1,1.346659607E1,-1.073208252E1,3.757186890E0,1.762507470E1
1.539299096E1,1.335313202E1,-1.054242691E1,3.939956818E0,1.746345211E1
1.540302596E1,1.320958054E1,-1.029648834E1,4.141587524E0,1.725292547E1
1.541306096E1,1.295975006E1,-1.002884491E1,4.276007996E0,1.693567525E1
1.542309596E1,1.264106277E1,-9.765692139E0,4.299359436E0,1.654236085E1
1.543312996E1,1.232566864E1,-9.580676880E0,4.245022430E0,1.617812388E1
1.544316496E1,1.192959229E1,-9.463769989E0,4.136947174E0,1.577949449E1
1.545319996E1,1.154354507E1,-9.447902985E0,4.040697327E0,1.545456368E1
1.546323496E1,1.107262436E1,-9.473649445E0,3.965254211E0,1.510219471E1
1.547326996E1,1.052221893E1,-9.445507965E0,3.917204132E0,1.467239586E1
1.548330396E1,1.000848724E1,-9.476792908E0,3.796105957E0,1.429649751E1
1.549333896E1,9.477840729E0,-9.540560303E0,3.594924316E0,1.392031740E1
1.550337396E1,8.922645264E0,-9.582922211E0,3.426075439E0,1.353454800E1
1.551340896E1,8.425379333E0,-9.641600189E0,3.227588196E0,1.320472630E1
1.552344296E1,7.871830444E0,-9.617799683E0,3.017275543E0,1.278951668E1
1.553347796E1,7.352410583E0,-9.529932404E0,2.773282928E0,1.235186833E1
1.554351296E1,6.823710022E0,-9.385033722E0,2.451601868E0,1.185968921E1
1.555354796E1,6.293512573E0,-9.247020721E0,2.055525513E0,1.137281310E1
1.556358296E1,5.843847656E0,-9.075178070E0,1.678160248E0,1.092362734E1
1.557361696E1,5.309758301E0,-8.827742615E0,1.259181519E0,1.037825183E1
1.558365196E1,4.795427856E0,-8.627010040E0,9.469308472E-1,9.915548830E0
1.559368696E1,4.301904144E0,-8.461903381E0,8.060737610E-1,9.526801300E0
1.560372196E1,3.747307434E0,-8.302185516E0,7.388635254E-1,9.138627723E0
1.561375696E1,3.178939362E0,-8.131091309E0,7.071295166E-1,8.759014413E0
1.562379096E1,2.721041565E0,-8.030350800E0,6.215075684E-1,8.501580607E0
1.563382596E1,2.371219025E0,-8.009095001E0,4.483177185E-1,8.364763665E0
1.564386096E1,2.017055511E0,-8.060887299E0,2.091151428E-1,8.312048251E0
1.565389596E1,1.593885498E0,-8.064629517E0,-9.580078125E-3,8.220633309E0
1.566392996E1,1.163380737E0,-8.019722900E0,-2.143542480E-1,8.106500964E0
1.567396496E1,7.467970276E-1,-7.934100952E0,-3.689826965E-1,7.977707186E0
1.568399996E1,3.683839417E-1,-7.765102386E0,-4.230203247E-1,7.785336730E0
1.569403496E1,1.291813660E-1,-7.591463470E0,-3.667373657E-1,7.601414457E0
1.570406954E1,2.963836670E-2,-7.540569305E0,-2.088157654E-1,7.543518271E0
1.571410354E1,2.619552612E-1,-7.602241058E0,-3.592529297E-2,7.606837733E0
1.572413854E1,9.720785522E-1,-7.864196320E0,-1.347198486E-3,7.924047090E0
1.573417354E1,1.793420563E0,-8.333470459E0,-2.146536255E-1,8.526966834E0
1.574420854E1,2.345322876E0,-8.787626038E0,-4.764591980E-1,9.107684894E0
1.575424354E1,2.842289429E0,-9.104517059E0,-5.742059326E-1,9.555132261E0
1.576427754E1,3.360362091E0,-9.463021545E0,-3.849993896E-1,1.004933006E1
1.577431254E1,3.986360321E0,-9.834548950E0,2.808160400E-1,1.061547358E1
1.578434754E1,5.097499695E0,-9.954000549E0,1.444645844E0,1.127624191E1
1.579438254E1,6.542295227E0,-9.735155640E0,2.845283203E0,1.206940424E1
1.580441654E1,8.098309479E0,-9.370064850E0,3.913761292E0,1.298838940E1
1.581445154E1,9.648934937E0,-9.007818146E0,4.673431549E0,1.400298881E1
1.582448654E1,1.108579697E1,-8.751401367E0,5.088817749E0,1.501259426E1
1.583452154E1,1.217837494E1,-8.577762451E0,5.268444214E0,1.580023194E1
1.584455654E1,1.296169601E1,-8.618926849E0,5.189857635E0,1.640811037E1
1.585459054E1,1.331795517E1,-9.005572815E0,4.771477661E0,1.677007068E1
1.586462554E1,1.350356918E1,-9.582323456E0,4.100872192E0,1.705826651E1
1.587466054E1,1.357137817E1,-1.000519409E1,3.653003540E0,1.725197523E1
1.588469554E1,1.359682526E1,-1.025367737E1,3.436254272E0,1.737295024E1
1.589472954E1,1.360685440E1,-1.030561935E1,3.320993958E0,1.738911377E1
1.590476454E1,1.358859238E1,-9.955796814E0,3.317401428E0,1.716895120E1
1.591479954E1,1.354368576E1,-9.329798584E0,3.456462250E0,1.680546628E1
1.592483454E1,1.360760284E1,-8.791817322E0,3.680695953E0,1.661356162E1
1.593486954E1,1.371433090E1,-8.349786530E0,4.147425385E0,1.658321273E1
1.594490354E1,1.376597351E1,-7.908803558E0,4.710554352E0,1.656020902E1
1.595493854E1,1.375130402E1,-7.526199188E0,5.216053162E0,1.652117571E1
1.596497354E1,1.373708359E1,-7.304061127E0,5.664370880E0,1.655723020E1
1.597500854E1,1.368124969E1,-7.118896179E0,5.998476105E0,1.654802078E1
1.598504354E1,1.355910370E1,-6.982230377E0,6.248905334E0,1.648179760E1
1.599507754E1,1.334445007E1,-6.832841034E0,6.467600555E0,1.632764286E1
1.600511254E1,1.313683182E1,-6.604266357E0,6.432573395E0,1.604900884E1
1.601514754E1,1.300181259E1,-6.449188843E0,6.244115295E0,1.579962478E1
1.602518254E1,1.289298889E1,-6.267616425E0,6.138734436E0,1.559475036E1
1.603521654E1,1.279314651E1,-5.873186646E0,6.098019104E0,1.534095030E1
1.604525154E1,1.271381149E1,-5.398523712E0,6.080056458E0,1.509145942E1
1.605528654E1,1.260169464E1,-4.901108093E0,6.048621826E0,1.481247428E1
1.606532154E1,1.250290009E1,-4.391567688E0,6.065087585E0,1.457373201E1
1.607535654E1,1.235366043E1,-3.915707245E0,6.072721710E0,1.431166092E1
1.608539054E1,1.223480759E1,-3.502566376E0,6.070476379E0,1.409997062E1
1.609542554E1,1.219903198E1,-3.155587921E0,6.084846497E0,1.399283650E1
1.610546054E1,1.208751389E1,-2.819237366E0,6.031407623E0,1.379978149E1
1.611549554E1,1.196836166E1,-2.611020355E0,5.910459137E0,1.360119978E1
1.612552954E1,1.189351730E1,-2.533481598E0,5.735622711E0,1.344513484E1
1.613556454E1,1.186911804E1,-2.409689026E0,5.452561340E0,1.328205517E1
1.614559954E1,1.203587128E1,-2.355950775E0,5.064717865E0,1.326891361E1
1.615563454E1,1.224199265E1,-2.331701202E0,4.663851471E0,1.330619123E1
1.616566954E1,1.233479965E1,-2.354154510E0,4.305346985E0,1.327498921E1
1.617570354E1,1.238464600E1,-2.422861633E0,4.002676392E0,1.323900046E1
1.618573854E1,1.244062958E1,-2.505938873E0,3.803590393E0,1.324825626E1
1.619577354E1,1.250918701E1,-2.604733429E0,3.679049377E0,1.329660860E1
1.620580854E1,1.241263779E1,-2.635120239E0,3.557202759E0,1.317843416E1
1.621584254E1,1.222358093E1,-2.681074677E0,3.451821899E0,1.298149324E1
1.622587754E1,1.227821732E1,-3.045117645E0,3.530408478E0,1.313358846E1
1.623591254E1,1.267204834E1,-3.831582184E0,3.715274048E0,1.375009427E1
1.624594754E1,1.329220871E1,-4.967869263E0,3.931125183E0,1.472468277E1
1.625598254E1,1.395877258E1,-6.193520508E0,4.041595459E0,1.579688331E1
1.626601654E1,1.429003372E1,-6.962920532E0,3.912414093E0,1.637053176E1
1.627605154E1,1.453208038E1,-7.181316376E0,3.623215485E0,1.660964646E1
1.628608654E1,1.462728241E1,-6.796766052E0,2.939437408E0,1.639492945E1
1.629612154E1,1.457279572E1,-5.941594391E0,2.085463257E0,1.587507719E1
1.630615554E1,1.448283279E1,-4.988526306E0,1.271455994E0,1.537057061E1
1.631619054E1,1.465766922E1,-4.584666138E0,7.873626709E-1,1.537811336E1
1.632622554E1,1.520358398E1,-4.816234589E0,7.755372620E-1,1.596704543E1
1.633626054E1,1.567091217E1,-5.437293091E0,1.331481171E0,1.664074778E1
1.634629454E1,1.626158386E1,-6.458768921E0,1.962119751E0,1.760695089E1
1.635632954E1,1.684656738E1,-7.857160950E0,2.241588593E0,1.872342197E1
1.636636454E1,1.695269669E1,-9.295519867E0,2.226170654E0,1.946166617E1
1.637639954E1,1.684611832E1,-1.065050217E1,2.251617737E0,2.005728499E1
1.638643454E1,1.652428757E1,-1.159234360E1,2.244582367E0,2.030942293E1
1.639646854E1,1.610036911E1,-1.218870346E1,2.279609528E0,2.032198310E1
1.640650354E1,1.560430069E1,-1.244736557E1,2.365830231E0,2.010045428E1
1.641653854E1,1.498668503E1,-1.234168533E1,2.437830505E0,1.956683272E1
1.642657354E1,1.434646637E1,-1.202464462E1,2.421963501E0,1.887535649E1
1.643660754E1,1.368708755E1,-1.172915909E1,2.204016724E0,1.815949417E1
1.644664254E1,1.304387512E1,-1.141017242E1,1.971400452E0,1.744193604E1
1.645667754E1,1.234183502E1,-1.098191299E1,1.774559784E0,1.661542558E1
1.646671254E1,1.162632294E1,-1.055290512E1,1.578617249E0,1.578059644E1
1.647674754E1,1.096589630E1,-1.020877075E1,1.403930511E0,1.504795344E1
1.648678154E1,1.033435959E1,-9.884544983E0,1.283431091E0,1.435793902E1
1.649681654E1,9.691446533E0,-9.542057190E0,1.092128906E0,1.364432984E1
1.650685154E1,9.041049042E0,-9.217981110E0,8.279283142E-1,1.293820733E1
1.651688654E1,8.371641083E0,-8.906029816E0,5.037025452E-1,1.223337475E1
1.652692054E1,7.732769623E0,-8.555159454E0,2.278262329E-1,1.153422664E1
1.653695554E1,7.185208282E0,-8.160430298E0,5.134323120E-2,1.087301600E1
1.654699054E1,6.605613556E0,-7.842641144E0,-1.574725342E-1,1.025504501E1
1.655702554E1,6.054908752E0,-7.583529968E0,-3.165916443E-1,9.709380879E0
1.656706054E1,5.496719513E0,-7.241341553E0,-4.364923096E-1,9.101729419E0
1.657709454E1,4.917124786E0,-6.908433838E0,-5.560935974E-1,8.497871166E0
1.658712954E1,4.399501190E0,-6.620432739E0,-6.667135620E-1,7.976856985E0
1.659716454E1,3.996090088E0,-6.365662537E0,-7.701484680E-1,7.555363935E0
1.660719954E1,3.607947235E0,-6.138734436E0,-7.985893250E-1,7.165130050E0
1.661723354E1,3.227588196E0,-5.896538086E0,-8.032296753E-1,6.769908779E0
1.662726854E1,2.885399780E0,-5.684279480E0,-8.348139954E-1,6.429111875E0
1.663730354E1,2.631228333E0,-5.540727997E0,-9.077124023E-1,6.200562158E0
1.664733854E1,2.414928131E0,-5.494923248E0,-9.949809265E-1,6.084081396E0
1.665737254E1,2.281555481E0,-5.538183289E0,-1.068328400E0,6.084266194E0
1.666740754E1,2.212998047E0,-5.722300415E0,-1.176852722E0,6.247164535E0
1.667744254E1,2.227368164E0,-6.022126923E0,-1.281036072E0,6.547383831E0
1.668747754E1,2.350412292E0,-6.426885223E0,-1.325194244E0,6.970325057E0
1.669751254E1,2.590063934E0,-6.854545898E0,-1.300196228E0,7.442025322E0
1.670754742E1,2.988984375E0,-7.323520660E0,-1.220861206E0,8.003654449E0
1.671758242E1,3.481909332E0,-7.847730560E0,-1.039887543E0,8.648232978E0
1.672761742E1,4.090843048E0,-8.402776337E0,-7.258406067E-1,9.373819477E0
1.673765242E1,4.813839569E0,-8.970845032E0,-3.113525391E-1,1.018558061E1
1.674768642E1,5.586233368E0,-9.597741394E0,1.083746338E-1,1.110560166E1
1.675772142E1,6.283184052E0,-1.032522858E1,5.294490051E-1,1.209830828E1
1.676775642E1,6.793173523E0,-1.097098572E1,1.178648987E0,1.295758263E1
1.677779142E1,7.053781586E0,-1.131526978E1,1.913919983E0,1.347049570E1
1.678782542E1,7.125931549E0,-1.142304565E1,2.913092194E0,1.377501283E1
1.679786042E1,7.433242493E0,-1.136032608E1,4.062851257E0,1.417098666E1
1.680789542E1,7.699389038E0,-1.108430008E1,5.161416779E0,1.444930874E1
1.681793042E1,7.911647644E0,-1.062340851E1,6.177952881E0,1.461567920E1
1.682796542E1,8.170609131E0,-1.002375549E1,7.188052368E0,1.479535821E1
1.683799942E1,8.699160004E0,-9.446705475E0,8.029302979E0,1.514547244E1
1.684803442E1,9.414073334E0,-9.001980286E0,8.555159454E0,1.558368310E1
1.685806942E1,1.006447083E1,-8.659492493E0,8.657845917E0,1.585051037E1
1.686810442E1,1.067954178E1,-8.467142487E0,8.301736450E0,1.595819359E1
1.687813842E1,1.116453323E1,-8.397387543E0,7.473658447E0,1.584356306E1
1.688817342E1,1.154070099E1,-8.427025909E0,6.487958221E0,1.569382512E1
1.689820842E1,1.188752975E1,-8.508456573E0,5.615422668E0,1.566014587E1
1.690824342E1,1.213571365E1,-8.559500427E0,4.824317780E0,1.561456485E1
